"Time (s)","Linear Acceleration x (m/s^2)","Linear Acceleration y (m/s^2)","Linear Acceleration z (m/s^2)","Absolute acceleration (m/s^2)"
7.355166665E-3,1.861847253E1,-2.402108929E1,7.784002926E0,3.137277405E1
1.732916667E-2,1.731851487E1,-2.462131768E1,7.632333169E0,3.105467358E1
2.730416667E-2,1.700747808E1,-2.461692759E1,7.078353925E0,3.074655312E1
3.727916667E-2,1.633469862E1,-2.000383930E1,9.198530931E0,2.741512241E1
4.725316667E-2,1.641932303E1,-1.785157862E1,1.054474124E1,2.644739299E1
5.722816667E-2,1.764661266E1,-1.765584776E1,9.919132433E0,2.686114455E1
6.720216667E-2,1.811078218E1,-1.577882370E1,8.393027859E0,2.544434368E1
7.717716667E-2,1.671154231E1,-1.265524578E1,6.505043786E0,2.194872404E1
8.715216667E-2,1.334766604E1,-8.949630749E0,4.250420580E0,1.662294061E1
9.712616667E-2,9.438501831E0,-5.182245730E0,1.768062358E0,1.091178409E1
1.071011667E-1,6.404927759E0,-1.779648616E0,2.286851889E-1,6.651507026E0
1.170751667E-1,3.985929966E0,8.392064238E-1,-7.713950944E-1,4.145715319E0
1.270501667E-1,1.944451804E0,2.559887039E0,-2.375643613E0,3.997198650E0
1.370241667E-1,-1.096013796E-1,4.246124046E0,-3.690354384E0,5.626748382E0
1.469991667E-1,-1.651658328E0,5.944925550E0,-4.482467918E0,7.626443054E0
1.569741667E-1,-2.939659018E0,7.558350688E0,-4.755064527E0,9.401111579E0
1.669481667E-1,-4.112959557E0,9.276959050E0,-4.706618006E0,1.118618159E1
1.769231667E-1,-4.843278546E0,1.075515680E1,-4.824471561E0,1.274387189E1
1.868971667E-1,-5.221019787E0,1.138151405E1,-4.996762694E0,1.348204536E1
1.968721667E-1,-5.393966392E0,1.095685884E1,-5.230376501E0,1.328549839E1
2.068471667E-1,-5.688259680E0,1.019487660E1,-5.596312798E0,1.294644831E1
2.168211667E-1,-6.092832624E0,9.591231689E0,-5.731260688E0,1.272641677E1
2.267961667E-1,-6.559308286E0,9.025421773E0,-5.817177336E0,1.258261958E1
2.367701667E-1,-7.079034541E0,8.592755297E0,-5.958467701E0,1.262741110E1
2.467451667E-1,-7.455957756E0,8.313275930E0,-5.912343110E0,1.263557137E1
2.567201667E-1,-7.700455570E0,8.125339987E0,-5.714127762E0,1.256858870E1
2.666941667E-1,-7.974063163E0,8.139165729E0,-5.722467645E0,1.275062108E1
2.766691667E-1,-8.048247957E0,8.023096744E0,-5.760927122E0,1.274098339E1
2.866431667E-1,-7.858653744E0,7.747894616E0,-5.381636369E0,1.227804217E1
2.966181667E-1,-7.590525577E0,7.577248304E0,-4.789692030E0,1.174614491E1
3.065931667E-1,-7.451517965E0,7.638400825E0,-4.390011452E0,1.153873857E1
3.165671667E-1,-7.288948413E0,7.694031234E0,-4.010209944E0,1.133175491E1
3.265421667E-1,-6.949018777E0,7.512771642E0,-3.402414097E0,1.078457331E1
3.365161667E-1,-6.635313903E0,7.233460675E0,-2.750092286E0,1.019378985E1
3.464911667E-1,-6.383405913E0,7.008364508E0,-2.193273196E0,9.730133166E0
3.564651667E-1,-6.117521907E0,6.800076746E0,-1.693376896E0,9.302292370E0
3.664401667E-1,-5.802677996E0,6.534440078E0,-1.239809547E0,8.826500255E0
3.764151667E-1,-5.439141980E0,6.288474028E0,-9.339430118E-1,8.366685164E0
3.863891667E-1,-4.991160477E0,5.822177875E0,-8.272745955E-1,7.713223799E0
3.963641667E-1,-4.367460203E0,5.064030817E0,-6.578211164E-1,6.719512286E0
4.063381667E-1,-3.504703533E0,3.822699094E0,-4.584300394E-1,5.206355089E0
4.163131667E-1,-2.114507546E0,1.665455418E0,-4.665886594E-1,2.731773945E0
4.262881667E-1,2.514665258E-1,-1.447218034E0,-5.700903699E-1,1.575651764E0
4.362621667E-1,3.310053232E0,-5.397260129E0,-4.156317830E-1,6.345046815E0
4.462371667E-1,7.523815278E0,-1.094396573E1,8.444314957E-2,1.328101325E1
4.562111667E-1,1.314461914E1,-1.830147626E1,1.917000296E0,2.261415344E1
4.661861667E-1,1.725237584E1,-2.345591380E1,6.142958465E0,2.975836526E1
4.761611667E-1,1.851708415E1,-2.491593081E1,7.863090026E0,3.202365061E1
4.861351667E-1,1.900380170E1,-2.565157602E1,7.810364513E0,3.286562985E1
4.961101667E-1,1.823805970E1,-2.285327403E1,9.648899853E0,3.078961227E1
5.060841667E-1,1.757360667E1,-1.919958519E1,1.097499223E1,2.824723309E1
5.160591667E-1,1.771442399E1,-1.744000832E1,1.027745332E1,2.689945639E1
5.260331667E-1,1.768753850E1,-1.546551001E1,8.279695956E0,2.491153113E1
5.360081667E-1,1.704898980E1,-1.241147068E1,5.538853379E0,2.180347574E1
5.459831667E-1,1.541494212E1,-8.347659312E0,2.682500228E0,1.773413838E1
5.559571667E-1,1.319789429E1,-4.245898928E0,1.883305935E-1,1.386533591E1
5.659379167E-1,1.082858497E1,-7.934718418E-1,-2.414667930E0,1.112288052E1
5.759119167E-1,8.301589685E0,2.548524145E0,-4.360482720E0,9.717261763E0
5.858869167E-1,5.800982303E0,5.053407011E0,-5.457163099E0,9.432335193E0
5.958619167E-1,3.563925303E0,6.702777908E0,-5.429074244E0,9.332933215E0
6.058359167E-1,1.505698961E0,8.357375046E0,-4.506318126E0,9.613519130E0
6.158109167E-1,-3.363242429E-1,9.905192671E0,-3.693137659E0,1.057663565E1
6.257849167E-1,-1.980505736E0,1.090469583E1,-3.202635495E0,1.153653624E1
6.357599167E-1,-3.480579091E0,1.141935723E1,-2.677403795E0,1.223456748E1
6.457339167E-1,-4.501560831E0,1.135155175E1,-2.023616672E0,1.237807745E1
6.557089167E-1,-4.671111959E0,1.077558347E1,-2.119431048E0,1.193417253E1
6.656839167E-1,-4.493882852E0,1.053900278E1,-3.454868299E0,1.196669034E1
6.756579167E-1,-5.001189621E0,1.055099542E1,-5.440642376E0,1.288161447E1
6.856329167E-1,-6.161920400E0,1.052950924E1,-6.918956487E0,1.402539792E1
6.956069167E-1,-7.241399440E0,1.000670033E1,-7.429348247E0,1.441412962E1
7.055819167E-1,-7.923630343E0,9.126364596E0,-7.442849468E0,1.419402891E1
7.155569167E-1,-8.280344996E0,8.546730693E0,-6.914647089E0,1.376310514E1
7.255309167E-1,-8.185287396E0,8.600299374E0,-6.528178879E0,1.354921395E1
7.355059167E-1,-7.496961356E0,8.824515536E0,-6.111499275E0,1.309301063E1
7.454799167E-1,-6.823122962E0,8.808115266E0,-5.187697089E0,1.229024420E1
7.554549167E-1,-6.515126724E0,8.660254970E0,-4.018929312E0,1.155848975E1
7.654289167E-1,-6.177564041E0,8.354530960E0,-2.759575301E0,1.075061584E1
7.754039167E-1,-5.897149705E0,7.981761022E0,-1.762119248E0,1.007918389E1
7.853789167E-1,-5.733557475E0,7.581785159E0,-1.136982898E0,9.573394258E0
7.953529167E-1,-5.598291496E0,7.200100556E0,-8.001785982E-1,9.155468392E0
8.053279167E-1,-5.406927915E0,6.789652914E0,-5.735862739E-1,8.698462933E0
8.153019167E-1,-5.266146843E0,6.502864528E0,-4.816072328E-1,8.381616501E0
8.252769167E-1,-5.260406631E0,6.200046585E0,-5.045059526E-1,8.146593266E0
8.352509167E-1,-5.329234791E0,5.890563986E0,-5.872107249E-1,7.965193279E0
8.452259167E-1,-5.520429388E0,5.693432711E0,-6.220113060E-1,7.954697652E0
8.552009167E-1,-5.872280327E0,5.502504163E0,-4.836220372E-1,8.061955010E0
8.651749167E-1,-5.961507668E0,4.884890841E0,-3.682852699E-1,7.716046024E0
8.751499167E-1,-5.479100683E0,3.849745975E0,-3.952372795E-1,6.708002748E0
8.851239167E-1,-4.418634449E0,2.447547993E0,-4.626178153E-1,5.072360084E0
8.950989167E-1,-2.806785135E0,2.368274367E-1,-5.006836277E-1,2.860911415E0
9.050739167E-1,-3.274142557E-1,-3.329639066E0,-6.026432812E-1,3.399540458E0
9.150479167E-1,3.542252598E0,-8.809818560E0,-4.367905176E-1,9.505327058E0
9.250229167E-1,8.591560126E0,-1.611752718E1,1.135754324E0,1.829971381E1
9.349969167E-1,1.313159973E1,-2.245356304E1,5.080897111E0,2.650314925E1
9.449719167E-1,1.424965753E1,-2.289151950E1,8.085647918E0,2.815052587E1
9.549459167E-1,1.451581577E1,-2.367752327E1,7.261067719E0,2.870639511E1
9.649209167E-1,1.598209631E1,-2.454385610E1,6.934315953E0,3.009838887E1
9.748959167E-1,1.727005432E1,-2.176963528E1,8.901332163E0,2.917885382E1
9.848699167E-1,1.963782699E1,-2.064407667E1,9.634466586E0,3.007731865E1
9.948449167E-1,2.132943350E1,-1.945430160E1,8.256885967E0,3.002650079E1
1.004818917E0,2.105855538E1,-1.616212974E1,6.149052433E0,2.724863370E1
1.014793917E0,1.922207476E1,-1.237038347E1,4.057034447E0,2.321581516E1
1.024768917E0,1.645479692E1,-9.058224653E0,2.294682480E0,1.892293167E1
1.034742917E0,1.309862260E1,-5.336542642E0,1.174315031E0,1.419266068E1
1.044717917E0,1.003319641E1,-1.914940907E0,4.400028865E-2,1.021439988E1
1.054691917E0,7.355021950E0,6.214093351E-1,-1.465685295E0,7.525339250E0
1.064666917E0,5.235903874E0,2.873484909E0,-2.822940992E0,6.606103295E0
1.074640917E0,3.937015668E0,4.910509247E0,-3.928332553E0,7.419231098E0
1.084615917E0,2.650458655E0,6.803468131E0,-5.349687182E0,9.051588957E0
1.094590917E0,8.406758291E-1,8.693085331E0,-6.621739592E0,1.096010509E1
1.104564917E0,-1.243975250E0,1.053225860E1,-7.149445542E0,1.279025087E1
1.114539917E0,-2.859153968E0,1.171573037E1,-6.807937742E0,1.384850591E1
1.124513917E0,-3.853019831E0,1.203506787E1,-6.113365706E0,1.403787237E1
1.134488917E0,-4.842941161E0,1.170750919E1,-5.919912915E0,1.398446350E1
1.144462917E0,-5.909716541E0,1.108305345E1,-6.342257302E0,1.407064501E1
1.154437917E0,-6.650955790E0,1.014305273E1,-6.685568383E0,1.384967711E1
1.164412917E0,-7.212734050E0,9.279341206E0,-6.521440548E0,1.344094091E1
1.174386917E0,-7.616750339E0,8.720180159E0,-5.882597739E0,1.298696977E1
1.184361917E0,-7.736462724E0,8.268848201E0,-4.991109606E0,1.237488914E1
1.194335917E0,-7.728995245E0,8.012781671E0,-4.270937583E0,1.192404904E1
1.204310917E0,-7.630813478E0,7.994043099E0,-3.657595358E0,1.164096402E1
1.214284917E0,-7.389858491E0,7.770036267E0,-3.087795888E0,1.115876138E1
1.224259917E0,-7.263163362E0,7.408008249E0,-2.956185004E0,1.078754643E1
1.234234917E0,-7.185253891E0,7.201035526E0,-3.005031766E0,1.060721462E1
1.244208917E0,-7.084616877E0,7.056423358E0,-2.994622260E0,1.043803954E1
1.254183917E0,-7.002140146E0,6.802638996E0,-3.047417940E0,1.022705334E1
1.264157917E0,-6.759742652E0,6.456797240E0,-3.067566860E0,9.838410327E0
1.274132917E0,-6.464988019E0,6.195364135E0,-2.868448410E0,9.402478563E0
1.284106917E0,-6.155245219E0,5.938560271E0,-2.444174881E0,8.895365796E0
1.294081917E0,-5.809970643E0,5.793922960E0,-1.739689329E0,8.387599245E0
1.304056917E0,-5.630359966E0,6.034235922E0,-1.146929596E0,8.332370851E0
1.314030917E0,-5.553812896E0,6.509174843E0,-7.156011088E-1,8.586400863E0
1.324005917E0,-5.429152597E0,6.825858874E0,-2.405917279E-1,8.725017574E0
1.333979917E0,-5.376656880E0,7.033309899E0,6.576100320E-2,8.853259956E0
1.343954917E0,-5.252469036E0,6.981622851E0,5.925319836E-2,8.736990303E0
1.353928917E0,-4.854675938E0,6.314930339E0,-2.027324684E-1,7.967893330E0
1.363903917E0,-4.109073497E0,5.056480892E0,-6.585577194E-1,6.548754255E0
1.373878917E0,-2.968099290E0,3.083337970E0,-1.357849774E0,4.490026998E0
1.383852917E0,-1.076872936E0,-8.768133759E-2,-2.296724474E0,2.538166001E0
1.393827917E0,1.918596586E0,-4.690798364E0,-2.906305915E0,5.842192758E0
1.403801917E0,5.855995831E0,-9.938531156E0,-1.881252612E0,1.168786551E1
1.413776917E0,9.963663658E0,-1.668912408E1,2.581611199E0,1.960780897E1
1.423750917E0,1.258732686E1,-2.302829523E1,7.453950992E0,2.728194575E1
1.433725917E0,1.260728692E1,-2.393981534E1,6.581622430E0,2.784557767E1
1.443699917E0,1.391699072E1,-2.457492587E1,6.900960512E0,2.907288888E1
1.453674917E0,1.675508536E1,-2.462268826E1,1.063608410E1,3.162492605E1
1.463649917E0,1.831401269E1,-2.201319286E1,1.256712707E1,3.127165495E1
1.473623917E0,1.931401637E1,-2.011160816E1,1.110178559E1,3.001262492E1
1.483598917E0,1.888862559E1,-1.808269567E1,7.813513239E0,2.729129987E1
1.493572917E0,1.770355168E1,-1.452530931E1,6.092711002E0,2.369644446E1
1.503547917E0,1.634444359E1,-1.134545427E1,4.681228226E0,2.043952217E1
1.513521917E0,1.433924506E1,-7.985169364E0,2.121209625E0,1.654921173E1
1.523496917E0,1.162730293E1,-3.790499647E0,1.984544992E-2,1.222957296E1
1.533471917E0,8.477394994E0,4.069194317E-2,-1.214314663E0,8.564020191E0
1.543445917E0,5.360382909E0,2.797338374E0,-2.399953558E0,6.505273552E0
1.553420917E0,2.797301536E0,4.792192592E0,-2.974655188E0,6.295917662E0
1.563388667E0,1.262202775E0,6.441602080E0,-3.232194632E0,7.316725726E0
1.573363667E0,-1.713064617E-1,8.192005262E0,-4.007202137E0,9.121182220E0
1.583337667E0,-1.827033282E0,9.795683677E0,-5.133856512E0,1.120936894E1
1.593312667E0,-3.653366067E0,1.078317783E1,-6.299844523E0,1.301199634E1
1.603287667E0,-5.299533859E0,1.124731227E1,-6.948344593E0,1.424312413E1
1.613261667E0,-6.132449264E0,1.133443227E1,-7.217528182E0,1.477054508E1
1.623236667E0,-6.403243761E0,1.077856788E1,-7.522716587E0,1.462088647E1
1.633210667E0,-6.636126666E0,1.014434847E1,-7.504631149E0,1.425712003E1
1.643185667E0,-6.800450383E0,9.645728908E0,-6.835761133E0,1.363868915E1
1.653159667E0,-6.843226858E0,9.049209416E0,-5.673939264E0,1.268509092E1
1.663134667E0,-7.138380856E0,8.771589464E0,-4.336171167E0,1.211196282E1
1.673108667E0,-7.335264208E0,8.716921506E0,-3.044778507E0,1.179243392E1
1.683083667E0,-7.415288032E0,8.457886344E0,-2.090807612E0,1.144088347E1
1.693058667E0,-7.400182335E0,8.076150286E0,-1.625764664E0,1.107384363E1
1.703032667E0,-7.105481497E0,7.683465900E0,-1.439197116E0,1.056384418E1
1.713007667E0,-6.619943912E0,7.213787134E0,-1.272198590E0,9.873240170E0
1.722981667E0,-6.132834595E0,6.615959035E0,-1.137707952E0,9.092686815E0
1.732956667E0,-5.729978394E0,6.273782313E0,-1.005325820E0,8.555914733E0
1.742930667E0,-5.436536461E0,6.231189440E0,-8.796036673E-1,8.316090016E0
1.752905667E0,-5.229338036E0,6.305588243E0,-8.278898688E-1,8.233578870E0
1.762879667E0,-4.957992146E0,6.316731282E0,-7.830906951E-1,8.068209916E0
1.772854667E0,-4.620127746E0,6.213343738E0,-7.338105078E-1,7.777512370E0
1.782829667E0,-4.474761872E0,6.337150344E0,-8.861490405E-1,7.808215444E0
1.792803667E0,-4.498541329E0,6.549344046E0,-1.168131161E0,8.030897330E0
1.802778667E0,-4.494079319E0,6.529855860E0,-1.364580066E0,8.043497078E0
1.812752667E0,-4.629543518E0,6.463853660E0,-1.534094210E0,8.097377499E0
1.822727667E0,-4.879374577E0,6.460741771E0,-1.862070383E0,8.307634237E0
1.832701667E0,-4.907654051E0,6.023067740E0,-2.193841837E0,8.073125497E0
1.842676667E0,-4.604103452E0,5.022369990E0,-2.408671610E0,7.226594484E0
1.852650667E0,-3.970358246E0,3.505302873E0,-2.570701464E0,5.887223357E0
1.862625667E0,-2.420439132E0,7.823486835E-1,-2.801331437E0,3.783920305E0
1.872600667E0,2.727129686E-1,-3.422596346E0,-2.780105460E0,4.417864244E0
1.882574667E0,3.945466064E0,-8.450821154E0,-1.791804539E0,9.497033439E0
1.892549667E0,8.393579836E0,-1.419734600E1,3.671418469E-1,1.649701818E1
1.902523667E0,1.209587657E1,-1.915117259E1,4.127143148E0,2.302413847E1
1.912498667E0,1.367829568E1,-2.085133942E1,6.997730761E0,2.590062478E1
1.922472667E0,1.455002198E1,-2.145556262E1,7.487523365E0,2.698346369E1
1.932447667E0,1.661194084E1,-2.190646714E1,8.679267776E0,2.883018505E1
1.942421667E0,1.920948921E1,-2.135208093E1,1.055291915E1,3.059869178E1
1.952396667E0,2.019485380E1,-2.011909260E1,1.085931559E1,3.050466755E1
1.962371667E0,1.939002199E1,-1.794259170E1,9.294856793E0,2.800542649E1
1.972345667E0,1.791064135E1,-1.510287856E1,7.336083403E0,2.455007401E1
1.982320667E0,1.602112647E1,-1.211213768E1,5.702863685E0,2.087829080E1
1.992294667E0,1.387848797E1,-9.095417622E0,4.161044719E0,1.710711382E1
2.002269667E0,1.182797586E1,-5.957731537E0,2.395004328E0,1.345851492E1
2.012243667E0,9.681215660E0,-2.637626356E0,4.827600114E-1,1.004569891E1
2.022218667E0,7.502088779E0,4.286605489E-1,-1.564519612E0,7.675467903E0
2.032192667E0,5.350184780E0,3.045896494E0,-3.573286110E0,7.118309930E0
2.042167667E0,3.042827291E0,5.033777323E0,-5.601681127E0,8.122594629E0
2.052141667E0,6.239458573E-1,6.753847489E0,-7.376519823E0,1.002081878E1
2.062116667E0,-1.637176529E0,8.479055604E0,-8.341041434E0,1.200615272E1
2.072091667E0,-3.875780702E0,9.841886036E0,-8.528072813E0,1.358721541E1
2.082065667E0,-5.551171124E0,1.052149388E1,-8.281639570E0,1.449492629E1
2.092040667E0,-6.619142843E0,1.044142912E1,-7.832699123E0,1.463515185E1
2.102014667E0,-7.414449542E0,9.851758475E0,-7.266640116E0,1.431206713E1
2.111989667E0,-7.976411989E0,9.197990649E0,-6.779488699E0,1.393512279E1
2.121963667E0,-8.389171035E0,8.643023225E0,-6.424027104E0,1.365094009E1
2.131938667E0,-8.578627839E0,7.947057797E0,-6.034862158E0,1.315933678E1
2.141912667E0,-8.679561306E0,7.037372544E0,-5.416509748E0,1.241764771E1
2.151887667E0,-8.659272637E0,6.464390434E0,-4.499028987E0,1.170523849E1
2.161861667E0,-8.601058343E0,6.396562732E0,-3.473485541E0,1.126762270E1
2.171836667E0,-8.509129588E0,6.504856090E0,-2.454841518E0,1.098838869E1
2.181811667E0,-8.153142913E0,6.507118378E0,-1.436317654E0,1.052992580E1
2.191785667E0,-7.665132540E0,6.384262530E0,-6.544370404E-1,9.997067207E0
2.201760667E0,-7.284863548E0,6.338457781E0,-3.445460129E-1,9.662504640E0
2.211734667E0,-6.964123304E0,6.432871018E0,-4.251856948E-1,9.490080390E0
2.221709667E0,-6.495843776E0,6.444697596E0,-5.195216024E-1,9.165152272E0
2.231683667E0,-5.941186255E0,6.230328730E0,-4.791433623E-1,8.622312252E0
2.241658667E0,-5.553136958E0,6.107395699E0,-4.168322164E-1,8.265068747E0
2.251632667E0,-5.267092338E0,6.203303484E0,-4.730602115E-1,8.151504265E0
2.261607667E0,-5.050455337E0,6.309369637E0,-5.829219384E-1,8.102779913E0
2.271581667E0,-4.904418787E0,6.397615231E0,-6.334724334E-1,8.086043013E0
2.281556667E0,-4.819565163E0,6.434263825E0,-7.941021717E-1,8.078276894E0
2.291530667E0,-4.927156270E0,6.472486489E0,-1.160578752E0,8.216866391E0
2.301505667E0,-5.055847054E0,6.414648170E0,-1.474595428E0,8.299622417E0
2.311480667E0,-4.948430779E0,6.019100404E0,-1.696574299E0,7.974641133E0
2.321454667E0,-4.600647748E0,5.189912015E0,-1.973216889E0,7.210737224E0
2.331429667E0,-4.088438088E0,3.941192919E0,-2.270793096E0,6.115948734E0
2.341403667E0,-3.113969194E0,1.981816097E0,-2.482305012E0,4.448172362E0
2.351378667E0,-1.773124292E0,-6.868385088E-1,-2.447995451E0,3.099741703E0
2.361352667E0,9.802541292E-1,-4.864302210E0,-2.236110482E0,5.442657828E0
2.371327667E0,5.368063227E0,-1.036749225E1,-1.225943752E0,1.173899214E1
2.381301667E0,1.000706520E1,-1.524581491E1,1.563513891E0,1.830357348E1
2.391276667E0,1.310210403E1,-1.758412113E1,5.084942214E0,2.251051051E1
2.401250667E0,1.316676255E1,-1.864177719E1,6.545617615E0,2.374288531E1
2.411225667E0,1.271953709E1,-2.067416410E1,6.896779168E0,2.523436641E1
2.421199667E0,1.386494582E1,-2.177216829E1,8.237248093E0,2.709458047E1
2.431174667E0,1.618409656E1,-2.103431049E1,9.861278912E0,2.831275368E1
2.441149667E0,1.809390946E1,-2.020151495E1,9.907441510E0,2.887296596E1
2.451123667E0,1.852067083E1,-1.873200909E1,8.763143746E0,2.776141388E1
2.461098667E0,1.756180582E1,-1.650047771E1,7.161201954E0,2.513892602E1
2.471072667E0,1.556005598E1,-1.357796214E1,5.497693659E0,2.137056465E1
2.481047667E0,1.324836161E1,-1.010864771E1,3.918163660E0,1.711887410E1
2.491021667E0,1.099336886E1,-6.504817498E0,2.327281731E0,1.298395355E1
2.500996667E0,8.781832616E0,-3.113498493E0,9.953352678E-1,9.370440185E0
2.510970667E0,6.707384344E0,-1.462838870E-1,-1.730319750E-1,6.711210307E0
2.520945667E0,4.547125259E0,2.334547627E0,-1.330491822E0,5.281729758E0
2.530919667E0,2.516099580E0,4.609194038E0,-2.337873523E0,5.748137036E0
2.540894667E0,7.498422575E-1,6.613419589E0,-3.298775707E0,7.428425354E0
2.550868667E0,-1.626451566E0,8.411258308E0,-4.063816048E0,9.482046819E0
2.560847792E0,-3.700091168E0,9.759140334E0,-4.958969800E0,1.155520992E1
2.570822792E0,-4.688756517E0,1.038620919E1,-5.999128654E0,1.287817237E1
2.580796792E0,-5.326436899E0,1.049552405E1,-7.006925508E0,1.369758958E1
2.590771792E0,-5.913685631E0,1.011358978E1,-8.065883160E0,1.422374237E1
2.600745792E0,-6.358633014E0,9.463530253E0,-8.845269059E0,1.443015604E1
2.610720792E0,-6.709770593E0,8.829582149E0,-9.073446125E0,1.432864149E1
2.620694792E0,-7.025450656E0,8.628769467E0,-8.763494579E0,1.416373738E1
2.630669792E0,-7.127959948E0,8.669284240E0,-8.056441076E0,1.381559065E1
2.640643792E0,-6.996238552E0,8.485722599E0,-6.896247071E0,1.298125824E1
2.650618792E0,-6.850159902E0,8.296793799E0,-5.553187244E0,1.210782254E1
2.660592792E0,-6.681330906E0,8.146735534E0,-4.304575445E0,1.138151362E1
2.670567792E0,-6.506793857E0,7.874575712E0,-3.241095556E0,1.071690297E1
2.680541792E0,-6.346673119E0,7.503683315E0,-2.411066922E0,1.011922757E1
2.690516792E0,-6.129282412E0,6.960851203E0,-1.803327208E0,9.448467673E0
2.700490792E0,-5.788842314E0,6.383564957E0,-1.372283188E0,8.726039081E0
2.710465792E0,-5.490868204E0,6.025614202E0,-1.008607716E0,8.214313707E0
2.720439792E0,-5.453586942E0,5.825418402E0,-6.825023599E-1,8.008927491E0
2.730414792E0,-5.465563794E0,5.679637960E0,-3.622648305E-1,7.890621696E0
2.740388792E0,-5.536501045E0,5.600939700E0,5.198496312E-2,7.875663259E0
2.750363792E0,-5.765597878E0,5.665935595E0,3.369914103E-1,8.090643254E0
2.760338792E0,-6.054085464E0,5.829979815E0,4.064073618E-1,8.414617187E0
2.770312792E0,-6.257313046E0,5.893115711E0,2.947800681E-1,8.600562460E0
2.780287792E0,-6.301040863E0,5.832869509E0,1.744575262E-2,8.586372169E0
2.790261792E0,-6.261407266E0,5.824223816E0,-2.731795764E-1,8.555783488E0
2.800236792E0,-6.243411291E0,5.733866792E0,-5.231258261E-1,8.493001446E0
2.810210792E0,-6.194707493E0,5.501520662E0,-8.722889467E-1,8.330787389E0
2.820185792E0,-6.016594287E0,4.969397725E0,-1.277737950E0,7.907397475E0
2.830159792E0,-5.383438480E0,3.861677803E0,-1.631703535E0,6.823226638E0
2.840134792E0,-4.224732592E0,2.047654576E0,-1.886847521E0,5.059787377E0
2.850108792E0,-2.062098953E0,-1.006416326E0,-2.044418288E0,3.073234786E0
2.860083792E0,1.653603696E0,-5.880792119E0,-1.883707127E0,6.392689080E0
2.870057792E0,6.843683526E0,-1.153579517E1,-2.251851918E-1,1.341496489E1
2.880032792E0,1.282321524E1,-1.772664234E1,3.269261302E0,2.212140970E1
2.890006792E0,1.534484336E1,-2.028087102E1,6.936362479E0,2.636078663E1
2.899981792E0,1.417938335E1,-2.054781981E1,7.444697188E0,2.605170488E1
2.909955792E0,1.530444027E1,-2.282756031E1,7.760620496E0,2.855784712E1
2.919930792E0,1.771313293E1,-2.215723785E1,1.045658978E1,3.023307026E1
2.929904792E0,2.021362337E1,-2.105253743E1,1.196576550E1,3.154329478E1
2.939879792E0,2.176100947E1,-1.981853402E1,1.107191685E1,3.144683078E1
2.949853792E0,2.144295134E1,-1.699611109E1,9.338080580E0,2.891137671E1
2.959828792E0,1.968269852E1,-1.422411221E1,7.451738405E0,2.540201556E1
2.969802792E0,1.733798376E1,-1.125180059E1,5.715446309E0,2.144469687E1
2.979777792E0,1.500907051E1,-7.818269364E0,3.999821196E0,1.738954005E1
2.989752792E0,1.268382580E1,-4.289406890E0,2.116354097E0,1.355571478E1
2.999726792E0,9.865656137E0,-9.413660520E-1,-3.306381181E-2,9.910521393E0
3.009701792E0,6.554614726E0,1.906672359E0,-2.601754565E0,7.305306325E0
3.019675792E0,3.327409523E0,4.244082198E0,-4.989564772E0,7.347084078E0
3.029650792E0,2.182613575E-1,6.259868864E0,-7.102092451E0,9.469599431E0
3.039624792E0,-2.722515063E0,8.246558030E0,-8.825460446E0,1.238170262E1
3.049599792E0,-5.081616903E0,9.911700622E0,-1.001680198E1,1.498001874E1
3.059573792E0,-6.420530469E0,1.071775801E1,-1.038024971E1,1.624324882E1
3.069548792E0,-6.637935210E0,1.044585313E1,-1.014133832E1,1.600077418E1
3.079522792E0,-6.286784767E0,9.624235713E0,-9.650837036E0,1.500960463E1
3.089497792E0,-6.042362967E0,9.250337847E0,-9.234776652E0,1.440000001E1
3.099471792E0,-6.015424259E0,9.125288708E0,-8.870958216E0,1.407658065E1
3.109446792E0,-5.983363976E0,8.753960693E0,-8.261088946E0,1.344165402E1
3.119420792E0,-5.932411339E0,8.447322764E0,-7.262967480E0,1.262146833E1
3.129395792E0,-5.879977602E0,8.314929523E0,-6.162275326E0,1.190318557E1
3.139369792E0,-5.784489647E0,8.177916396E0,-5.093984933E0,1.123776310E1
3.149344792E0,-5.640303156E0,7.947084695E0,-4.048691932E0,1.055277599E1
3.159318792E0,-5.448419173E0,7.705947275E0,-3.112800044E0,9.937626427E0
3.169293792E0,-5.207924362E0,7.451544278E0,-2.347671118E0,9.389331604E0
3.179267792E0,-4.865724837E0,7.146428964E0,-1.702372106E0,8.811628448E0
3.189242792E0,-4.654392430E0,6.851925176E0,-1.226710907E0,8.373593444E0
3.199216792E0,-4.613826787E0,6.663841884E0,-9.822413054E-1,8.164495346E0
3.209191792E0,-4.545157671E0,6.593204595E0,-7.919270074E-1,8.047108392E0
3.219165792E0,-4.449253394E0,6.514059607E0,-6.050010248E-1,7.911691006E0
3.229140792E0,-4.446361946E0,6.513327536E0,-4.180127692E-1,7.897360624E0
3.239114792E0,-4.549439002E0,6.642374416E0,-2.449170595E-1,8.054720199E0
3.249089792E0,-4.687494103E0,6.741471273E0,-1.746189094E-1,8.212827019E0
3.259063792E0,-4.797048705E0,6.813878514E0,-1.248656823E-1,8.334039123E0
3.269038792E0,-4.834352771E0,6.825657730E0,-1.522172029E-1,8.365628502E0
3.279012792E0,-4.855134945E0,6.728294572E0,-3.887180726E-1,8.306225673E0
3.288987792E0,-4.888595052E0,6.581209617E0,-7.117856544E-1,8.229053434E0
3.298961792E0,-4.839880144E0,6.262726983E0,-1.058706222E0,7.985427223E0
3.308936792E0,-4.648742850E0,5.536350186E0,-1.380042589E0,7.359789469E0
3.318910792E0,-4.251568388E0,4.433148993E0,-1.611636622E0,6.350276872E0
3.328885792E0,-3.376056603E0,2.800356122E0,-1.827145695E0,4.751653815E0
3.338859792E0,-1.746479115E0,1.976317960E-1,-2.017107113E0,2.675438045E0
3.348834792E0,4.779356200E-1,-3.035608318E0,-1.677260069E0,3.500934398E0
3.358809792E0,3.830889874E0,-6.949278393E0,-4.597712445E-1,7.948558172E0
3.368783792E0,7.805479165E0,-1.154792581E1,1.781381000E0,1.405181176E1
3.378757792E0,9.956354638E0,-1.443612991E1,4.685991368E0,1.815184177E1
3.388732792E0,1.027212416E1,-1.591954280E1,6.156159139E0,1.992101084E1
3.398706792E0,1.144746129E1,-1.872602388E1,6.249189509E0,2.282018207E1
3.408681792E0,1.478981863E1,-2.127834988E1,7.071610331E0,2.686102346E1
3.418656792E0,1.836731123E1,-2.203142214E1,9.151729817E0,3.010806938E1
3.428630792E0,2.071699379E1,-2.175568148E1,9.726011764E0,3.157687149E1
3.438605792E0,2.093774957E1,-1.960295069E1,8.592852945E0,2.994164582E1
3.448579792E0,1.970678204E1,-1.660020080E1,7.206073487E0,2.675539983E1
3.458554792E0,1.794171696E1,-1.377045482E1,6.454882861E0,2.352012215E1
3.468528792E0,1.609937508E1,-1.067738416E1,5.933220009E0,2.020889681E1
3.478503792E0,1.429406362E1,-6.714002808E0,4.875360464E0,1.652777142E1
3.488477792E0,1.218519747E1,-2.888455535E0,2.986416278E0,1.287403957E1
3.498452792E0,1.025426677E1,3.044914162E-1,9.480102432E-1,1.030249608E1
3.508426792E0,8.327454844E0,3.054852675E0,-1.303418044E0,8.965351506E0
3.518401792E0,5.677843450E0,5.194704977E0,-3.743483940E0,8.557834893E0
3.528375792E0,2.718365294E0,7.043464174E0,-5.430640129E0,9.300094067E0
3.538350792E0,-3.012830490E-1,8.470775362E0,-6.046907423E0,1.041200730E1
3.548324792E0,-3.096901757E0,9.420577192E0,-5.598453464E0,1.138774588E1
3.558299792E0,-5.087010959E0,9.711199012E0,-4.829776740E0,1.197964149E1
3.568270042E0,-6.438125326E0,9.504202901E0,-4.484138467E0,1.232423743E1
3.578245042E0,-7.227850857E0,8.995667047E0,-4.845374188E0,1.251565039E1
3.588219042E0,-7.666472722E0,8.629361790E0,-5.578610353E0,1.282035812E1
3.598194042E0,-7.931570277E0,8.372811695E0,-6.363037137E0,1.317201672E1
3.608168042E0,-7.968508308E0,7.726492052E0,-6.894933786E0,1.306659543E1
3.618143042E0,-7.951642599E0,7.003079794E0,-6.827853359E0,1.260521036E1
3.628117042E0,-7.865859268E0,6.615004184E0,-6.399431376E0,1.210713609E1
3.638092042E0,-7.770026911E0,6.561467662E0,-5.917301549E0,1.176607979E1
3.648066042E0,-7.780260124E0,6.828212963E0,-5.657561213E0,1.179681901E1
3.658041042E0,-7.813634276E0,7.196681104E0,-5.404465653E0,1.191861353E1
3.668015042E0,-7.631461349E0,7.288445553E0,-4.925626638E0,1.164570473E1
3.677990042E0,-7.385047402E0,7.035807829E0,-4.305345815E0,1.107147323E1
3.687964042E0,-7.225693234E0,6.697584411E0,-3.810325216E0,1.056346808E1
3.697939042E0,-7.064093735E0,6.438762673E0,-3.452113383E0,1.016248847E1
3.707913042E0,-6.918876965E0,6.284796129E0,-3.111376539E0,9.851405220E0
3.717887042E0,-6.803696172E0,6.084033149E0,-2.792232585E0,9.544752682E0
3.727862042E0,-6.753887250E0,5.637530406E0,-2.527423882E0,9.153393554E0
3.737836042E0,-6.741057290E0,5.204340604E0,-2.189243879E0,8.793167988E0
3.747811042E0,-6.845585040E0,5.035061372E0,-1.981236784E0,8.725776571E0
3.757785042E0,-7.004372613E0,4.981486259E0,-1.887228613E0,8.799890504E0
3.767760042E0,-7.097104776E0,4.866061052E0,-1.883257184E0,8.808751556E0
3.777734042E0,-7.067469918E0,4.589617852E0,-1.908953504E0,8.640476060E0
3.787709042E0,-7.081386291E0,4.256519811E0,-1.983701824E0,8.497003332E0
3.797683042E0,-7.013145191E0,3.856740414E0,-1.929229017E0,8.232896009E0
3.807658042E0,-6.656380252E0,3.122223124E0,-1.808265474E0,7.571360467E0
3.817632042E0,-5.822314115E0,1.893057702E0,-1.821337509E0,6.387509643E0
3.827607042E0,-4.402900177E0,4.588427067E-2,-1.883409212E0,4.789035977E0
3.837581042E0,-2.485318083E0,-2.497693130E0,-1.564069230E0,3.855073216E0
3.847556042E0,5.450528848E-1,-6.473381113E0,-6.369851482E-1,6.527441747E0
3.857530042E0,5.003167734E0,-1.188220762E1,9.056180759E-1,1.292434483E1
3.867505042E0,1.040971500E1,-1.676738205E1,3.615701813E0,2.006441045E1
3.877479042E0,1.409926948E1,-1.759163247E1,6.761361161E0,2.353658721E1
3.887454042E0,1.575968694E1,-1.757883759E1,7.674291619E0,2.482494744E1
3.897428042E0,1.767165512E1,-2.014627514E1,7.158847280E0,2.773822076E1
3.907403042E0,1.909991239E1,-2.085795613E1,7.719043869E0,2.931628601E1
3.917377042E0,1.924713709E1,-2.023171933E1,8.775695379E0,2.927093409E1
3.927352042E0,1.898420184E1,-1.907964243E1,8.879561809E0,2.834218221E1
3.937326042E0,1.864833075E1,-1.732693252E1,7.873179982E0,2.664525837E1
3.947301042E0,1.768357876E1,-1.478441581E1,6.965376363E0,2.407912740E1
3.957275042E0,1.598504331E1,-1.154852924E1,6.386347062E0,2.072861708E1
3.967250042E0,1.394612622E1,-8.362779043E0,5.593297974E0,1.719638021E1
3.977224042E0,1.190465625E1,-5.253842547E0,4.357671379E0,1.372271845E1
3.987199042E0,1.023351617E1,-2.179602259E0,2.392836181E0,1.073318146E1
3.997173042E0,8.833695080E0,8.880862230E-1,-2.077958648E-1,8.880655665E0
4.007148042E0,7.061968857E0,3.838059145E0,-3.092177791E0,8.611832884E0
4.017122042E0,4.731603743E0,6.517247509E0,-5.865815645E0,9.963452327E0
4.027097042E0,2.147294639E0,8.414314647E0,-7.812139728E0,1.168080016E1
4.037071042E0,-7.175475007E-1,9.553935809E0,-8.276515655E0,1.266069805E1
4.047046042E0,-3.313402517E0,1.035747246E1,-7.748437822E0,1.335268365E1
4.057020042E0,-5.363672553E0,1.078852452E1,-7.331108592E0,1.410341795E1
4.066995042E0,-6.530775043E0,1.059601781E1,-7.419498028E0,1.449053371E1
4.076969042E0,-6.834281788E0,1.011489487E1,-7.679823670E0,1.442214261E1
4.086944042E0,-6.822389721E0,9.563603595E0,-7.666682053E0,1.402802655E1
4.096918042E0,-6.789199170E0,8.951262707E0,-7.424068211E0,1.346607286E1
4.106893042E0,-6.645072321E0,8.482047039E0,-6.913953609E0,1.280253345E1
4.116867042E0,-6.548660506E0,8.216302782E0,-6.414431239E0,1.231005743E1
4.126842042E0,-6.601443906E0,8.088188533E0,-5.999121637E0,1.204106789E1
4.136816042E0,-6.625845507E0,8.026110983E0,-5.453597467E0,1.174997921E1
4.146790042E0,-6.560085381E0,7.943659980E0,-4.746006020E0,1.134288443E1
4.156765042E0,-6.440692838E0,7.829090806E0,-3.997112766E0,1.089743537E1
4.166739042E0,-6.235808741E0,7.713738105E0,-3.317825936E0,1.045920815E1
4.176714042E0,-5.893683475E0,7.503785641E0,-2.736404539E0,9.926238646E0
4.186688042E0,-5.578588718E0,7.255611683E0,-2.245902376E0,9.423833108E0
4.196663042E0,-5.315522486E0,7.046852050E0,-1.873272040E0,9.023416828E0
4.206637042E0,-5.150216437E0,6.846953874E0,-1.536511449E0,8.704388211E0
4.216612042E0,-5.112199595E0,6.695401645E0,-1.220585217E0,8.511922002E0
4.226586042E0,-5.132716305E0,6.580429013E0,-1.056242497E0,8.412043205E0
4.236561042E0,-5.208663450E0,6.412470083E0,-1.003445064E0,8.322070025E0
4.246535042E0,-5.442311171E0,6.278856527E0,-9.493173882E-1,8.363252578E0
4.256510042E0,-5.624878786E0,6.154652896E0,-8.683851993E-1,8.382905611E0
4.266484042E0,-5.647768296E0,6.055597554E0,-7.841339846E-1,8.317596682E0
4.276459042E0,-5.627804148E0,6.051896852E0,-8.617961182E-1,8.309050943E0
4.286433042E0,-5.575966242E0,5.865959487E0,-1.040015012E0,8.159810749E0
4.296408042E0,-5.340828066E0,5.352674525E0,-1.108373056E0,7.642254892E0
4.306382042E0,-4.780764209E0,4.493918520E0,-1.165108005E0,6.663969294E0
4.316357042E0,-3.686724433E0,2.992089247E0,-1.317016329E0,4.927379335E0
4.326331042E0,-1.794173684E0,4.724620414E-1,-1.426511289E0,2.340344856E0
4.336306042E0,9.741835499E-1,-3.321949977E0,-1.237436454E0,3.676361546E0
4.346280042E0,5.609891202E0,-8.582238495E0,-7.486554189E-1,1.028037849E1
4.356255042E0,1.192475430E1,-1.441243583E1,9.918969588E-1,1.873237655E1
4.366229042E0,1.663813519E1,-1.746257740E1,5.084567408E0,2.464998941E1
4.376203042E0,1.724905229E1,-1.837994355E1,9.324591054E0,2.687564191E1
4.386178042E0,1.637538588E1,-2.113814534E1,9.833394710E0,2.848982455E1
4.396152042E0,1.681469772E1,-2.196577662E1,8.865762965E0,2.904877200E1
4.406127042E0,1.857353668E1,-2.053903495E1,9.094806004E0,2.914693325E1
4.416101042E0,2.068437802E1,-1.970343275E1,9.265010265E0,3.003180267E1
4.426076042E0,2.127627763E1,-1.809259968E1,8.121304239E0,2.908569641E1
4.436050042E0,1.991270226E1,-1.514892655E1,6.372362276E0,2.581884366E1
4.446025042E0,1.736436640E1,-1.207743329E1,4.829887837E0,2.169593122E1
4.455999042E0,1.439633376E1,-8.952536815E0,3.511990918E0,1.731289755E1
4.465974042E0,1.144407692E1,-5.456633926E0,1.946600071E0,1.282696387E1
4.475948042E0,8.633323864E0,-2.278095099E0,8.152246535E-2,8.929201763E0
4.485923042E0,6.024834768E0,3.517462742E-1,-1.578961065E0,6.238227109E0
4.495897042E0,3.668730211E0,2.598604378E0,-2.784047652E0,5.288028688E0
4.505872042E0,1.446671904E0,4.534028665E0,-3.718002943E0,6.039356044E0
4.515846042E0,-1.000179686E0,6.212376609E0,-4.650394689E0,7.824330853E0
4.525821042E0,-3.443460381E0,7.959945061E0,-5.568349074E0,1.030653463E1
4.535795042E0,-5.435908470E0,9.449759476E0,-6.288909645E0,1.258560446E1
4.545769042E0,-6.731541531E0,1.026189855E1,-6.086235795E0,1.369899556E1
4.555744042E0,-7.229040180E0,1.026767209E1,-5.746020230E0,1.380944824E1
4.565722333E0,-7.421626414E0,9.673466930E0,-6.090820012E0,1.362918154E1
4.575697333E0,-7.679327241E0,9.113329398E0,-6.946162412E0,1.379398463E1
4.585671333E0,-7.819490263E0,8.699922481E0,-7.572230809E0,1.393455269E1
4.595646333E0,-7.853312312E0,8.322375367E0,-7.756884125E0,1.382409843E1
4.605620333E0,-7.718040487E0,7.982225291E0,-7.570933312E0,1.343886531E1
4.615595333E0,-7.362637364E0,7.497844285E0,-7.179551686E0,1.272682444E1
4.625569333E0,-6.928607317E0,7.034488698E0,-6.623771499E0,1.188965851E1
4.635544333E0,-6.608602068E0,7.097726920E0,-5.925083023E0,1.136476826E1
4.645518333E0,-6.347287661E0,7.390732065E0,-5.322273681E0,1.110124219E1
4.655493333E0,-6.010873956E0,7.503219046E0,-4.767709423E0,1.073126064E1
4.665467333E0,-5.688401767E0,7.412630473E0,-4.098423378E0,1.020304265E1
4.675441333E0,-5.438371317E0,7.213357948E0,-3.449274268E0,9.669845317E0
4.685416333E0,-5.241967437E0,7.087125333E0,-2.992980655E0,9.309323353E0
4.695390333E0,-5.068319165E0,6.916084335E0,-2.635856988E0,8.970385931E0
4.705365333E0,-4.968596072E0,6.659711410E0,-2.248885625E0,8.607914355E0
4.715339333E0,-5.021350236E0,6.469048326E0,-1.902626671E0,8.407290448E0
4.725314333E0,-5.141329254E0,6.224343520E0,-1.689833629E0,8.248106234E0
4.735288333E0,-5.253678240E0,5.899690905E0,-1.419430603E0,8.026348551E0
4.745263333E0,-5.349974281E0,5.603034173E0,-1.073743652E0,7.821070398E0
4.755237333E0,-5.314965831E0,5.301386842E0,-7.723566690E-1,7.546528941E0
4.765212333E0,-5.171185137E0,4.962311484E0,-6.259399040E-1,7.194267979E0
4.775186333E0,-5.084781416E0,4.668103566E0,-5.506944247E-1,6.924554665E0
4.785161333E0,-4.822307507E0,4.184105553E0,-4.833216365E-1,6.402732914E0
4.795135333E0,-4.164702153E0,3.139889901E0,-5.457020719E-1,5.244181858E0
4.805110333E0,-3.023931429E0,1.338123023E0,-8.392473543E-1,3.411608218E0
4.815084333E0,-1.032783760E0,-1.419835523E0,-1.081502761E0,2.062092003E0
4.825058333E0,2.242601915E0,-5.366292690E0,-9.551800990E-1,5.893957041E0
4.835033333E0,6.682094552E0,-1.057766223E1,-7.955151513E-2,1.251174066E1
4.845007333E0,1.178798442E1,-1.608298534E1,2.747575645E0,2.012878948E1
4.854982333E0,1.516116711E1,-1.941856108E1,6.965133119E0,2.560184724E1
4.864956333E0,1.499129030E1,-2.067338993E1,8.298852603E0,2.685142064E1
4.874931333E0,1.548512508E1,-2.337207175E1,6.679169190E0,2.882107107E1
4.884905333E0,1.788803952E1,-2.509880832E1,6.860635774E0,3.157531410E1
4.894880333E0,1.999934630E1,-2.349687939E1,8.948711566E0,3.212719459E1
4.904854333E0,1.983253927E1,-2.015635340E1,9.269355916E0,2.975784191E1
4.914829333E0,1.732602269E1,-1.590446984E1,8.324994335E0,2.494892290E1
4.924803333E0,1.486268196E1,-1.186438297E1,7.684728314E0,2.051141018E1
4.934777333E0,1.330766641E1,-8.554997486E0,7.064958538E0,1.732615383E1
4.944752333E0,1.222480183E1,-5.462047863E0,5.950913683E0,1.465241005E1
4.954726333E0,1.110435018E1,-2.409142896E0,4.571612813E0,1.224786537E1
4.964701333E0,9.614155113E0,6.590075165E-1,2.889133812E0,1.006048526E1
4.974675333E0,7.421651557E0,3.462142235E0,2.017347872E-1,8.191949561E0
4.984650333E0,4.851657021E0,5.655558541E0,-2.398757656E0,7.828023796E0
4.994624333E0,1.915420963E0,7.454176109E0,-4.245291695E0,8.789543817E0
5.004599333E0,-1.162290816E0,8.758042050E0,-5.089927551E0,1.019615530E1
5.014573333E0,-3.966639417E0,9.721096010E0,-5.403800240E0,1.180825952E1
5.024548333E0,-6.009188204E0,1.032831123E1,-5.584687364E0,1.318988585E1
5.034522333E0,-7.019590577E0,1.015708137E1,-5.865379443E0,1.366907567E1
5.044496333E0,-7.276762231E0,9.523056078E0,-6.351615186E0,1.356402894E1
5.054471333E0,-7.475250059E0,9.157273563E0,-6.851588377E0,1.366306283E1
5.064445333E0,-7.781211466E0,9.130130203E0,-7.010718012E0,1.389448439E1
5.074420333E0,-8.077725525E0,9.031771265E0,-6.843280653E0,1.391592728E1
5.084394333E0,-8.045929536E0,8.645740426E0,-6.673100950E0,1.356525289E1
5.094369333E0,-7.643843998E0,8.268049471E0,-6.350617651E0,1.292746447E1
5.104343333E0,-7.106559139E0,8.129924204E0,-5.809323356E0,1.226161034E1
5.114318333E0,-6.436261818E0,8.040898007E0,-5.155669550E0,1.151791802E1
5.124292333E0,-5.645335270E0,8.048190070E0,-4.427857847E0,1.078188754E1
5.134266333E0,-4.918185471E0,8.071450878E0,-3.661313603E0,1.013617704E1
5.144241333E0,-4.274944387E0,8.053553136E0,-3.115411702E0,9.635385706E0
5.154215333E0,-3.846949251E0,7.991186734E0,-2.862173470E0,9.319341228E0
5.164190333E0,-3.657496541E0,7.959800050E0,-2.686015866E0,9.162443943E0
5.174164333E0,-3.591416572E0,7.861589631E0,-2.493812917E0,8.995663810E0
5.184139333E0,-3.489286180E0,7.645877659E0,-2.249133840E0,8.700181967E0
5.194113333E0,-3.424171001E0,7.360434133E0,-1.893397133E0,8.335819718E0
5.204088333E0,-3.478349547E0,7.134791835E0,-1.622056214E0,8.101557657E0
5.214062333E0,-3.626971151E0,7.020120919E0,-1.495906775E0,8.042061585E0
5.224037333E0,-3.842741595E0,6.878763312E0,-1.452373670E0,8.012080687E0
5.234011333E0,-4.121001232E0,6.699991125E0,-1.492258843E0,8.006208134E0
5.243985333E0,-4.487441559E0,6.542127997E0,-1.602073646E0,8.093405368E0
5.253960333E0,-4.924677635E0,6.366201065E0,-1.703594613E0,8.226980030E0
5.263934333E0,-5.255997246E0,5.980201802E0,-1.822199681E0,8.167541387E0
5.273909333E0,-5.092887996E0,4.964623473E0,-2.014264197E0,7.392039950E0
5.283883333E0,-4.520167256E0,3.595858117E0,-2.160257623E0,6.166751221E0
5.293858333E0,-3.456382728E0,1.746773815E0,-2.136368824E0,4.422880518E0
5.303832333E0,-1.333147627E0,-1.400624496E0,-1.973813013E0,2.763144836E0
5.313807333E0,2.126958607E0,-6.010074642E0,-1.281721512E0,6.502903978E0
5.323781333E0,6.886847087E0,-1.157234261E1,6.569865726E-1,1.348255939E1
5.333755333E0,1.184670216E1,-1.732511755E1,4.524509983E0,2.147033396E1
5.343730333E0,1.381914458E1,-1.975719205E1,8.068990370E0,2.542486972E1
5.353704333E0,1.360546861E1,-2.053217734E1,8.292814769E0,2.598941821E1
5.363679333E0,1.586435678E1,-2.341416000E1,8.129392108E0,2.942766930E1
5.373653333E0,1.871278812E1,-2.357780720E1,1.054432609E1,3.189458017E1
5.383628333E0,2.085509801E1,-2.224163656E1,1.203189751E1,3.277792043E1
5.393602333E0,2.170824653E1,-2.084989866E1,1.077979580E1,3.197139720E1
5.403576333E0,2.071193244E1,-1.800183452E1,8.609453775E0,2.876061345E1
5.413551333E0,1.876082650E1,-1.458658111E1,6.828305933E0,2.472575017E1
5.423525333E0,1.610117135E1,-1.107629173E1,5.456481314E0,2.029051861E1
5.433500333E0,1.316648188E1,-7.519446824E0,3.878807806E0,1.565067013E1
5.443474333E0,1.025640451E1,-4.213995350E0,2.171417327E0,1.129896648E1
5.453449333E0,7.298833131E0,-1.462570483E0,5.892992042E-1,7.467218428E0
5.463423333E0,4.447481103E0,5.011262619E-1,-1.053847185E0,4.598022355E0
5.473398333E0,1.730582875E0,2.028702580E0,-2.489243903E0,3.647860531E0
5.483372333E0,-7.747847253E-1,3.483019134E0,-3.762781506E0,5.185579844E0
5.493347333E0,-2.955397384E0,4.842145940E0,-4.753120912E0,7.400872206E0
5.503321333E0,-5.000380366E0,6.211080281E0,-5.737720692E0,9.823581873E0
5.513295333E0,-6.789784477E0,7.594881168E0,-6.676587059E0,1.218032052E1
5.523270333E0,-8.047499514E0,8.583034886E0,-7.317969314E0,1.385580785E1
5.533244333E0,-8.677575007E0,9.040023440E0,-7.453071570E0,1.457980136E1
5.543219333E0,-8.899282129E0,9.317593106E0,-7.493517346E0,1.490528651E1
5.553193333E0,-8.839583226E0,9.308711770E0,-7.890740340E0,1.506831542E1
5.563163792E0,-8.499932503E0,9.015369240E0,-8.030193509E0,1.476515299E1
5.573137792E0,-7.953514293E0,8.701850308E0,-7.568458185E0,1.400935929E1
5.583111792E0,-7.428512680E0,8.515459199E0,-6.950971162E0,1.326694562E1
5.593086792E0,-6.867751250E0,8.353572017E0,-6.438437567E0,1.258577177E1
5.603060792E0,-6.341549204E0,8.214027631E0,-5.861680495E0,1.191825467E1
5.613035792E0,-5.931269377E0,8.048442670E0,-5.156213341E0,1.124917427E1
5.623009792E0,-5.668724717E0,7.804002158E0,-4.372842565E0,1.059049771E1
5.632984792E0,-5.506649255E0,7.565532238E0,-3.578843596E0,1.001841233E1
5.642958792E0,-5.261192497E0,7.354885710E0,-2.843445423E0,9.479434169E0
5.652932792E0,-4.933980555E0,7.138031777E0,-2.139726880E0,8.937230717E0
5.662907792E0,-4.455107042E0,6.965486290E0,-1.558710695E0,8.414009570E0
5.672881792E0,-4.116830413E0,6.892492574E0,-1.149101983E0,8.110190004E0
5.682856792E0,-3.969933738E0,6.864400211E0,-7.537582840E-1,7.965457657E0
5.692830792E0,-3.905395095E0,6.853875223E0,-3.518505009E-1,7.896297562E0
5.702805792E0,-3.967297813E0,6.902562649E0,-4.571996391E-2,7.961589877E0
5.712779792E0,-4.183234318E0,7.021416662E0,-4.221689701E-3,8.173111961E0
5.722753792E0,-4.380105976E0,7.036585509E0,-8.154190734E-2,8.288878879E0
5.732728792E0,-4.476885581E0,6.925272065E0,-1.812144224E-1,8.248317183E0
5.742702792E0,-4.619659384E0,6.836960982E0,-3.561059582E-1,8.259061675E0
5.752677792E0,-4.777607297E0,6.773404672E0,-6.038529240E-1,8.310787008E0
5.762651792E0,-4.801435286E0,6.403064836E0,-9.685643756E-1,8.061708073E0
5.772626792E0,-4.648930546E0,5.684909810E0,-1.400582396E0,7.476121041E0
5.782600792E0,-4.148756211E0,4.442950680E0,-1.785127311E0,6.335508532E0
5.792574792E0,-3.041208197E0,2.520682043E0,-2.092999148E0,4.470283066E0
5.802549792E0,-8.356238347E-1,-4.919473028E-1,-2.142332253E0,2.351566887E0
5.812523792E0,2.899146584E0,-5.191824054E0,-1.905773642E0,6.244362345E0
5.822498792E0,7.587160504E0,-1.122830531E1,-6.195424654E-1,1.356553270E1
5.832472792E0,1.248380893E1,-1.713094672E1,3.117225509E0,2.142503012E1
5.842447792E0,1.499470741E1,-2.009256261E1,7.559111996E0,2.618573079E1
5.852421792E0,1.508058663E1,-2.235650628E1,8.201268421E0,2.818684569E1
5.862395792E0,1.753342811E1,-2.557356247E1,7.687555443E0,3.194568371E1
5.872370792E0,2.043347634E1,-2.450726656E1,1.037109881E1,3.355134513E1
5.882344792E0,2.144073875E1,-2.108536136E1,1.242838317E1,3.253863012E1
5.892319792E0,2.066131192E1,-1.809052509E1,1.134399247E1,2.971267530E1
5.902293792E0,1.926922319E1,-1.461623819E1,9.159321842E0,2.586175860E1
5.912268792E0,1.760706093E1,-1.141182368E1,6.955858265E0,2.210480216E1
5.922242792E0,1.547268454E1,-8.625985608E0,4.786430746E0,1.834997313E1
5.932216792E0,1.301291295E1,-5.294681840E0,3.043509661E0,1.437471774E1
5.942191792E0,1.054865069E1,-2.143369988E0,1.526084255E0,1.087184434E1
5.952165792E0,7.870849282E0,5.021658969E-1,-4.113352489E-1,7.897571506E0
5.962140792E0,5.037432418E0,2.588192825E0,-2.697731640E0,6.273135059E0
5.972114792E0,2.130311401E0,4.114599116E0,-4.547565554E0,6.492187999E0
5.982089792E0,-5.767138034E-1,5.500394488E0,-5.824609147E0,8.031999132E0
5.992063792E0,-3.302988042E0,7.093000031E0,-6.579289976E0,1.022288785E1
6.002037792E0,-5.959523708E0,8.629639533E0,-7.156708953E0,1.269665642E1
6.012012792E0,-7.821737933E0,9.580960470E0,-7.672206502E0,1.455462608E1
6.021986792E0,-8.590376065E0,9.826433015E0,-7.895034535E0,1.525401315E1
6.031961792E0,-8.532329586E0,9.405000209E0,-7.777847562E0,1.489125884E1
6.041935792E0,-8.038039303E0,8.881444028E0,-7.653853261E0,1.421518883E1
6.051909792E0,-7.623854122E0,8.556092085E0,-7.698466347E0,1.380565998E1
6.061884792E0,-7.638953971E0,8.237005434E0,-7.865569246E0,1.371382718E1
6.071858792E0,-7.531115527E0,7.966084637E0,-8.064604958E0,1.360933719E1
6.081833792E0,-7.349627309E0,8.091899761E0,-7.391039044E0,1.319557962E1
6.091807792E0,-7.274122798E0,7.997571309E0,-6.063660865E0,1.239524072E1
6.101782792E0,-6.795775534E0,7.512213818E0,-4.831133002E0,1.122300172E1
6.111756792E0,-6.232540147E0,7.112809228E0,-3.949717575E0,1.024875020E1
6.121730792E0,-5.855722767E0,6.887462799E0,-3.449066984E0,9.675882181E0
6.131705792E0,-5.416047817E0,6.629764311E0,-3.044475913E0,9.086043273E0
6.141679792E0,-5.027873390E0,6.311265889E0,-2.420566601E0,8.424412776E0
6.151654792E0,-4.728392453E0,6.017250929E0,-1.698110655E0,7.838914704E0
6.161628792E0,-4.502490538E0,5.717405126E0,-1.108602852E0,7.361395432E0
6.171602792E0,-4.256785859E0,5.446346920E0,-7.234751156E-1,6.950276028E0
6.181577792E0,-4.187840170E0,5.367061599E0,-5.731886633E-1,6.831683595E0
6.191551792E0,-4.406502646E0,5.498512854E0,-6.604226889E-1,7.077221722E0
6.201526792E0,-4.761091837E0,5.588423150E0,-8.681105264E-1,7.392704828E0
6.211500792E0,-5.183123982E0,5.549031628E0,-1.074591499E0,7.668850834E0
6.221475792E0,-5.595019979E0,5.456107677E0,-1.154988960E0,7.899832849E0
6.231449792E0,-6.018218644E0,5.420280032E0,-1.217966834E0,8.190350083E0
6.241423792E0,-6.351621618E0,5.221723207E0,-1.302342302E0,8.324997651E0
6.251398792E0,-6.354806011E0,4.751510589E0,-1.461985323E0,8.068321598E0
6.261372792E0,-5.909051712E0,3.833780152E0,-1.843432529E0,7.281003082E0
6.271347792E0,-4.838838755E0,2.425900431E0,-2.105322740E0,5.807902998E0
6.281321792E0,-2.807927096E0,1.871079773E-1,-2.007245345E0,3.456659927E0
6.291295792E0,1.369768739E-1,-3.424517741E0,-1.523385180E0,3.750571534E0
6.301270792E0,4.093642695E0,-8.397047235E0,-6.447145826E-1,9.363971896E0
6.311244792E0,8.644390889E0,-1.349836516E1,1.462206494E0,1.609563306E1
6.321219792E0,1.147692892E1,-1.705738173E1,4.796007900E0,2.111103646E1
6.331193792E0,1.158383356E1,-1.938674287E1,6.899627931E0,2.361431483E1
6.341168792E0,1.290900792E1,-2.295516059E1,6.129130384E0,2.703975079E1
6.351142792E0,1.736756599E1,-2.542896317E1,6.700912646E0,3.151454817E1
6.361116792E0,2.014375849E1,-2.266728345E1,9.844262345E0,3.188238144E1
6.371091792E0,1.976709723E1,-1.935890545E1,1.089181325E1,2.973444045E1
6.381065792E0,1.864968614E1,-1.712170928E1,1.014060625E1,2.727261661E1
6.391040792E0,1.770891475E1,-1.451333655E1,9.146277874E0,2.465556729E1
6.401014792E0,1.668836629E1,-1.175838464E1,7.983142719E0,2.192012195E1
6.410988792E0,1.514259869E1,-8.429977584E0,6.398288831E0,1.847433131E1
6.420963792E0,1.287014967E1,-4.694392648E0,4.084329835E0,1.429544770E1
6.430937792E0,1.048225789E1,-1.255193133E0,1.624792711E0,1.068144146E1
6.440912792E0,8.312112919E0,1.443834250E0,-5.388495737E-1,8.453770602E0
6.450886792E0,5.941007915E0,3.586110808E0,-2.363732396E0,7.330961507E0
6.460860792E0,3.325179394E0,5.285434468E0,-3.999479134E0,7.415421018E0
6.470835792E0,7.506094122E-1,6.489400145E0,-5.333829533E0,8.433591537E0
6.480809792E0,-1.838417811E0,7.506760705E0,-6.246212107E0,9.937122421E0
6.490784792E0,-4.215872891E0,8.599305933E0,-6.697734684E0,1.168680010E1
6.500758792E0,-5.920994650E0,9.532069561E0,-6.709592253E0,1.307429371E1
6.510733792E0,-6.721971978E0,9.983652949E0,-6.279791497E0,1.357549317E1
6.520707792E0,-6.588797548E0,9.766464556E0,-5.639844149E0,1.306154375E1
6.530681792E0,-6.064424511E0,9.215291390E0,-5.462251346E0,1.230995653E1
6.540656792E0,-5.458115610E0,9.147050875E0,-5.649925919E0,1.205741384E1
6.550630792E0,-5.190493228E0,9.644537246E0,-5.814796350E0,1.240041028E1
6.560605792E0,-5.372452732E0,1.005944924E1,-6.133455570E0,1.294893990E1
6.570579792E0,-5.453624364E0,9.923796172E0,-6.579904518E0,1.309652216E1
6.580553792E0,-5.405188369E0,9.545896472E0,-6.413406807E0,1.270716285E1
6.590528792E0,-5.365214463E0,9.189364836E0,-5.728141783E0,1.208476564E1
6.600502792E0,-5.235330262E0,8.949096898E0,-4.936182032E0,1.148307064E1
6.610477792E0,-4.973772612E0,8.818323920E0,-4.294943619E0,1.099762663E1
6.620451792E0,-4.700484277E0,8.663096716E0,-3.740089046E0,1.054191933E1
6.630425792E0,-4.435362749E0,8.419905755E0,-3.255364517E0,1.005806412E1
6.640400792E0,-4.132169414E0,8.100739582E0,-2.715428238E0,9.490540361E0
6.650374792E0,-3.904222729E0,7.812081256E0,-2.197059999E0,9.005478405E0
6.660349792E0,-3.817024371E0,7.554442409E0,-1.874457417E0,8.669075255E0
6.670323792E0,-3.784153079E0,7.272110771E0,-1.688548996E0,8.369863039E0
6.680297792E0,-3.837133530E0,7.088538020E0,-1.538329787E0,8.205938309E0
6.690272792E0,-4.017710752E0,7.019337392E0,-1.428964781E0,8.213101574E0
6.700246792E0,-4.332773935E0,6.928265254E0,-1.385556806E0,8.288157640E0
6.710221792E0,-4.721692128E0,6.779440752E0,-1.345353251E0,8.370493942E0
6.720195792E0,-5.094901777E0,6.566457092E0,-1.241953282E0,8.403501104E0
6.730169792E0,-5.329746423E0,6.170875411E0,-1.167871107E0,8.237100412E0
6.740144792E0,-5.351788672E0,5.541317396E0,-1.161876833E0,7.790879170E0
6.750118792E0,-5.104963081E0,4.518354619E0,-1.161775677E0,6.915627176E0
6.760093792E0,-4.297153866E0,2.994288969E0,-1.178195097E0,5.368374192E0
6.770067792E0,-2.973132573E0,8.284569025E-1,-1.297376701E0,3.347991105E0
6.780041792E0,-8.152761090E-1,-2.519044822E0,-1.486449927E0,3.036411589E0
6.790016792E0,2.955792071E0,-7.564010208E0,-1.470695774E0,8.253114761E0
6.799990792E0,8.272544226E0,-1.380400731E1,1.847135425E-3,1.609302983E1
6.809965792E0,1.366712633E1,-1.902438858E1,4.116835676E0,2.378373476E1
6.819939792E0,1.644695463E1,-2.130007813E1,9.248074390E0,2.845562379E1
6.829913792E0,1.741799472E1,-2.451120525E1,1.089553559E1,3.198278316E1
6.839888792E0,1.771522272E1,-2.597219757E1,1.000222137E1,3.299134121E1
6.849862792E0,1.795771143E1,-2.334408229E1,1.097796262E1,3.143153260E1
6.859837792E0,1.864900435E1,-2.078676277E1,1.229657173E1,3.051361247E1
6.869811792E0,1.841287040E1,-1.851875178E1,1.171624493E1,2.862251489E1
6.879785792E0,1.765357202E1,-1.583064641E1,9.463559489E0,2.553070561E1
6.889760792E0,1.644431286E1,-1.252932716E1,7.259279056E0,2.191110670E1
6.899734792E0,1.450823076E1,-8.448418533E0,5.892145073E0,1.779274878E1
6.909709792E0,1.252607377E1,-4.648819449E0,4.586193430E0,1.412611824E1
6.919683792E0,1.084767145E1,-1.470427387E0,2.787641351E0,1.129624171E1
6.929657792E0,9.336352143E0,1.304262967E0,4.638987941E-1,9.438420171E0
6.939632792E0,7.342754492E0,3.685940906E0,-2.229039298E0,8.512979506E0
6.949606792E0,5.156244916E0,5.357999584E0,-5.119641931E0,9.028053759E0
6.959581792E0,2.816440642E0,6.618028949E0,-7.347515295E0,1.028185908E1
6.969555792E0,-1.771045607E-1,7.886079524E0,-8.367654451E0,1.149953292E1
6.979529792E0,-3.030397865E0,9.039667929E0,-8.508304546E0,1.277850358E1
6.989504792E0,-5.036751802E0,9.805967760E0,-8.253295777E0,1.377108433E1
6.999478792E0,-5.885058832E0,1.017600296E1,-7.721228389E0,1.406422132E1
7.009453792E0,-5.749899273E0,9.965658728E0,-7.275332587E0,1.361272051E1
7.019427792E0,-5.180385731E0,9.443716963E0,-7.402790194E0,1.306986951E1
7.029401792E0,-4.680311968E0,9.850813565E0,-8.226206796E0,1.366068542E1
7.039376792E0,-4.526877521E0,1.031445333E1,-9.011521772E0,1.442525883E1
7.049350792E0,-4.657842872E0,9.957048118E0,-8.962009304E0,1.418294462E1
7.059325792E0,-4.993867738E0,9.434438601E0,-8.187118160E0,1.345274137E1
7.069299792E0,-5.354450909E0,8.932715338E0,-7.385752577E0,1.276765010E1
7.079273792E0,-5.614786491E0,8.549976482E0,-6.590200880E0,1.216793626E1
7.089248792E0,-5.670099982E0,8.287003806E0,-5.692291335E0,1.154238478E1
7.099222792E0,-5.532585164E0,8.019314765E0,-4.865508490E0,1.088999912E1
7.109197792E0,-5.216028019E0,7.669422058E0,-4.309147383E0,1.022720559E1
7.119171792E0,-4.871241685E0,7.202739404E0,-3.788629707E0,9.484838720E0
7.129145792E0,-4.706709808E0,6.774077686E0,-3.295403326E0,8.882619478E0
7.139120792E0,-4.735349470E0,6.456385596E0,-2.949687285E0,8.532825127E0
7.149094792E0,-4.867163837E0,6.167661197E0,-2.622937565E0,8.283062835E0
7.159068792E0,-5.091962966E0,5.853000888E0,-2.280135485E0,8.086082121E0
7.169043792E0,-5.239567739E0,5.492860935E0,-2.008960918E0,7.852420985E0
7.179017792E0,-5.443983475E0,5.186555713E0,-1.775670755E0,7.725951260E0
7.188992792E0,-5.795919784E0,5.032613143E0,-1.469734492E0,7.815369515E0
7.198966792E0,-6.210158175E0,4.914101776E0,-1.163390970E0,8.004245085E0
7.208940792E0,-6.648996388E0,4.819472777E0,-8.946134698E-1,8.260557128E0
7.218915792E0,-6.949711087E0,4.629692622E0,-7.049129833E-1,8.380300728E0
7.228889792E0,-7.061226845E0,4.231684347E0,-7.205560394E-1,8.263611679E0
7.238864792E0,-6.777659106E0,3.494144339E0,-9.163582416E-1,7.680196615E0
7.248838792E0,-5.835408955E0,2.165952519E0,-1.161304391E0,6.331822476E0
7.258812792E0,-4.227458564E0,-7.847723544E-2,-1.465781189E0,4.475050735E0
7.268787792E0,-1.966484113E0,-3.484738800E0,-1.725272434E0,4.357410841E0
7.278761792E0,1.628972300E0,-8.316506517E0,-1.578577780E0,8.620309693E0
7.288736792E0,6.995185468E0,-1.484387029E1,-3.583607908E-1,1.641345568E1
7.298710792E0,1.321375077E1,-2.175806481E1,4.089308154E0,2.578253352E1
7.308684792E0,1.570702224E1,-2.317457151E1,9.752400248E0,2.964592085E1
7.318659792E0,1.531606453E1,-2.445413409E1,1.036335593E1,3.065918546E1
7.328633792E0,1.552117433E1,-2.604825347E1,8.234029201E0,3.142001907E1
7.338607792E0,1.540236242E1,-2.322381442E1,9.340791349E0,2.939096302E1
7.348582792E0,1.587052910E1,-2.120170224E1,1.123597218E1,2.876861037E1
7.358556792E0,1.647981598E1,-1.964950037E1,1.084337141E1,2.784359717E1
7.368531792E0,1.716002141E1,-1.741842040E1,8.875703816E0,2.601241669E1
7.378505792E0,1.726825922E1,-1.454635110E1,6.639349651E0,2.353444434E1
7.388479792E0,1.615468507E1,-1.062812604E1,5.081860147E0,1.999390445E1
7.398454792E0,1.425486740E1,-6.304409444E0,3.848054375E0,1.605472969E1
7.408428792E0,1.257116984E1,-2.571344073E0,2.445144057E0,1.306234477E1
7.418403792E0,1.096095190E1,7.881748492E-1,8.037405758E-1,1.101860631E1
7.428377792E0,9.101323310E0,3.623335353E0,-1.215158417E0,9.871132410E0
7.438351792E0,7.152713551E0,5.630541814E0,-3.655239808E0,9.809438838E0
7.448326792E0,4.976388071E0,7.087120655E0,-6.029223104E0,1.055193104E1
7.458300792E0,2.529976777E0,8.212766386E0,-7.381120997E0,1.132833886E1
7.468274792E0,-2.333740711E-2,9.391287319E0,-7.365943379E0,1.193540716E1
7.478249792E0,-2.034615285E0,1.063817156E1,-6.801718644E0,1.278959460E1
7.488223792E0,-3.344031987E0,1.123750181E1,-6.287727338E0,1.330411635E1
7.498198792E0,-4.371981270E0,1.121964207E1,-6.177996150E0,1.353374393E1
7.508172792E0,-5.081637368E0,1.097625991E1,-6.166104668E0,1.357652999E1
7.518146792E0,-5.408411939E0,1.074646901E1,-6.193590674E0,1.353137396E1
7.528121792E0,-5.460296037E0,1.054422551E1,-6.413826052E0,1.349565445E1
7.538095792E0,-5.386041661E0,1.017552816E1,-6.673255316E0,1.330725947E1
7.548070792E0,-5.358757968E0,9.886765755E0,-6.907644464E0,1.319772617E1
7.558044792E0,-5.316715903E0,9.853744190E0,-7.089822654E0,1.325252156E1
7.568018917E0,-5.175550668E0,9.688401303E0,-7.216640575E0,1.314272977E1
7.577993917E0,-4.958366368E0,9.430618615E0,-7.020902692E0,1.275989965E1
7.587967917E0,-4.735672821E0,9.510710852E0,-6.562141846E0,1.248767086E1
7.597941917E0,-4.464660807E0,9.659389173E0,-6.022763100E0,1.222745561E1
7.607916917E0,-4.172132210E0,9.609356888E0,-5.388750676E0,1.178070714E1
7.617890917E0,-3.875786549E0,9.329760577E0,-4.680308752E0,1.113424644E1
7.627865917E0,-3.524940162E0,8.855143837E0,-3.950856028E0,1.031736589E1
7.637839917E0,-3.110656162E0,8.339914091E0,-3.239375305E0,9.472270117E0
7.647813917E0,-2.800033355E0,7.899560280E0,-2.528783945E0,8.754312517E0
7.657788917E0,-2.663522505E0,7.599429717E0,-1.927927573E0,8.280252948E0
7.667762917E0,-2.602099843E0,7.324341609E0,-1.530908793E0,7.922157871E0
7.677736917E0,-2.776315295E0,7.106172053E0,-1.300840737E0,7.739366543E0
7.687711917E0,-3.127742311E0,6.879450944E0,-1.093817144E0,7.635840045E0
7.697685917E0,-3.431648421E0,6.473190494E0,-8.260643680E-1,7.372976901E0
7.707660917E0,-3.694710560E0,5.986838391E0,-5.656040937E-1,7.057834515E0
7.717634917E0,-3.838867230E0,5.533597317E0,-3.945994945E-1,6.746355286E0
7.727608917E0,-3.789454165E0,5.077507480E0,-3.890060480E-1,6.347627177E0
7.737583917E0,-3.387567431E0,4.186992323E0,-5.954225546E-1,5.418583379E0
7.747557917E0,-2.468672814E0,2.620267727E0,-9.613350244E-1,3.726166052E0
7.757531917E0,-1.074437571E0,1.531952959E-1,-1.326660580E0,1.714034185E0
7.767506917E0,8.046014321E-1,-3.445899255E0,-1.471375951E0,3.832303789E0
7.777480917E0,3.653556687E0,-8.280002934E0,-1.146253219E0,9.122544683E0
7.787455917E0,8.599947957E0,-1.543507174E1,5.282842398E-1,1.767709334E1
7.797429917E0,1.427827380E1,-2.286875979E1,4.634142938E0,2.735552153E1
7.807403917E0,1.718697941E1,-2.632382339E1,8.826602408E0,3.265340487E1
7.817378917E0,1.839229404E1,-2.842089220E1,8.561625305E0,3.491883477E1
7.827352917E0,1.771159745E1,-2.647134864E1,8.164896401E0,3.288006260E1
7.837326917E0,1.603652921E1,-2.161224461E1,1.089392175E1,2.903337592E1
7.847301917E0,1.570101364E1,-1.928809333E1,1.277375247E1,2.795927620E1
7.857275917E0,1.637061105E1,-1.778851406E1,1.240373131E1,2.717132107E1
7.867250917E0,1.738712961E1,-1.578147483E1,1.012784763E1,2.557226078E1
7.877224917E0,1.730513878E1,-1.252054815E1,7.404400517E0,2.260657208E1
7.887198917E0,1.515383704E1,-8.077708569E0,5.176688536E0,1.793561421E1
7.897173917E0,1.252951895E1,-4.036919441E0,3.085442968E0,1.352055923E1
7.907147917E0,1.021959512E1,-1.236736397E0,1.246245139E0,1.036931860E1
7.917121917E0,8.041468695E0,1.044951231E0,-3.302630192E-1,8.115800362E0
7.927096917E0,5.733113671E0,2.825869862E0,-2.422236566E0,6.835302687E0
7.937070917E0,3.225803626E0,3.745974269E0,-4.573705532E0,6.734754231E0
7.947045917E0,3.541260910E-1,4.488004646E0,-6.015293866E0,7.513411428E0
7.957019917E0,-2.727340186E0,5.653605571E0,-6.299976085E0,8.893331160E0
7.966993917E0,-5.442994711E0,7.338566131E0,-6.148080041E0,1.101270323E1
7.976968917E0,-6.911262136E0,9.091176052E0,-6.428417194E0,1.310494464E1
7.986942917E0,-6.944153894E0,1.010208713E1,-7.125677780E0,1.417916505E1
7.996916917E0,-6.155018347E0,1.010080075E1,-8.008362930E0,1.428440770E1
8.006891917E0,-4.753748319E0,9.938786094E0,-8.550814973E0,1.394611160E1
8.016865917E0,-3.791873158E0,1.033657919E1,-8.923030010E0,1.417193127E1
8.026839917E0,-3.337552103E0,1.042063175E1,-9.172390369E0,1.427800985E1
8.036814917E0,-3.128838079E0,1.006864808E1,-9.493908877E0,1.418807977E1
8.046788917E0,-3.398436236E0,9.912022219E0,-9.482697426E0,1.413220095E1
8.056763917E0,-3.884730451E0,9.710845841E0,-9.097962915E0,1.386234420E1
8.066737917E0,-4.346030742E0,9.324615027E0,-8.543905903E0,1.337291130E1
8.076711917E0,-4.856587978E0,9.059278321E0,-7.828842884E0,1.292082627E1
8.086686917E0,-5.180216746E0,8.768752395E0,-7.030720752E0,1.237564941E1
8.096660917E0,-5.234675959E0,8.240275197E0,-6.222147306E0,1.157666121E1
8.106634917E0,-5.123588217E0,7.690400113E0,-5.571358051E0,1.079043283E1
8.116609917E0,-5.031108069E0,7.290307306E0,-5.042678540E0,1.019260692E1
8.126583917E0,-4.962772245E0,6.900846491E0,-4.428825854E0,9.584638182E0
8.136557917E0,-4.932472558E0,6.467577167E0,-3.675527599E0,8.925712469E0
8.146532917E0,-5.074475114E0,6.100715255E0,-2.926225917E0,8.457648753E0
8.156506917E0,-5.351436085E0,5.849106057E0,-2.275850060E0,8.247993897E0
8.166481917E0,-5.670643188E0,5.618131683E0,-1.710370512E0,8.163636755E0
8.176455917E0,-5.934795833E0,5.359681828E0,-1.287040285E0,8.099658238E0
8.186429917E0,-6.245253748E0,5.073916120E0,-1.045032215E0,8.114179657E0
8.196404917E0,-6.510372353E0,4.731571584E0,-8.144417113E-1,8.089254176E0
8.206378917E0,-6.563377948E0,4.216885044E0,-5.337326753E-1,7.819521733E0
8.216352917E0,-6.367888572E0,3.618684477E0,-3.471360371E-1,7.332488366E0
8.226327917E0,-5.791058409E0,2.761201704E0,-3.619486423E-1,6.425853964E0
8.236301917E0,-4.814740625E0,1.249378369E0,-4.652645575E-1,4.995912800E0
8.246275917E0,-3.297701574E0,-1.140639454E0,-5.666245790E-1,3.535103598E0
8.256250917E0,-5.589926469E-1,-4.872336869E0,-7.161511856E-1,4.956310307E0
8.266224917E0,3.972807645E0,-1.049168477E1,-4.055570304E-1,1.122600225E1
8.276198917E0,1.039153600E1,-1.815686175E1,2.019773151E0,2.101749587E1
8.286173917E0,1.612784167E1,-2.324374641E1,8.337695657E0,2.949400266E1
8.296147917E0,1.761725730E1,-2.258752509E1,1.364956480E1,3.173128841E1
8.306122917E0,1.807140586E1,-2.464788041E1,1.178073738E1,3.275483921E1
8.316096917E0,1.864215375E1,-2.407636419E1,9.408169985E0,3.187028195E1
8.326070917E0,1.819860736E1,-1.989933319E1,1.062681627E1,2.898451302E1
8.336045917E0,1.830582776E1,-1.856137096E1,1.116693761E1,2.836068260E1
8.346019917E0,1.941934461E1,-1.759195640E1,9.108011355E0,2.774065150E1
8.355993917E0,2.017974928E1,-1.528972867E1,6.271959736E0,2.608324295E1
8.365968917E0,1.887453848E1,-1.153554141E1,4.532437638E0,2.258007771E1
8.375942917E0,1.574266920E1,-7.424059440E0,3.332970225E0,1.772165293E1
8.385916917E0,1.262381583E1,-4.100779806E0,1.709924662E0,1.338286081E1
8.395891917E0,9.721935670E0,-1.376061512E0,-6.369617593E-1,9.839476548E0
8.405865917E0,6.678723047E0,5.653210884E-1,-3.668351312E0,7.640793861E0
8.415840917E0,3.770176479E0,1.912429528E0,-6.994972630E0,8.173203746E0
8.425814917E0,7.188602006E-1,3.397856777E0,-9.499034547E0,1.011404212E1
8.435788917E0,-2.123453202E0,5.266996443E0,-1.056507668E1,1.199463006E1
8.445763917E0,-4.462611358E0,7.268898311E0,-1.065022033E1,1.364474169E1
8.455737917E0,-5.991011549E0,9.428047594E0,-9.988748213E0,1.498517239E1
8.465711917E0,-6.298818921E0,1.106714318E1,-8.838763447E0,1.550098440E1
8.475686917E0,-5.756799572E0,1.116111144E1,-7.601720656E0,1.467982653E1
8.485660917E0,-4.897983926E0,1.020477944E1,-6.409027827E0,1.300782102E1
8.495634917E0,-3.720714882E0,9.571279820E0,-5.435182246E0,1.161870572E1
8.505609917E0,-2.824808008E0,1.035351507E1,-4.929253081E0,1.180984125E1
8.515583917E0,-2.661226888E0,1.129033140E1,-5.227289171E0,1.272313891E1
8.525557917E0,-2.678065699E0,1.091132307E1,-5.813868982E0,1.265029958E1
8.535532917E0,-3.087518145E0,1.020625060E1,-5.562998872E0,1.202693960E1
8.545506917E0,-3.745847969E0,9.864596622E0,-4.763719283E0,1.157733410E1
8.555480917E0,-4.133759272E0,9.593875215E0,-4.225913437E0,1.126892860E1
8.565455917E0,-4.295655810E0,9.465082104E0,-3.946631414E0,1.111828843E1
8.575429917E0,-4.252896876E0,9.350507668E0,-3.776067549E0,1.094430499E1
8.585404917E0,-3.935807633E0,9.039497775E0,-3.578580179E0,1.048853364E1
8.595378917E0,-3.519221585E0,8.574589167E0,-3.346435485E0,9.854295023E0
8.605352917E0,-3.129085416E0,8.159207645E0,-2.987452404E0,9.235189051E0
8.615327917E0,-2.846546202E0,7.898084443E0,-2.502802427E0,8.760512721E0
8.625301917E0,-2.670675403E0,7.770825056E0,-1.919019924E0,8.438060597E0
8.635275917E0,-2.450460491E0,7.654984698E0,-1.449658077E0,8.167316321E0
8.645250917E0,-2.412258292E0,7.592921766E0,-1.104396949E0,8.043080482E0
8.655224917E0,-2.560675244E0,7.603112293E0,-8.643659694E-1,8.069169894E0
8.665198917E0,-2.821041816E0,7.547143330E0,-6.885681152E-1,8.086518127E0
8.675173917E0,-3.148856022E0,7.333184938E0,-5.217528999E-1,7.997694773E0
8.685147917E0,-3.527856168E0,7.055281397E0,-4.951925075E-1,7.903668790E0
8.695121917E0,-4.053624936E0,6.930743304E0,-7.675227758E-1,8.065740455E0
8.705096917E0,-4.574759785E0,6.687562283E0,-1.141780099E0,8.182638827E0
8.715070917E0,-4.706996906E0,5.927546455E0,-1.469308230E0,7.710414614E0
8.725044917E0,-4.346001506E0,4.468326427E0,-1.642201626E0,6.445967447E0
8.735019917E0,-3.312452930E0,2.158957495E0,-1.683933496E0,4.297566043E0
8.744993917E0,-1.281689206E0,-1.341985109E0,-1.644585536E0,2.479579165E0
8.754967917E0,2.456705317E0,-6.762075691E0,-1.493674162E0,7.347933803E0
8.764942917E0,8.673739818E0,-1.476019430E1,1.079863787E-1,1.712041937E1
8.774916917E0,1.532831679E1,-2.155495593E1,5.469366823E0,2.700902431E1
8.784890917E0,1.797034142E1,-2.195393952E1,1.224599916E1,3.090102145E1
8.794865917E0,1.749296538E1,-2.490112332E1,1.325479472E1,3.319276070E1
8.804839917E0,1.872983275E1,-2.891927144E1,1.123868528E1,3.624139819E1
8.814814917E0,1.938886658E1,-2.625434443E1,1.251700591E1,3.495560307E1
8.824788917E0,1.858881078E1,-2.262692831E1,1.412144329E1,3.251056646E1
8.834762917E0,1.765234761E1,-1.983981321E1,1.249537472E1,2.934890038E1
8.844737917E0,1.675005792E1,-1.607870635E1,9.111981615E0,2.494228231E1
8.854711917E0,1.561824513E1,-1.208209702E1,6.353002145E0,2.074288518E1
8.864685917E0,1.406235718E1,-8.331359029E0,4.442617389E0,1.693807197E1
8.874660917E0,1.229684654E1,-5.186285571E0,2.835623603E0,1.364370749E1
8.884634917E0,1.014631547E1,-2.502204841E0,7.790069997E-1,1.047929380E1
8.894608917E0,7.094433183E0,3.095404869E-1,-1.911169745E0,7.353867506E0
8.904583917E0,3.905537183E0,2.465665591E0,-4.532779115E0,6.471384241E0
8.914557917E0,9.091894090E-1,3.541302425E0,-6.793792158E0,7.715118932E0
8.924531917E0,-1.826887102E0,4.547207705E0,-8.148494961E0,9.508553230E0
8.934506917E0,-3.922581816E0,6.451934695E0,-8.695567474E0,1.151637977E1
8.944480917E0,-4.931996595E0,8.520725201E0,-8.732594383E0,1.315999822E1
8.954454917E0,-4.745824757E0,9.807129017E0,-8.764482758E0,1.398280337E1
8.964429917E0,-4.214262568E0,1.041222579E1,-9.427139522E0,1.466442684E1
8.974403917E0,-4.150170068E0,1.084012035E1,-9.248101287E0,1.484114208E1
8.984377917E0,-4.419600994E0,1.114175950E1,-9.535922291E0,1.531683687E1
8.994352917E0,-4.435171545E0,1.083287799E1,-1.097937296E1,1.604894460E1
9.004326917E0,-4.157115975E0,1.054869746E1,-1.158156484E1,1.620769186E1
9.014300917E0,-3.813886755E0,1.009877059E1,-1.070467662E1,1.520266428E1
9.024275917E0,-3.684765031E0,9.091606992E0,-9.194878761E0,1.344546788E1
9.034249917E0,-3.985107263E0,8.038342774E0,-7.492930870E0,1.168931339E1
9.044223917E0,-4.490500823E0,7.201585749E0,-5.910952057E0,1.034247500E1
9.054198917E0,-4.955544502E0,6.872710274E0,-5.216867679E0,9.950240007E0
9.064172917E0,-5.065202599E0,6.829450234E0,-5.097659324E0,9.913818560E0
9.074146917E0,-4.806334668E0,6.704739649E0,-4.652516059E0,9.471023829E0
9.084121917E0,-4.574030052E0,6.289825904E0,-3.687028780E0,8.606848555E0
9.094095917E0,-4.489049544E0,5.756564514E0,-2.621148317E0,7.756289017E0
9.104069917E0,-4.507084111E0,5.325904802E0,-1.654096617E0,7.170432676E0
9.114044917E0,-4.488019849E0,5.086353732E0,-9.350001884E-1,6.847447832E0
9.124018917E0,-4.554355341E0,5.050298046E0,-5.383192313E-1,6.821836302E0
9.133992917E0,-4.885204251E0,5.166797971E0,-3.653927985E-1,7.120009393E0
9.143967917E0,-5.342992120E0,5.321189023E0,-4.702542789E-1,7.555379309E0
9.153941917E0,-5.833269458E0,5.378589969E0,-6.141845155E-1,7.958233802E0
9.163915917E0,-6.325293360E0,5.289469632E0,-5.772173949E-1,8.265652122E0
9.173890917E0,-6.617716708E0,4.981972162E0,-5.073244567E-1,8.298891441E0
9.183864917E0,-6.659678081E0,4.644968473E0,-6.797587001E-1,8.147951654E0
9.193838917E0,-6.586387911E0,4.371187218E0,-1.063773565E0,7.976176879E0
9.203813917E0,-6.196882657E0,3.644135653E0,-1.436873724E0,7.331144891E0
9.213787917E0,-5.188722691E0,2.234145672E0,-1.641659735E0,5.882966661E0
9.223761917E0,-3.642386166E0,4.246072590E-2,-1.704146444E0,4.021553804E0
9.233736917E0,-1.053352511E0,-3.390787785E0,-1.715145202E0,3.943186070E0
9.243710917E0,2.924311831E0,-8.336688766E0,-1.558008737E0,8.971029512E0
9.253684917E0,8.026690443E0,-1.426118824E1,1.996876770E-1,1.636609680E1
9.263659917E0,1.198974610E1,-1.850533826E1,4.435859469E0,2.249174082E1
9.273633917E0,1.251674044E1,-1.998937563E1,8.483389560E0,2.506415424E1
9.283607917E0,1.207205853E1,-2.368014750E1,8.126650933E0,2.779435983E1
9.293582917E0,1.389547764E1,-2.608431910E1,7.102823353E0,3.039615274E1
9.303556917E0,1.519134225E1,-2.298445982E1,9.790424107E0,2.923892400E1
9.313530917E0,1.557800342E1,-2.049026216E1,1.197029592E1,2.838684587E1
9.323505917E0,1.596682338E1,-1.909058842E1,1.175154223E1,2.752251369E1
9.333479917E0,1.636231969E1,-1.700233721E1,1.062196308E1,2.587723084E1
9.343453917E0,1.609019262E1,-1.408040636E1,9.261705419E0,2.330088687E1
9.353428917E0,1.482558020E1,-9.890953531E0,7.749587384E0,1.943411677E1
9.363402917E0,1.307446775E1,-5.508372429E0,6.178828209E0,1.547455304E1
9.373376917E0,1.141351703E1,-1.887348481E0,4.486305445E0,1.240795680E1
9.383351917E0,9.806451910E0,1.246921077E0,2.380067031E0,1.016789213E1
9.393325917E0,8.002097054E0,3.861084895E0,-2.632008643E-1,8.888802423E0
9.403299917E0,5.793054648E0,5.873947368E0,-3.048775079E0,8.795326561E0
9.413274917E0,3.452526489E0,7.254527609E0,-5.141554956E0,9.538537485E0
9.423248917E0,1.042230522E0,8.372032261E0,-6.390723703E0,1.058388011E1
9.433222917E0,-1.418303552E0,9.691169960E0,-6.830768781E0,1.194109552E1
9.443197917E0,-3.400378096E0,1.073270232E1,-6.927582300E0,1.321910991E1
9.453171917E0,-4.622349688E0,1.098413377E1,-6.974424344E0,1.380796532E1
9.463145917E0,-4.882084762E0,1.061786067E1,-6.986785943E0,1.361575905E1
9.473120917E0,-4.803288853E0,1.039383162E1,-7.112259589E0,1.347915264E1
9.483094917E0,-4.895897639E0,1.054956402E1,-7.432429730E0,1.380232323E1
9.493068917E0,-4.902069960E0,1.029534463E1,-7.576668845E0,1.369051941E1
9.503043917E0,-4.834947433E0,9.735690075E0,-7.248230742E0,1.306511488E1
9.513017917E0,-4.901937813E0,9.541164905E0,-6.649434929E0,1.262053117E1
9.522991917E0,-4.868367194E0,9.420387742E0,-6.076094384E0,1.222144129E1
9.532965917E0,-4.660711516E0,9.258112305E0,-5.492337610E0,1.173033025E1
9.542940917E0,-4.428454263E0,9.073378297E0,-4.901419457E0,1.122324880E1
9.552914917E0,-4.193721299E0,8.846857163E0,-4.458710096E0,1.075798660E1
9.562888917E0,-4.168263692E0,8.578637195E0,-4.233374777E0,1.043498444E1
9.572867417E0,-4.156002665E0,8.237578461E0,-3.803432518E0,9.979787371E0
9.582841417E0,-4.059201425E0,7.804546534E0,-3.120965680E0,9.334264277E0
9.592815417E0,-4.014577814E0,7.407812367E0,-2.491713182E0,8.786418706E0
9.602790417E0,-3.906587343E0,7.112917401E0,-2.101732257E0,8.382857335E0
9.612764417E0,-3.676906958E0,6.972962540E0,-1.908923245E0,8.110847016E0
9.622738417E0,-3.440023388E0,6.899406322E0,-1.797145824E0,7.916141839E0
9.632713417E0,-3.494572647E0,6.867529056E0,-1.498960630E0,7.849960273E0
9.642687417E0,-3.791168568E0,6.913843682E0,-1.229278273E0,7.980308180E0
9.652661417E0,-4.226511900E0,6.940810456E0,-1.220206026E0,8.217490819E0
9.662636417E0,-4.644968473E0,6.803152381E0,-1.297119423E0,8.339132643E0
9.672610417E0,-4.804844213E0,6.288931865E0,-1.249986187E0,8.012468869E0
9.682584417E0,-4.739689273E0,5.677744047E0,-1.173556208E0,7.488569025E0
9.692559417E0,-4.554043685E0,5.124654749E0,-1.375940621E0,6.992468289E0
9.702533417E0,-4.141837785E0,4.089007607E0,-1.742074993E0,6.075329516E0
9.712507417E0,-3.335537737E0,2.319324401E0,-1.983445131E0,4.520965855E0
9.722482417E0,-2.007941456E0,-2.385202056E-1,-2.091794183E0,2.909351077E0
9.732456417E0,6.234815884E-1,-4.080840216E0,-1.836200254E0,4.518143151E0
9.742430417E0,6.163695615E0,-1.068026449E1,-8.336580008E-1,1.235937616E1
9.752404417E0,1.323852308E1,-1.882597618E1,2.252347323E0,2.312463926E1
9.762379417E0,1.817722760E1,-2.202443121E1,7.479929001E0,2.952010351E1
9.772353417E0,1.831437756E1,-2.161924021E1,1.105857935E1,3.041545906E1
9.782327417E0,1.800783844E1,-2.480287372E1,1.096573609E1,3.255322040E1
9.792302417E0,1.820595614E1,-2.626907474E1,1.049920663E1,3.364155863E1
9.802276417E0,1.745073562E1,-2.249632958E1,1.146008893E1,3.069114948E1
9.812250417E0,1.659114697E1,-1.882814550E1,1.113068955E1,2.745282263E1
9.822225417E0,1.535940760E1,-1.629552344E1,9.843519748E0,2.446120126E1
9.832199417E0,1.367849215E1,-1.389684121E1,8.645875497E0,2.133013142E1
9.842173417E0,1.202835994E1,-1.126668526E1,7.927802916E0,1.828851275E1
9.852148417E0,1.025782187E1,-8.348691346E0,6.737532004E0,1.484310932E1
9.862122417E0,8.386094230E0,-5.426478665E0,5.028416011E0,1.118294303E1
9.872096417E0,6.510377031E0,-2.517527470E0,2.900103481E0,7.558674080E0
9.882071417E0,4.827108071E0,2.309357822E-2,5.588274631E-1,4.859402615E0
9.892045417E0,3.503472109E0,2.281572438E0,-1.221764893E0,4.355754707E0
9.902019417E0,2.502417680E0,4.609759464E0,-2.963741360E0,6.024594543E0
9.911994417E0,1.585911065E0,6.845493824E0,-4.488751336E0,8.338152562E0
9.921968417E0,2.293944561E-1,8.972681642E0,-5.694377621E0,1.062956133E1
9.931942417E0,-1.339370234E0,1.094008669E1,-7.144395302E0,1.313475518E1
9.941917417E0,-2.552512531E0,1.189651342E1,-8.642919145E0,1.492455705E1
9.951891417E0,-3.282939109E0,1.165169284E1,-9.592918611E0,1.544550817E1
9.961865417E0,-3.548148930E0,1.081836169E1,-9.737706195E0,1.498162984E1
9.971839417E0,-3.594291063E0,9.926785269E0,-9.500613880E0,1.420287499E1
9.981814417E0,-3.490182558E0,9.002632250E0,-9.419501889E0,1.348909847E1
9.991788417E0,-3.260301613E0,8.711167846E0,-9.261883174E0,1.312617582E1
1.000176242E1,-3.311651276E0,9.051210918E0,-9.057618297E0,1.322618246E1
1.001173742E1,-3.804187394E0,9.180589920E0,-8.708224357E0,1.321318449E1
1.002171142E1,-4.273549241E0,8.875868708E0,-7.960597025E0,1.266551907E1
1.003168542E1,-4.467140611E0,8.353969043E0,-6.744004287E0,1.162866019E1
1.004166042E1,-4.468408872E0,7.864631937E0,-5.562612956E0,1.061893480E1
1.005163442E1,-4.361154565E0,7.514876640E0,-4.700058892E0,9.878440851E0
1.006160842E1,-4.135432160E0,7.149517463E0,-3.933073768E0,9.148030846E0
1.007158342E1,-4.018615317E0,6.774709770E0,-3.045644187E0,8.445230017E0
1.008155742E1,-4.030586906E0,6.404683346E0,-2.131669417E0,7.861909060E0
1.009153142E1,-4.129065127E0,6.118605981E0,-1.417998035E0,7.516464355E0
1.010150542E1,-4.355091003E0,5.985322793E0,-9.939486006E-1,7.468523308E0
1.011148042E1,-4.519152179E0,5.839580943E0,-7.941173744E-1,7.426578244E0
1.012145442E1,-4.685673864E0,5.585040536E0,-7.389714065E-1,7.327639190E0
1.013142842E1,-5.001300718E0,5.369186477E0,-6.698970786E-1,7.368170356E0
1.014140342E1,-5.405046866E0,5.299364290E0,-6.629087788E-1,7.598502586E0
1.015137742E1,-5.861585770E0,5.303821623E0,-9.133511648E-1,7.957570100E0
1.016135142E1,-6.141203130E0,5.019164547E0,-1.329405994E0,8.041996576E0
1.017132642E1,-6.140943514E0,4.533219995E0,-1.838488270E0,7.851197991E0
1.018130042E1,-6.273646658E0,4.566957260E0,-2.490515088E0,8.149748856E0
1.019127442E1,-6.595028926E0,4.666381561E0,-3.113160232E0,8.658018829E0
1.020124842E1,-6.581534722E0,4.028361456E0,-3.493373091E0,8.470416216E0
1.021122342E1,-5.784669156E0,2.470201861E0,-3.618499120E0,7.256571529E0
1.022119742E1,-3.936497605E0,-4.292265594E-2,-3.178656356E0,5.059813433E0
1.023117142E1,-8.252660769E-1,-3.832843428E0,-2.194881619E0,4.493245838E0
1.024114642E1,3.645006303E0,-9.184305825E0,-3.329580009E-1,9.886779328E0
1.025112042E1,9.454090508E0,-1.577064462E1,3.545907108E0,1.872609186E1
1.026109442E1,1.447909058E1,-2.091065591E1,9.304606440E0,2.708274904E1
1.027106942E1,1.452483101E1,-2.092108500E1,1.182615387E1,2.808060592E1
1.028104342E1,1.433677052E1,-2.288448179E1,1.033313518E1,2.891394436E1
1.029101742E1,1.711843484E1,-2.628161117E1,1.118712921E1,3.330038674E1
1.030099242E1,1.895266429E1,-2.435725742E1,1.360783907E1,3.372910845E1
1.031096642E1,1.865756000E1,-2.145999480E1,1.325843753E1,3.137550140E1
1.032094042E1,1.674466562E1,-1.820081059E1,1.120248634E1,2.715048864E1
1.033091442E1,1.470516615E1,-1.464869024E1,9.362064689E0,2.277003058E1
1.034088942E1,1.335593517E1,-1.165429251E1,7.821765414E0,1.937481748E1
1.035086342E1,1.234875929E1,-8.615702110E0,6.058367965E0,1.623040361E1
1.036083742E1,1.090426314E1,-5.550584648E0,3.823320653E0,1.281911562E1
1.037081242E1,9.183668479E0,-2.362772722E0,1.443911433E0,9.592045761E0
1.038078642E1,7.539368872E0,9.793536580E-1,-1.235434806E0,7.702435702E0
1.039076042E1,6.113888447E0,3.929833533E0,-3.554893109E0,8.090765635E0
1.040073542E1,4.451896920E0,5.906474259E0,-5.324986789E0,9.113797709E0
1.041070942E1,2.530832224E0,7.505867835E0,-6.694090115E0,1.037082476E1
1.042068342E1,-7.422046244E-2,9.203779392E0,-7.191101691E0,1.168019723E1
1.043065842E1,-2.289172064E0,1.062803366E1,-7.171487206E0,1.302404073E1
1.044063242E1,-3.400555267E0,1.094956386E1,-6.690092373E0,1.327456443E1
1.045060642E1,-3.899567760E0,1.053357656E1,-6.106556039E0,1.278486960E1
1.046058042E1,-4.250092551E0,1.006793822E1,-5.953223333E0,1.244457853E1
1.047055542E1,-4.727023619E0,9.759278913E0,-6.421011111E0,1.260228792E1
1.048052942E1,-5.324109707E0,9.555929709E0,-7.180642776E0,1.308524235E1
1.049050342E1,-5.540074863E0,9.214980319E0,-7.521335474E0,1.312169117E1
1.050047842E1,-5.526111712E0,8.936076318E0,-7.375812310E0,1.283721067E1
1.051045242E1,-5.404726439E0,8.749242575E0,-6.969692777E0,1.242324156E1
1.052042642E1,-5.185410243E0,8.619968823E0,-6.380167724E0,1.191213172E1
1.053040042E1,-4.915120361E0,8.721955959E0,-5.669864339E0,1.150557628E1
1.054037542E1,-4.669019825E0,8.834031880E0,-4.853394229E0,1.110834375E1
1.055034942E1,-4.393738759E0,8.772252538E0,-4.000625773E0,1.059539341E1
1.056032342E1,-3.996274275E0,8.431678539E0,-3.347515758E0,9.913085938E0
1.057029496E1,-3.676311711E0,8.045958772E0,-2.703218959E0,9.249870978E0
1.058026896E1,-3.372220244E0,7.739675184E0,-2.050385225E0,8.687837528E0
1.059024296E1,-3.198981278E0,7.508621873E0,-1.679710052E0,8.332725215E0
1.060021796E1,-3.141568637E0,7.325486494E0,-1.624975144E0,8.134663490E0
1.061019196E1,-3.097194702E0,7.129319426E0,-1.702064250E0,7.957187519E0
1.062016596E1,-3.357039703E0,6.925352756E0,-1.587705430E0,7.858182672E0
1.063013996E1,-3.803785105E0,6.740777793E0,-1.234113043E0,7.837722972E0
1.064011496E1,-4.279571874E0,6.574696403E0,-8.622599486E-1,7.892075800E0
1.065008896E1,-4.796853408E0,6.445234371E0,-5.522695184E-1,8.053313003E0
1.066006296E1,-5.198306862E0,6.269901516E0,-4.067428458E-1,8.154722497E0
1.067003796E1,-5.350934978E0,6.098244222E0,-3.912746215E-1,8.122449357E0
1.068001196E1,-5.281482920E0,5.830687913E0,-3.014438474E-1,7.872855375E0
1.068998596E1,-5.209483230E0,5.404928167E0,-1.146638989E-1,7.507670200E0
1.069995996E1,-5.141916899E0,4.724546154E0,-2.611381128E-2,6.982931168E0
1.070993496E1,-4.686850909E0,3.342896458E0,-7.483617425E-2,5.757354308E0
1.071990896E1,-3.411073238E0,8.758684659E-1,-1.022514296E-1,3.523211825E0
1.072988296E1,-9.477933115E-1,-2.910548070E0,1.179487185E-1,3.063252215E0
1.073985796E1,2.943481343E0,-8.537865729E0,8.096988885E-1,9.067240259E0
1.074983196E1,8.598453993E0,-1.517392223E1,3.097472445E0,1.771371396E1
1.075980596E1,1.381387039E1,-1.874178914E1,7.357333939E0,2.441737165E1
1.076978096E1,1.411585920E1,-1.723265669E1,9.811277032E0,2.434097563E1
1.077975496E1,1.269511327E1,-1.903297697E1,9.066993138E0,2.460956070E1
1.078972896E1,1.345894206E1,-2.411731809E1,8.772102849E0,2.897823221E1
1.079970296E1,1.367853425E1,-2.195080541E1,1.063794819E1,2.796615989E1
1.080967796E1,1.417016814E1,-1.821725764E1,1.126717877E1,2.568290206E1
1.081965196E1,1.453916019E1,-1.680882010E1,1.080357175E1,2.471114677E1
1.082962596E1,1.453679558E1,-1.554855567E1,1.006385804E1,2.354479237E1
1.083960096E1,1.478884449E1,-1.450531300E1,9.124455480E0,2.263558513E1
1.084957496E1,1.431183565E1,-1.252367407E1,8.036454123E0,2.064595958E1
1.085954896E1,1.256562901E1,-9.194477642E0,6.767013080E0,1.697721761E1
1.086952296E1,1.033832985E1,-5.732451766E0,4.892330253E0,1.279362977E1
1.087949796E1,8.333278670E0,-3.034219020E0,2.600714053E0,9.241954990E0
1.088947196E1,6.322246376E0,-7.429863971E-1,3.708055660E-1,6.376544894E0
1.089944596E1,4.358240313E0,1.345207509E0,-1.746087352E0,4.883918807E0
1.090942096E1,2.363393696E0,3.079052546E0,-4.022194690E0,5.589655129E0
1.091939496E1,5.268206817E-1,4.407208990E0,-6.378999451E0,7.771271782E0
1.092936896E1,-1.202935397E0,5.549667805E0,-8.558905181E0,1.027135455E1
1.093934396E1,-2.794592521E0,6.742692756E0,-1.023449499E1,1.257054258E1
1.094931796E1,-4.046742763E0,7.692577617E0,-1.149331632E1,1.441000338E1
1.095929196E1,-4.803552563E0,8.082413823E0,-1.219829523E1,1.540123167E1
1.096926596E1,-5.046945838E0,8.277169374E0,-1.221900022E1,1.559766526E1
1.097924096E1,-5.141050926E0,8.645905902E0,-1.204444096E1,1.569237558E1
1.098921496E1,-5.101746528E0,9.012636251E0,-1.168138968E1,1.561122335E1
1.099918896E1,-5.089774354E0,9.291621528E0,-1.103693529E1,1.529882264E1
1.100916296E1,-4.932379587E0,9.364463802E0,-9.953619311E0,1.452914616E1
1.101913796E1,-4.760308895E0,9.096699917E0,-8.866275181E0,1.356544602E1
1.102911196E1,-4.503307979E0,8.818438525E0,-7.827944752E0,1.262225653E1
1.103908596E1,-4.224953617E0,8.356152978E0,-6.924824753E0,1.164597456E1
1.104906096E1,-4.098228081E0,7.886671262E0,-6.040823395E0,1.074646939E1
1.105903496E1,-3.966113167E0,7.412870793E0,-5.296933018E0,9.936710042E0
1.106900896E1,-3.787183691E0,7.072980918E0,-4.739144897E0,9.318224817E0
1.107898296E1,-3.713903461E0,6.822575662E0,-4.220588086E0,8.840474047E0
1.108895796E1,-3.814344007E0,6.555048589E0,-3.684514185E0,8.431697753E0
1.109893196E1,-4.081823133E0,6.362800325E0,-3.207333148E0,8.211789938E0
1.110890596E1,-4.430473307E0,6.282830880E0,-2.819983470E0,8.188733990E0
1.111888096E1,-4.787810689E0,6.253301271E0,-2.486261238E0,8.258837868E0
1.112885496E1,-5.091529103E0,6.175583004E0,-2.068434118E0,8.266795858E0
1.113882896E1,-5.285532117E0,6.045657288E0,-1.574028938E0,8.183177189E0
1.114880296E1,-5.442020565E0,5.911514559E0,-1.165695211E0,8.119140197E0
1.115877796E1,-5.521525741E0,5.607383916E0,-8.469985695E-1,7.915011527E0
1.116875196E1,-5.615129138E0,5.357284470E0,-6.331144376E-1,7.786591425E0
1.117872596E1,-5.844120721E0,5.334592010E0,-5.757548600E-1,7.933669553E0
1.118870096E1,-6.091263231E0,5.173612316E0,-6.880677398E-1,8.021420657E0
1.119867496E1,-6.083434394E0,4.693398036E0,-9.042496812E-1,7.736525489E0
1.120864896E1,-5.644303236E0,3.578796526E0,-1.228185428E0,6.795173511E0
1.121862296E1,-4.820570884E0,1.630271552E0,-1.435169846E0,5.287286777E0
1.122859796E1,-3.200088741E0,-1.057777099E0,-1.428860700E0,3.660751731E0
1.123857196E1,-3.785434788E-1,-4.618115427E0,-1.286263044E0,4.808820841E0
1.124854596E1,3.548144837E0,-9.310502772E0,-3.933819580E-1,9.971436357E0
1.125851996E1,7.856075122E0,-1.403736852E1,2.090642720E0,1.622148015E1
1.126849496E1,1.074470666E1,-1.754413085E1,6.322437580E0,2.152251067E1
1.127846896E1,1.056818039E1,-1.978308820E1,1.008518517E1,2.459203073E1
1.128844296E1,1.107661684E1,-2.273392534E1,9.501626033E0,2.701487922E1
1.129841796E1,1.529919765E1,-2.504491804E1,8.708252424E0,3.061285725E1
1.130839196E1,1.912150966E1,-2.343239162E1,1.163506102E1,3.240499581E1
1.131836596E1,1.959127731E1,-2.080341096E1,1.304817049E1,3.141424529E1
1.132833996E1,1.805750002E1,-1.822822702E1,1.154358367E1,2.813531395E1
1.133831496E1,1.687258281E1,-1.596629713E1,9.799755678E0,2.521193976E1
1.134828896E1,1.621131184E1,-1.355822545E1,8.797641149E0,2.289171463E1
1.135826296E1,1.514669642E1,-1.037310441E1,7.660613812E0,1.989242850E1
1.136823796E1,1.340868641E1,-6.863599727E0,6.281694181E0,1.632058683E1
1.137821196E1,1.147618632E1,-3.560007668E0,4.783031759E0,1.293266793E1
1.138818596E1,9.809311198E0,-6.533398104E-1,2.673311913E0,1.018803395E1
1.139815996E1,8.505095594E0,2.181854607E0,1.607399583E-1,8.781968909E0
1.140813496E1,7.075988726E0,4.799701586E0,-2.655745708E0,8.953197029E0
1.141810896E1,5.033204296E0,6.875352631E0,-5.329224266E0,1.005008709E1
1.142808296E1,2.902056744E0,8.338684421E0,-7.114776816E0,1.133911991E1
1.143805696E1,4.438598013E-1,9.580581570E0,-7.707259390E0,1.230391816E1
1.144803196E1,-1.659897054E0,1.055279753E1,-7.875728783E0,1.327192141E1
1.145800596E1,-2.813039317E0,1.062596725E1,-7.848117646E0,1.350619564E1
1.146797996E1,-3.299996021E0,1.020728088E1,-7.503090992E0,1.309102483E1
1.147795496E1,-3.551105867E0,1.012658463E1,-7.090018535E0,1.286182071E1
1.148792896E1,-3.949267339E0,1.049630875E1,-7.126137371E0,1.328725117E1
1.149790296E1,-4.210254886E0,1.046163242E1,-7.385241530E0,1.348012580E1
1.150787696E1,-4.325445035E0,1.002574589E1,-7.406345885E0,1.319390066E1
1.151785196E1,-4.556183766E0,9.819695853E0,-6.996898702E0,1.288960157E1
1.152782596E1,-4.819926521E0,9.676402817E0,-6.568668509E0,1.264957980E1
1.153779996E1,-5.050528427E0,9.614496006E0,-6.233692049E0,1.252219180E1
1.154777396E1,-5.192484789E0,9.640865194E0,-5.892115252E0,1.243483824E1
1.155774896E1,-5.232824146E0,9.540152752E0,-5.517792878E0,1.220012300E1
1.156772296E1,-5.155291235E0,9.170755488E0,-4.982239380E0,1.164055382E1
1.157770054E1,-4.960942066E0,8.552422957E0,-4.302256439E0,1.078259223E1
1.158767554E1,-4.687706357E0,8.013716056E0,-3.590460260E0,9.954177052E0
1.159764954E1,-4.355880377E0,7.685879046E0,-2.951291176E0,9.314319630E0
1.160762354E1,-4.219521554E0,7.493431392E0,-2.391434019E0,8.926076004E0
1.161759754E1,-4.165928314E0,7.301416431E0,-1.791329598E0,8.595027769E0
1.162757254E1,-4.156286255E0,7.102706993E0,-1.243341704E0,8.322803654E0
1.163754654E1,-4.214740870E0,6.976332291E0,-8.578391612E-1,8.195678182E0
1.164752054E1,-4.373609135E0,6.893217629E0,-6.903868917E-1,8.192773657E0
1.165749454E1,-4.598682498E0,6.790531166E0,-6.397954662E-1,8.226088528E0
1.166746954E1,-4.818449514E0,6.602242051E0,-4.808375931E-1,8.187689577E0
1.167744354E1,-4.864516802E0,6.086269709E0,-3.006591511E-1,7.797217364E0
1.168741754E1,-4.641626204E0,5.442199489E0,-2.128903976E-1,7.155945180E0
1.169739154E1,-4.390891165E0,5.105378233E0,-3.480882561E-1,6.742846399E0
1.170736654E1,-4.081547145E0,4.713896036E0,-7.324527843E-1,6.278242589E0
1.171734054E1,-3.760114591E0,3.876795194E0,-1.105482777E0,5.512721187E0
1.172731454E1,-3.213440273E0,2.402057825E0,-1.218507117E0,4.192951201E0
1.173728954E1,-1.943840770E0,-1.355162394E-1,-1.109644387E0,2.242363096E0
1.174726354E1,4.650951344E-1,-4.155420282E0,-9.418545869E-1,4.286131271E0
1.175723754E1,4.180740480E0,-9.908298712E0,-3.250788778E-1,1.075911942E1
1.176721154E1,8.532571660E0,-1.623658351E1,2.044473690E0,1.845565756E1
1.177718654E1,1.168923079E1,-1.942710620E1,6.171588771E0,2.349763988E1
1.178716054E1,1.104354031E1,-1.947732794E1,8.804836732E0,2.405932742E1
1.179713454E1,9.772647402E0,-2.116772056E1,8.144281458E0,2.469628214E1
1.180710854E1,1.088048018E1,-2.273339909E1,8.227944589E0,2.651209828E1
1.181708354E1,1.253705952E1,-2.159118527E1,1.080032537E1,2.720301768E1
1.182705754E1,1.395993267E1,-2.108604431E1,1.237324626E1,2.815312075E1
1.183703154E1,1.511448645E1,-2.063670450E1,1.213305317E1,2.831134495E1
1.184700554E1,1.585899605E1,-1.936320783E1,1.053405487E1,2.715525520E1
1.185698054E1,1.553974626E1,-1.691279529E1,8.375755184E0,2.444748726E1
1.186695454E1,1.426960589E1,-1.317419553E1,6.463005229E0,2.046830517E1
1.187692854E1,1.279028840E1,-9.538898524E0,4.954569186E0,1.670717864E1
1.188690354E1,1.112104281E1,-6.164080946E0,3.587066828E0,1.321137902E1
1.189687754E1,9.226582949E0,-2.977796313E0,1.634341214E0,9.831997508E0
1.190685154E1,7.590271223E0,-2.520307821E-1,-7.108327045E-1,7.627648385E0
1.191682554E1,5.965610660E0,2.091098803E0,-2.838415356E0,6.929488183E0
1.192680054E1,4.264827535E0,4.026101507E0,-4.272440025E0,7.256169169E0
1.193677454E1,2.490487606E0,5.780290761E0,-5.225581200E0,8.180524963E0
1.194674854E1,4.859158999E-1,7.461162363E0,-5.780542191E0,9.450911389E0
1.195672254E1,-1.387791612E0,8.749683455E0,-5.996431918E0,1.069766899E1
1.196669754E1,-3.067472135E0,9.682193314E0,-6.007445734E0,1.180015495E1
1.197667154E1,-4.149421624E0,1.007725284E1,-5.728317200E0,1.231187811E1
1.198664554E1,-4.435750419E0,9.975368614E0,-5.615644863E0,1.227678003E1
1.199661954E1,-4.229416797E0,9.727602791E0,-5.943861941E0,1.215910018E1
1.200659454E1,-3.876157848E0,9.876567042E0,-6.684874903E0,1.254028423E1
1.201656854E1,-3.611204719E0,1.021042668E1,-7.556623421E0,1.320591421E1
1.202654254E1,-3.752508532E0,1.013911287E1,-8.269772061E0,1.361146796E1
1.203651654E1,-3.866780668E0,9.949054974E0,-8.492949758E0,1.364059688E1
1.204649154E1,-3.774283563E0,9.930617534E0,-8.273739982E0,1.346540584E1
1.205646554E1,-3.740699496E0,1.000474035E1,-7.848911698E0,1.325492652E1
1.206643954E1,-3.984621944E0,9.935184209E0,-7.123455838E0,1.285802164E1
1.207641354E1,-4.255361477E0,9.667594571E0,-6.138899328E0,1.221706065E1
1.208638854E1,-4.301590149E0,9.261629405E0,-5.252441554E0,1.148344893E1
1.209636254E1,-4.047511087E0,8.672410746E0,-4.568974550E0,1.060512058E1
1.210633654E1,-3.712526441E0,8.121226471E0,-3.901671588E0,9.744753109E0
1.211631054E1,-3.447334746E0,7.600555306E0,-3.168478693E0,8.927027223E0
1.212628554E1,-3.265072941E0,7.122168281E0,-2.392656379E0,8.192117363E0
1.213625954E1,-3.249722831E0,6.819533941E0,-1.654156258E0,7.733238298E0
1.214623354E1,-3.276538162E0,6.617675777E0,-1.049333720E0,7.458581385E0
1.215620754E1,-3.341826417E0,6.530745807E0,-6.398438519E-1,7.363955781E0
1.216618254E1,-3.529427315E0,6.591651574E0,-4.336400378E-1,7.489644273E0
1.217615654E1,-3.779350176E0,6.662454924E0,-3.129219317E-1,7.666140718E0
1.218613054E1,-4.065757908E0,6.665773804E0,-1.799553707E-1,7.809949533E0
1.219610454E1,-4.298055507E0,6.599095080E0,-2.858133629E-2,7.875414523E0
1.220607954E1,-4.483283604E0,6.442184463E0,7.676853284E-2,7.849042358E0
1.221605354E1,-4.596612584E0,6.082669578E0,5.990106985E-2,7.624388801E0
1.222602754E1,-4.527438269E0,5.458986846E0,-1.393818337E-1,7.093494340E0
1.223600154E1,-4.143719419E0,4.493868234E0,-5.676395094E-1,6.139012701E0
1.224597654E1,-3.551547917E0,3.108380426E0,-9.570874608E-1,4.815759325E0
1.225595054E1,-2.320564011E0,1.000706520E0,-1.134311743E0,2.770035017E0
1.226592454E1,-2.653554171E-1,-2.231452444E0,-1.285374706E0,2.588818580E0
1.227589854E1,2.548199624E0,-6.811460105E0,-1.259538053E0,7.380768672E0
1.228587354E1,6.974803244E0,-1.300707041E1,-1.800346005E-1,1.476022267E1
1.229584754E1,1.172537477E1,-1.932388297E1,3.731562636E0,2.290898134E1
1.230582154E1,1.271819924E1,-2.133220975E1,9.580244771E0,2.661948262E1
1.231579654E1,1.160092263E1,-2.358952736E1,1.041967514E1,2.827749701E1
1.232577054E1,1.329387751E1,-2.732114788E1,7.818949395E0,3.137368755E1
1.233574454E1,1.521860431E1,-2.623073806E1,9.507957398E0,3.178142209E1
1.234571854E1,1.542424387E1,-2.270969214E1,1.285493521E1,3.031314526E1
1.235569354E1,1.453777440E1,-1.964392681E1,1.320245512E1,2.777652905E1
1.236566754E1,1.369423753E1,-1.703344440E1,1.071696747E1,2.434181097E1
1.237564154E1,1.349236124E1,-1.405911197E1,8.331316345E0,2.119229278E1
1.238561554E1,1.322699588E1,-1.039283642E1,6.547964687E0,1.805104735E1
1.239559054E1,1.258252396E1,-6.679244619E0,4.842949347E0,1.504614157E1
1.240556454E1,1.165512281E1,-3.280986139E0,2.932465773E0,1.245817456E1
1.241553854E1,1.037697293E1,-6.950000525E-3,9.797220325E-1,1.042312193E1
1.242551254E1,8.857423081E0,2.839966915E0,-1.511592954E0,9.423601699E0
1.243548654E1,6.850662763E0,4.836205169E0,-4.468143994E0,9.501829901E0
1.244546154E1,4.726882117E0,5.969735870E0,-6.484484975E0,1.000148520E1
1.245543554E1,2.382997656E0,6.843200546E0,-7.293406330E0,1.028114038E1
1.246540954E1,-2.013266516E-1,8.135459763E0,-7.157639245E0,1.083780594E1
1.247538454E1,-2.584719579E0,9.470184385E0,-6.650881530E0,1.185746148E1
1.248535854E1,-3.956216170E0,1.040164116E1,-6.225159792E0,1.275140775E1
1.249533254E1,-4.028599437E0,1.055009144E1,-5.994825103E0,1.278561578E1
1.250530654E1,-3.369518831E0,1.042239995E1,-5.948980594E0,1.246476826E1
1.251528054E1,-2.677181016E0,1.057984090E1,-6.080977394E0,1.249314283E1
1.252525554E1,-2.701649274E0,1.079897934E1,-6.222362484E0,1.275282943E1
1.253522954E1,-3.342377810E0,1.095255880E1,-6.232872269E0,1.303758914E1
1.254520354E1,-4.060113591E0,1.051918774E1,-6.358870996E0,1.294500187E1
1.255517754E1,-4.646584058E0,9.731205845E0,-6.329772912E0,1.250412475E1
1.256515254E1,-5.135567408E0,9.247953937E0,-5.845752679E0,1.208600550E1
1.257512258E1,-5.360302802E0,9.083907963E0,-4.882398173E0,1.162273814E1
1.258509658E1,-5.287765753E0,8.940853493E0,-3.788303432E0,1.105669800E1
1.259507058E1,-4.981526604E0,8.704824786E0,-3.083839661E0,1.049283798E1
1.260504558E1,-4.481155218E0,8.472500290E0,-2.747870052E0,9.970697221E0
1.261501958E1,-3.997658896E0,8.190617718E0,-2.395598698E0,9.423714150E0
1.262499358E1,-3.747884554E0,7.954237009E0,-1.991269583E0,9.015635284E0
1.263496758E1,-3.569600610E0,7.711719646E0,-1.762900728E0,8.678737662E0
1.264494258E1,-3.293409718E0,7.450672458E0,-1.781180294E0,8.338565277E0
1.265491658E1,-3.124212347E0,7.264510560E0,-1.896076327E0,8.131969128E0
1.266489058E1,-3.172504501E0,7.300975551E0,-1.952455181E0,8.196408362E0
1.267486458E1,-3.370596473E0,7.501726837E0,-2.106780743E0,8.489720326E0
1.268483958E1,-3.653881207E0,7.751838562E0,-2.357914855E0,8.888285067E0
1.269481358E1,-3.991465525E0,7.850182883E0,-2.662886328E0,9.200441942E0
1.270478758E1,-4.359685160E0,7.773044075E0,-2.972393193E0,9.394795909E0
1.271476158E1,-4.684821925E0,7.558899742E0,-3.095559528E0,9.416316189E0
1.272473658E1,-4.781565862E0,7.077352881E0,-3.104264570E0,9.087835519E0
1.273471058E1,-4.578267530E0,6.284985579E0,-3.035516517E0,8.347211380E0
1.274468458E1,-3.992891076E0,5.128953622E0,-2.864914937E0,7.103314860E0
1.275465858E1,-2.966632808E0,3.297623806E0,-2.706791608E0,5.196340423E0
1.276463258E1,-1.183958843E0,5.090252656E-1,-2.403105792E0,2.726863163E0
1.277460758E1,1.736062886E0,-3.723147908E0,-1.835297737E0,4.499340226E0
1.278458158E1,6.343549536E0,-1.122441925E1,-4.095711440E-2,1.289301693E1
1.279455558E1,1.160897542E1,-2.223298034E1,6.270517813E0,2.585329996E1
1.280452958E1,1.282109621E1,-2.682014207E1,1.363084319E1,3.270321719E1
1.281450458E1,1.183264896E1,-2.639361342E1,1.115305632E1,3.100040445E1
1.282447858E1,1.452267572E1,-2.903621809E1,9.969634835E0,3.396179751E1
1.283445258E1,1.821674660E1,-2.892080341E1,1.389588461E1,3.689658976E1
1.284442658E1,1.966801500E1,-2.662859430E1,1.555762120E1,3.657803201E1
1.285440158E1,1.903082286E1,-2.329887864E1,1.259556793E1,3.261377463E1
1.286437558E1,1.796978477E1,-1.920951844E1,8.375341201E0,2.760552669E1
1.287434958E1,1.715689081E1,-1.512649195E1,5.211367203E0,2.345907094E1
1.288432358E1,1.553205249E1,-1.134968415E1,2.232072834E0,1.936600460E1
1.289429858E1,1.279924633E1,-7.714455559E0,-1.384936416E0,1.500838366E1
1.290427258E1,9.733686819E0,-4.115114256E0,-4.569466885E0,1.151342052E1
1.291424658E1,7.162088392E0,-7.965305203E-1,-6.515518488E0,9.715037425E0
1.292422058E1,5.031642505E0,1.509109642E0,-7.349781675E0,9.034053846E0
1.293419558E1,3.058569750E0,3.292367159E0,-7.511422105E0,8.753056178E0
1.294416958E1,1.038521633E0,5.416950043E0,-6.704273626E0,8.681541326E0
1.295414358E1,-1.037473812E0,7.565909384E0,-5.824740710E0,9.604527112E0
1.296411758E1,-2.953513411E0,9.170163749E0,-4.911562915E0,1.081381500E1
1.297409158E1,-4.284466578E0,1.024166017E1,-3.873628635E0,1.175811446E1
1.298406658E1,-5.198243712E0,1.050094442E1,-3.424154337E0,1.220722755E1
1.299404058E1,-5.793180948E0,1.041336600E1,-3.494358931E0,1.241811907E1
1.300401458E1,-6.134622089E0,1.020223240E1,-3.382769791E0,1.237587433E1
1.301398858E1,-6.270095644E0,1.024936680E1,-3.294733820E0,1.245868734E1
1.302396358E1,-6.257007236E0,1.045995544E1,-3.646321634E0,1.272228238E1
1.303393758E1,-6.216101870E0,1.019512218E1,-4.280138761E0,1.268463742E1
1.304391158E1,-6.200119091E0,9.581435264E0,-4.528436681E0,1.227811538E1
1.305388558E1,-5.977996817E0,9.092460685E0,-4.429071729E0,1.174844516E1
1.306386058E1,-5.523471694E0,8.901466649E0,-4.232983306E0,1.129880506E1
1.307383458E1,-4.924025086E0,8.872939838E0,-3.938090386E0,1.088501908E1
1.308380858E1,-4.614723165E0,8.889445358E0,-3.740879298E0,1.069168306E1
1.309378258E1,-4.405308645E0,8.925883452E0,-3.519640538E0,1.055774641E1
1.310375658E1,-4.143120080E0,8.796699162E0,-3.090782061E0,1.020295515E1
1.311373158E1,-3.850328942E0,8.436946295E0,-2.577257947E0,9.625453458E0
1.312370558E1,-3.549777380E0,8.088774424E0,-2.117671036E0,9.083706388E0
1.313367958E1,-3.253709462E0,7.901652998E0,-1.747225513E0,8.722129463E0
1.314365358E1,-2.982754167E0,7.790392179E0,-1.551037979E0,8.484854243E0
1.315362858E1,-2.676492214E0,7.704957342E0,-1.533708586E0,8.299532531E0
1.316360258E1,-2.572816987E0,7.927611712E0,-1.767837971E0,8.520074284E0
1.317357658E1,-2.768953650E0,8.308387073E0,-2.227678066E0,9.036534161E0
1.318355058E1,-3.116319775E0,8.433562512E0,-2.549289838E0,9.345335963E0
1.319352458E1,-3.615273212E0,8.357397265E0,-2.643668284E0,9.481839033E0
1.320349958E1,-4.075813365E0,8.052045139E0,-2.599055198E0,9.391633161E0
1.321347358E1,-4.253351789E0,7.365058696E0,-2.441813629E0,8.848589991E0
1.322344758E1,-4.059211950E0,6.515335470E0,-2.259623160E0,8.002043162E0
1.323342158E1,-3.534869903E0,5.364836733E0,-2.103475605E0,6.760280174E0
1.324339658E1,-2.429307019E0,3.568444031E0,-1.911237865E0,4.721033316E0
1.325337058E1,-5.527571762E-1,5.224019408E-1,-1.676501100E0,1.840950902E0
1.326334458E1,2.136165633E0,-4.636151456E0,-7.302260184E-1,5.156581617E0
1.327331858E1,4.782755186E0,-1.182415763E1,2.044769852E0,1.291768302E1
1.328329258E1,6.421053795E0,-1.897245127E1,6.532049736E0,2.106778377E1
1.329326758E1,7.320585943E0,-2.325240731E1,7.777902526E0,2.558830186E1
1.330324158E1,8.091984546E0,-2.465114315E1,6.339886256E0,2.670867332E1
1.331321558E1,9.958403503E0,-2.687676885E1,7.676747450E0,2.967259603E1
1.332318958E1,1.269515420E1,-2.879807737E1,1.065351933E1,3.322640026E1
1.333316458E1,1.404029914E1,-2.745700443E1,1.195943881E1,3.307635513E1
1.334313858E1,1.357069522E1,-2.454557752E1,1.139325526E1,3.027301455E1
1.335311258E1,1.311935566E1,-2.161872566E1,9.790279680E0,2.711708628E1
1.336308658E1,1.302727137E1,-1.851128605E1,8.001599455E0,2.400839654E1
1.337306058E1,1.262704349E1,-1.514732909E1,6.093315604E0,2.064006543E1
1.338303558E1,1.167784860E1,-1.109595943E1,3.741946707E0,1.653767301E1
1.339300958E1,1.009687259E1,-6.453001227E0,1.313691017E0,1.205461924E1
1.340298358E1,7.990565175E0,-1.999684603E0,-1.130562655E0,8.314207253E0
1.341295758E1,5.542941753E0,1.508795062E0,-3.640489621E0,6.801016872E0
1.342293258E1,3.057412586E0,3.777077948E0,-5.549799367E0,7.376609150E0
1.343290658E1,4.911778092E-1,5.173135183E0,-6.518912212E0,8.336594010E0
1.344288058E1,-1.969362697E0,6.603426113E0,-6.520404421E0,9.486796070E0
1.345285458E1,-3.783796399E0,8.202719700E0,-5.670398190E0,1.066560553E1
1.346282858E1,-4.942518659E0,9.395366337E0,-4.423886418E0,1.150096389E1
1.347280358E1,-5.688603496E0,9.992056568E0,-3.572332429E0,1.204005661E1
1.348277758E1,-6.132471483E0,1.027933963E1,-3.075127018E0,1.235833467E1
1.349275158E1,-5.966622813E0,1.058518877E1,-3.679259877E0,1.269581672E1
1.350272558E1,-5.448754803E0,1.087021013E1,-3.971296724E0,1.279146570E1
1.351270058E1,-5.301300888E0,1.123041966E1,-3.809539350E0,1.298994638E1
1.352267458E1,-5.438068432E0,1.087580006E1,-3.793729356E0,1.273766061E1
1.353264858E1,-5.691027752E0,1.005646014E1,-3.653617205E0,1.211895648E1
1.354262258E1,-5.890563986E0,9.604772671E0,-3.260405986E0,1.172947779E1
1.355259658E1,-5.826366820E0,9.432918910E0,-2.977181185E0,1.147998769E1
1.356257158E1,-5.655371431E0,9.093114989E0,-2.969430701E0,1.111240230E1
1.357254954E1,-5.295874087E0,8.796091052E0,-2.856489100E0,1.065725247E1
1.358252354E1,-4.953147143E0,8.583921323E0,-2.692449850E0,1.026969611E1
1.359249754E1,-4.646914426E0,8.390259202E0,-2.572981294E0,9.930281763E0
1.360247254E1,-4.237024609E0,7.981418960E0,-2.304399675E0,9.325539342E0
1.361244654E1,-3.638525834E0,7.470029665E0,-1.919715743E0,8.527926007E0
1.362242054E1,-2.926901563E0,7.176727481E0,-1.753568572E0,7.946519542E0
1.363239454E1,-2.350893518E0,7.194518804E0,-1.768746336E0,7.772790024E0
1.364236854E1,-2.014832985E0,7.498121443E0,-2.014926394E0,8.021303230E0
1.365234354E1,-1.864251394E0,7.896548964E0,-2.487990845E0,8.486519737E0
1.366231754E1,-1.970568393E0,8.136721008E0,-3.011848742E0,8.897224365E0
1.367229154E1,-2.322060313E0,8.172569118E0,-3.368776234E0,9.139557068E0
1.368226554E1,-2.826192629E0,8.049330277E0,-3.389690848E0,9.179819537E0
1.369223954E1,-3.406704199E0,7.878036679E0,-3.274109228E0,9.186342398E0
1.370221454E1,-3.800415940E0,7.462437640E0,-3.140054500E0,8.943773204E0
1.371218854E1,-3.965198663E0,6.865270861E0,-2.975134075E0,8.467949410E0
1.372216254E1,-4.125907046E0,6.515322606E0,-2.909503173E0,8.242435703E0
1.373213654E1,-4.193293283E0,5.738165665E0,-3.026032918E0,7.724450076E0
1.374211054E1,-3.813211986E0,3.724344833E0,-3.190562749E0,6.212167154E0
1.375208554E1,-2.534171569E0,3.906267500E-1,-3.429888701E0,4.282376829E0
1.376205954E1,9.677024961E-2,-4.854439126E0,-3.595273980E0,6.041600674E0
1.377203354E1,3.663675878E0,-1.211494902E1,-2.652631773E0,1.293178124E1
1.378200754E1,7.864548322E0,-2.019799727E1,9.109728098E-1,2.169424083E1
1.379198254E1,1.203950474E1,-2.814527083E1,6.407490594E0,3.127557961E1
1.380195654E1,1.341350686E1,-3.025064736E1,7.942251971E0,3.403091533E1
1.381193054E1,1.333164818E1,-2.882602472E1,7.397637627E0,3.260977748E1
1.382190454E1,1.446481635E1,-2.771205764E1,1.065978404E1,3.302756495E1
1.383187854E1,1.495686306E1,-2.462311394E1,1.414981983E1,3.209708544E1
1.384185354E1,1.499965649E1,-2.268851119E1,1.377754047E1,3.048899566E1
1.385182754E1,1.628427925E1,-2.113484985E1,1.122475955E1,2.894572258E1
1.386180154E1,1.692044695E1,-1.750758108E1,8.458919547E0,2.577538051E1
1.387177554E1,1.518698842E1,-1.286822710E1,5.497218280E0,2.065079405E1
1.388174954E1,1.231166339E1,-8.778166997E0,2.980652093E0,1.541160466E1
1.389172454E1,9.666345021E0,-5.404373851E0,3.096660559E-1,1.107887069E1
1.390169854E1,7.348350862E0,-1.956135710E0,-2.432198321E0,7.983753251E0
1.391167254E1,5.544222878E0,8.803655595E-1,-4.549467361E0,7.225725161E0
1.392164654E1,3.924823054E0,3.110359708E0,-5.629127373E0,7.534298142E0
1.393162054E1,2.288310769E0,5.164639764E0,-6.125961193E0,8.332902892E0
1.394159554E1,6.759632725E-1,7.299711968E0,-5.910267348E0,9.416686322E0
1.395156954E1,-7.992056215E-1,9.289276795E0,-5.325918251E0,1.073754153E1
1.396154354E1,-2.111904951E0,1.073724444E1,-5.087035518E0,1.206758017E1
1.397151754E1,-3.210951113E0,1.173317963E1,-4.770240390E0,1.306648020E1
1.398149154E1,-4.031441769E0,1.226939504E1,-4.187664461E0,1.357671208E1
1.399146654E1,-4.596535401E0,1.226502366E1,-3.918918243E0,1.367175421E1
1.400144054E1,-4.812074295E0,1.200655100E1,-3.794088083E0,1.347992694E1
1.401141454E1,-4.816866673E0,1.176929204E1,-3.562945894E0,1.320655228E1
1.402138854E1,-4.916859323E0,1.141217451E1,-3.242951463E0,1.284250625E1
1.403136254E1,-5.098188497E0,1.090882748E1,-2.886905438E0,1.238257913E1
1.404133754E1,-5.224529285E0,1.026667690E1,-2.530915840E0,1.179431625E1
1.405131154E1,-5.275067355E0,9.634779997E0,-2.248198285E0,1.121203446E1
1.406128554E1,-5.200514186E0,9.130608505E0,-2.165319850E0,1.072855859E1
1.407125954E1,-5.118705207E0,8.718365768E0,-2.151488847E0,1.033634118E1
1.408123354E1,-5.041861099E0,8.404174406E0,-2.011047059E0,1.000473993E1
1.409120854E1,-4.888987985E0,8.176499616E0,-1.849581023E0,9.704550450E0
1.410118254E1,-4.487331047E0,7.975699798E0,-1.786397033E0,9.324116128E0
1.411115654E1,-4.106190820E0,7.986055802E0,-1.683435606E0,9.136292780E0
1.412113054E1,-3.948113099E0,8.152313193E0,-1.512233809E0,9.183390362E0
1.413110454E1,-3.865392539E0,8.337968722E0,-1.428449056E0,9.300723015E0
1.414107954E1,-3.892110806E0,8.472549407E0,-1.371116083E0,9.424042619E0
1.415105354E1,-3.968752016E0,8.591048495E0,-1.329115095E0,9.556341022E0
1.416102754E1,-4.046894791E0,8.620900285E0,-1.212409202E0,9.600375786E0
1.417100154E1,-4.142329536E0,8.541631921E0,-1.029667194E0,9.548747792E0
1.418097554E1,-4.212240601E0,8.383054263E0,-8.395303595E-1,9.419308938E0
1.419095054E1,-4.254024219E0,8.053701655E0,-7.135311945E-1,9.136080077E0
1.420092454E1,-4.144600010E0,7.495053994E0,-6.503252783E-1,8.589322825E0
1.421089854E1,-3.859335408E0,6.752146534E0,-6.426274189E-1,7.803776177E0
1.422087254E1,-3.395279909E0,5.493525764E0,-7.975587532E-1,6.507138460E0
1.423084654E1,-2.553735183E0,3.349137776E0,-1.000055286E0,4.328787106E0
1.424082154E1,-9.145074517E-1,8.422738731E-2,-1.322410093E0,1.610026890E0
1.425079554E1,1.748911557E0,-4.747759600E0,-1.658306758E0,5.324461866E0
1.426076954E1,5.166964617E0,-1.128185879E1,-7.997109671E-1,1.243452446E1
1.427074354E1,9.064816219E0,-1.819093114E1,2.546210986E0,2.048326290E1
1.428071754E1,1.161106170E1,-2.228694313E1,6.260345997E0,2.589819530E1
1.429069254E1,1.161040331E1,-2.297750163E1,6.040398887E0,2.644340116E1
1.430066654E1,1.315771339E1,-2.485748672E1,5.836482503E0,2.872428581E1
1.431064054E1,1.679315073E1,-2.626566932E1,9.020934620E0,3.245416087E1
1.432061454E1,1.882457402E1,-2.492998283E1,1.144095918E1,3.326806544E1
1.433058854E1,1.875190131E1,-2.257388939E1,1.075771671E1,3.125608347E1
1.434056354E1,1.817702880E1,-1.999250506E1,8.801451194E0,2.841777925E1
1.435053754E1,1.685370800E1,-1.671277490E1,6.732023342E0,2.467153130E1
1.436051154E1,1.421149158E1,-1.248852880E1,5.232908930E0,1.962939582E1
1.437048554E1,1.132130644E1,-8.434084668E0,4.014738028E0,1.467732554E1
1.438045954E1,8.623079542E0,-4.932959631E0,2.593959349E0,1.026743476E1
1.439043454E1,6.313242248E0,-1.924045022E0,1.157406052E0,6.700639201E0
1.440040854E1,4.518417769E0,6.578187776E-1,9.177190349E-2,4.566973479E0
1.441038254E1,2.881476299E0,2.702618158E0,-5.926438116E-1,3.994781252E0
1.442035654E1,1.230605591E0,4.166470935E0,-8.734287152E-1,4.431337033E0
1.443033054E1,-5.877176785E-1,5.548101920E0,-1.030235836E0,5.673467447E0
1.444030554E1,-2.344875564E0,7.025636013E0,-1.506916497E0,7.558359619E0
1.445027954E1,-3.802553682E0,8.367577853E0,-2.191402818E0,9.448704669E0
1.446025354E1,-4.965868930E0,9.361993938E0,-2.883818401E0,1.098285907E1
1.447022754E1,-5.930734357E0,9.931313353E0,-3.834407266E0,1.218635606E1
1.448020154E1,-6.727577119E0,9.907482440E0,-5.018217298E0,1.298464505E1
1.449017654E1,-7.554463459E0,9.648416288E0,-5.948806347E0,1.362167948E1
1.450015054E1,-8.459851593E0,9.603313206E0,-7.533413483E0,1.485075864E1
1.451012454E1,-8.701114143E0,9.266364480E0,-1.049188709E1,1.648194748E1
1.452009854E1,-8.023193808E0,9.019305001E0,-1.235495150E1,1.727322576E1
1.453007254E1,-6.862387599E0,9.325198579E0,-1.146272369E1,1.629250523E1
1.454004754E1,-5.591866575E0,9.330596144E0,-9.238244051E0,1.427144524E1
1.455002154E1,-4.987348677E0,8.535830314E0,-7.218588867E0,1.224099960E1
1.455999554E1,-4.891312253E0,7.526074643E0,-5.526174277E0,1.054065165E1
1.456996954E1,-4.205844331E0,7.201998562E0,-4.293944914E0,9.380611534E0
1.457994567E1,-3.647774960E0,7.290589142E0,-3.672702810E0,8.941347668E0
1.458991967E1,-3.274548939E0,7.344681734E0,-3.540906569E0,8.786639850E0
1.459989467E1,-2.950876901E0,7.321937234E0,-3.278023939E0,8.547741239E0
1.460986867E1,-2.814752551E0,7.309332976E0,-2.765120215E0,8.306327124E0
1.461984267E1,-2.906259722E0,7.256001107E0,-2.176985338E0,8.113887034E0
1.462981667E1,-3.253973172E0,7.136422623E0,-1.654563809E0,8.015887391E0
1.463979067E1,-3.725002061E0,7.045684361E0,-1.380063347E0,8.088379523E0
1.464976567E1,-4.198256984E0,6.962420011E0,-1.395477192E0,8.249121814E0
1.465973967E1,-4.701253186E0,6.748815376E0,-1.561408308E0,8.371755276E0
1.466971367E1,-5.128952453E0,6.397853798E0,-1.680792372E0,8.370409158E0
1.467968767E1,-5.408665123E0,6.003080787E0,-1.746910348E0,8.266942186E0
1.468966167E1,-5.634633695E0,5.629114509E0,-1.871860376E0,8.181680041E0
1.469963567E1,-5.762418746E0,5.218150558E0,-2.186336790E0,8.075557790E0
1.470961067E1,-5.711852025E0,4.522933574E0,-2.550943138E0,7.719423072E0
1.471958467E1,-5.299983510E0,3.306917955E0,-2.801069190E0,6.846277834E0
1.472955867E1,-4.101631746E0,1.144238707E0,-2.888481555E0,5.145482571E0
1.473953267E1,-1.888509738E0,-2.196705365E0,-2.779770414E0,4.014860776E0
1.474950667E1,1.467838824E0,-6.933268717E0,-2.245830163E0,7.434279994E0
1.475948167E1,6.835221435E0,-1.334986459E1,-5.658631253E-1,1.500864211E1
1.476945567E1,1.319678215E1,-1.965818232E1,3.622106853E0,2.395242888E1
1.477942967E1,1.692963293E1,-2.273337804E1,8.514683858E0,2.959592522E1
1.478940367E1,1.658074711E1,-2.411233392E1,1.054559376E1,3.110523059E1
1.479937767E1,1.527780386E1,-2.486695453E1,1.104823328E1,3.120641243E1
1.480935267E1,1.481728534E1,-2.345084076E1,1.216031640E1,3.028806980E1
1.481932667E1,1.547951760E1,-2.164465221E1,1.275225460E1,2.950807401E1
1.482930067E1,1.691797358E1,-2.051520638E1,1.195450142E1,2.915478738E1
1.483927467E1,1.807337404E1,-1.829483148E1,9.902576627E0,2.755737164E1
1.484924867E1,1.714594249E1,-1.431139945E1,7.551453897E0,2.357591894E1
1.485922267E1,1.425126551E1,-9.588292878E0,5.566999537E0,1.805617382E1
1.486919767E1,1.131043296E1,-5.810981627E0,3.909513289E0,1.330329641E1
1.487917167E1,8.897309863E0,-2.775122463E0,1.791530743E0,9.490680159E0
1.488914567E1,6.573391305E0,-1.114303887E-2,-3.692845590E-1,6.583765526E0
1.489911967E1,3.991987681E0,2.269975655E0,-2.277729063E0,5.126090597E0
1.490909367E1,1.372425714E0,3.889427519E0,-3.602595279E0,5.476302722E0
1.491906867E1,-7.117739600E-1,5.146647297E0,-4.401468486E0,6.809370411E0
1.492904267E1,-2.068908620E0,6.423028400E0,-4.681253077E0,8.212783150E0
1.493901667E1,-2.782724428E0,7.868599858E0,-4.390690898E0,9.430619573E0
1.494899067E1,-2.949581158E0,9.561994441E0,-4.389233479E0,1.092689971E1
1.495896467E1,-3.958451561E0,1.084943848E1,-5.860143262E0,1.295071168E1
1.496893867E1,-5.811381576E0,1.147181143E1,-6.829222192E0,1.456066239E1
1.497891367E1,-7.079864261E0,1.110415956E1,-6.897715307E0,1.486624748E1
1.498888767E1,-7.236926905E0,9.947770926E0,-6.124995818E0,1.374215526E1
1.499886167E1,-7.113099250E0,9.011044639E0,-5.341427405E0,1.266198852E1
1.500883567E1,-7.142746387E0,8.613046305E0,-4.901956232E0,1.221607824E1
1.501880967E1,-7.046638042E0,8.148981450E0,-4.538137796E0,1.168998294E1
1.502878367E1,-6.742761753E0,7.510666060E0,-4.015758660E0,1.086283841E1
1.503875867E1,-6.429330529E0,7.044866921E0,-3.576088973E0,1.018601263E1
1.504873267E1,-6.217244416E0,6.889821566E0,-3.398766896E0,9.883085841E0
1.505870667E1,-5.983953960E0,6.706711915E0,-3.200868174E0,9.541134459E0
1.506868067E1,-5.735850753E0,6.524871109E0,-2.794886636E0,9.126079013E0
1.507865467E1,-5.524614240E0,6.499667856E0,-2.402664181E0,8.862270584E0
1.508862967E1,-5.274551046E0,6.468012784E0,-2.101438142E0,8.606516158E0
1.509860367E1,-5.097595589E0,6.409486248E0,-1.835264992E0,8.392567685E0
1.510857767E1,-4.943820834E0,6.478700325E0,-1.577997151E0,8.300903406E0
1.511855167E1,-4.914602882E0,6.587450350E0,-1.403890458E0,8.337789397E0
1.512852567E1,-4.917853934E0,6.661866109E0,-1.383772820E0,8.395270966E0
1.513849967E1,-5.102642321E0,6.647159777E0,-1.388131627E0,8.494033269E0
1.514847467E1,-5.460724638E0,6.567865101E0,-1.438859731E0,8.661794438E0
1.515844867E1,-5.892813410E0,6.476024639E0,-1.604179814E0,8.901546937E0
1.516842267E1,-6.194115754E0,6.184236884E0,-1.874311821E0,8.951251343E0
1.517839667E1,-6.077658514E0,5.532638959E0,-2.070937896E0,8.475659894E0
1.518837067E1,-5.901226968E0,5.136922207E0,-2.189782554E0,8.124505962E0
1.519834467E1,-5.787098674E0,4.769486684E0,-2.429468110E0,7.882945490E0
1.520831967E1,-5.465373759E0,3.909981067E0,-2.596260813E0,7.204084430E0
1.521829367E1,-4.666578612E0,2.451510066E0,-2.667312962E0,5.907742038E0
1.522826767E1,-3.055147959E0,1.507704556E-1,-2.633880922E0,4.036581412E0
1.523824167E1,-2.666786420E-1,-3.397259191E0,-2.272228587E0,4.095791775E0
1.524821567E1,4.105300289E0,-8.506556228E0,-1.373426757E0,9.544699596E0
1.525819067E1,9.365377722E0,-1.429893201E1,8.072429118E-1,1.711202495E1
1.526816467E1,1.340854257E1,-1.791267267E1,4.538012373E0,2.283082155E1
1.527813867E1,1.482008616E1,-1.924892868E1,6.932115061E0,2.526282700E1
1.528811267E1,1.545982535E1,-2.209656714E1,7.028079565E0,2.786859131E1
1.529808667E1,1.745815106E1,-2.526303088E1,7.875293750E0,3.170217689E1
1.530806067E1,1.908260814E1,-2.433565312E1,9.857680535E0,3.245833963E1
1.531803567E1,1.966497444E1,-2.123091493E1,1.047734272E1,3.077722663E1
1.532800967E1,1.931726041E1,-1.810170497E1,9.635977507E0,2.817233279E1
1.533798367E1,1.790601854E1,-1.482119011E1,8.451269635E0,2.473291602E1
1.534795767E1,1.580533615E1,-1.173667627E1,7.562724990E0,2.108916855E1
1.535793167E1,1.362661097E1,-8.193817899E0,7.005732091E0,1.737536936E1
1.536790567E1,1.123250712E1,-4.519323503E0,6.389207520E0,1.368997713E1
1.537788067E1,8.894825381E0,-1.499500328E0,5.113830383E0,1.036907329E1
1.538785467E1,6.958871920E0,9.732070649E-1,3.409137810E0,7.809945646E0
1.539782867E1,5.052859712E0,3.197134143E0,1.891770730E0,6.271511340E0
1.540780267E1,3.202230576E0,4.952564760E0,5.474851803E-1,5.922999104E0
1.541777667E1,1.430524818E0,6.261413113E0,-8.702412517E-1,6.481436204E0
1.542775067E1,-2.894675803E-1,7.292547374E0,-2.089779087E0,7.591588458E0
1.543772567E1,-1.696707031E0,8.198385159E0,-3.093638718E0,8.925409486E0
1.544769967E1,-2.893423330E0,9.292117957E0,-3.427064788E0,1.031795172E1
1.545767367E1,-4.087002597E0,1.021917763E1,-4.622716309E0,1.193753273E1
1.546764767E1,-5.416945365E0,1.029713154E1,-7.402902460E0,1.379047424E1
1.547762167E1,-6.491832002E0,9.693370852E0,-1.006262778E1,1.540655053E1
1.548759567E1,-6.470967382E0,9.328226268E0,-1.094079420E1,1.576674354E1
1.549757067E1,-6.227276484E0,9.356611576E0,-1.042096855E1,1.532715688E1
1.550754467E1,-6.167677569E0,9.053081442E0,-9.394244841E0,1.443088238E1
1.551751867E1,-6.157077152E0,8.458639466E0,-8.119396293E0,1.324321626E1
1.552749267E1,-6.343996264E0,7.937986427E0,-6.654589249E0,1.214666519E1
1.553746667E1,-6.575398069E0,7.925473385E0,-5.647449038E0,1.174489969E1
1.554744067E1,-6.245823852E0,8.079349297E0,-5.306884394E0,1.150865859E1
1.555741567E1,-5.423281408E0,8.032383292E0,-5.074517214E0,1.093992173E1
1.556738967E1,-4.716471734E0,8.078012624E0,-4.694445565E0,1.046600271E1
1.557735829E1,-4.275559514E0,8.283130025E0,-4.102016785E0,1.018416388E1
1.558733229E1,-3.883552237E0,8.547830554E0,-3.531629084E0,1.003094159E1
1.559730629E1,-3.545345190E0,8.560244778E0,-3.110902622E0,9.773688060E0
1.560728029E1,-3.380023938E0,8.522285823E0,-2.735441211E0,9.567473862E0
1.561725529E1,-3.334740177E0,8.502312904E0,-2.566982928E0,9.486791771E0
1.562722929E1,-3.477988774E0,8.369664139E0,-2.710525640E0,9.460160303E0
1.563720329E1,-3.831585107E0,8.147542450E0,-3.074185031E0,9.513890162E0
1.564717729E1,-4.078374445E0,7.698923600E0,-3.350476788E0,9.334466103E0
1.565715129E1,-4.174623123E0,7.004419391E0,-3.424923538E0,8.844177207E0
1.566712529E1,-4.279558425E0,6.425539779E0,-3.292219225E0,8.392907076E0
1.567710029E1,-4.421082094E0,5.950341241E0,-3.053707205E0,8.017334685E0
1.568707429E1,-4.380555042E0,5.330843360E0,-2.917162733E0,7.491127540E0
1.569704829E1,-4.070608174E0,4.344713949E0,-2.881736792E0,6.614438536E0
1.570702229E1,-3.228015627E0,2.669171500E0,-2.675783823E0,4.970350134E0
1.571699629E1,-1.590993465E0,5.416041970E-2,-2.345093957E0,2.834371046E0
1.572697029E1,9.013120401E-1,-3.837939861E0,-1.892058705E0,4.372874560E0
1.573694529E1,4.727505430E0,-9.507720585E0,-6.556357196E-1,1.063841701E1
1.574691929E1,9.704965296E0,-1.608708424E1,2.701048765E0,1.898094558E1
1.575689329E1,1.355805003E1,-2.081517790E1,7.010051429E0,2.581149303E1
1.576686729E1,1.418570536E1,-2.291709990E1,8.490536027E0,2.825804144E1
1.577684129E1,1.565164559E1,-2.639444840E1,7.698357589E0,3.163709256E1
1.578681529E1,1.858156841E1,-2.801801203E1,9.518632075E0,3.494120832E1
1.579678929E1,1.963952970E1,-2.489032234E1,1.202550416E1,3.390946805E1
1.580676429E1,1.871896512E1,-2.162488395E1,1.203029069E1,3.102842495E1
1.581673829E1,1.745761779E1,-1.845848102E1,1.125045573E1,2.778590820E1
1.582671229E1,1.598728981E1,-1.509893637E1,1.063087540E1,2.442512695E1
1.583668629E1,1.394193611E1,-1.165969884E1,9.898565437E0,2.069559754E1
1.584666029E1,1.165741375E1,-7.967268698E0,8.524601321E0,1.649368041E1
1.585663529E1,9.503024102E0,-4.304318460E0,6.815933225E0,1.246160384E1
1.586660929E1,7.749651119E0,-1.388872177E0,4.220010965E0,8.932779575E0
1.587658329E1,6.215685548E0,7.732410604E-1,1.412260893E0,6.420835569E0
1.588655729E1,4.537040566E0,2.954014517E0,-1.356533566E0,5.581319036E0
1.589653129E1,2.993601336E0,4.978317068E0,-4.191367503E0,7.163298914E0
1.590650529E1,1.719017667E0,6.355373776E0,-6.341871386E0,9.141396515E0
1.591647929E1,2.445469308E-1,7.774020560E0,-7.652725334E0,1.091143455E1
1.592645429E1,-1.295430747E0,9.458790500E0,-8.680816119E0,1.290362069E1
1.593642829E1,-2.731442592E0,1.098301461E1,-8.872122982E0,1.438061037E1
1.594640229E1,-3.801082522E0,1.182340802E1,-8.279950894E0,1.492644607E1
1.595637629E1,-4.346022556E0,1.183013582E1,-7.541797805E0,1.468736667E1
1.596635029E1,-4.687756058E0,1.125250576E1,-6.790803646E0,1.395381514E1
1.597632429E1,-5.177216540E0,1.086279586E1,-6.327894201E0,1.359581369E1
1.598629829E1,-5.657831939E0,1.071696981E1,-6.330288051E0,1.367249249E1
1.599627329E1,-6.124942024E0,1.003951725E1,-6.524186985E0,1.344886007E1
1.600624729E1,-6.512900105E0,9.216573100E0,-6.423175750E0,1.298538695E1
1.601622129E1,-6.829836150E0,8.703555356E0,-5.954459435E0,1.256400115E1
1.602619529E1,-7.052931401E0,8.309198082E0,-5.312295408E0,1.212464831E1
1.603616929E1,-6.990270299E0,7.953616619E0,-4.519374958E0,1.151297729E1
1.604614329E1,-6.617388094E0,7.623337228E0,-3.837032666E0,1.079944051E1
1.605611829E1,-6.146096081E0,7.425441722E0,-3.230828723E0,1.016611706E1
1.606609229E1,-5.723511373E0,7.481771459E0,-2.677422213E0,9.793062663E0
1.607606629E1,-5.420028017E0,7.721451752E0,-2.204001813E0,9.687886501E0
1.608604029E1,-5.073046639E0,7.745008430E0,-2.009324323E0,9.474087925E0
1.609601429E1,-4.696511094E0,7.521765245E0,-2.102430415E0,9.113417718E0
1.610598829E1,-4.618727923E0,7.270730243E0,-2.052689905E0,8.854925282E0
1.611596229E1,-4.703081610E0,7.171859674E0,-1.717245376E0,8.746626750E0
1.612593729E1,-4.729356658E0,7.141627815E0,-1.373991744E0,8.675108965E0
1.613591129E1,-4.664265454E0,7.095059420E0,-1.150733795E0,8.568513795E0
1.614588529E1,-4.597267472E0,6.966590829E0,-9.282994254E-1,8.398213847E0
1.615585929E1,-4.571409915E0,6.800650942E0,-6.803767508E-1,8.222502926E0
1.616583329E1,-4.522915447E0,6.641701986E0,-5.962116364E-1,8.057570213E0
1.617580729E1,-4.487331047E0,6.366605108E0,-7.685043772E-1,7.826902293E0
1.618578129E1,-4.249591445E0,5.673698359E0,-1.127274181E0,7.177787096E0
1.619575629E1,-3.309200708E0,4.069038781E0,-1.465335778E0,5.445649169E0
1.620573029E1,-1.897947729E0,1.488242683E0,-1.636438756E0,2.914618958E0
1.621570429E1,1.945503134E-1,-2.043141110E0,-1.727203915E0,2.682444554E0
1.622567829E1,3.190834937E0,-6.357157177E0,-1.739501048E0,7.322618306E0
1.623565229E1,6.297976338E0,-1.037837509E1,-1.427897371E-1,1.214065749E1
1.624562629E1,9.178084973E0,-1.471034796E1,3.631500989E0,1.771494793E1
1.625560129E1,1.040528865E1,-1.900479339E1,6.790411298E0,2.270598796E1
1.626557529E1,1.031835459E1,-2.140548706E1,6.517450408E0,2.464022073E1
1.627554929E1,1.150892488E1,-2.268010991E1,6.385454777E0,2.622244783E1
1.628552329E1,1.410910567E1,-2.311381894E1,9.414911824E0,2.866977596E1
1.629549729E1,1.587343633E1,-2.208478851E1,1.193895719E1,2.970256829E1
1.630547129E1,1.592762365E1,-1.999613267E1,1.182067971E1,2.816492474E1
1.631544529E1,1.530962909E1,-1.845278817E1,9.294406557E0,2.571528975E1
1.632542029E1,1.416093889E1,-1.649099352E1,6.773449695E0,2.276762347E1
1.633539429E1,1.271289465E1,-1.361242797E1,5.855989400E0,1.952456139E1
1.634536829E1,1.124391503E1,-1.072738604E1,4.910298747E0,1.629765229E1
1.635534229E1,9.561225532E0,-7.826675906E0,3.070049003E0,1.273181410E1
1.636531629E1,8.027459351E0,-4.840309330E0,1.425004900E0,9.481526091E0
1.637529029E1,6.811580558E0,-2.144790861E0,2.688624309E-1,7.146330845E0
1.638526429E1,5.844095578E0,5.869236267E-1,-1.034373911E-1,5.874404801E0
1.639523929E1,4.982136469E0,3.185808671E0,-2.282310064E-1,5.918035998E0
1.640521329E1,4.091232473E0,5.481431968E0,-7.118546516E-1,6.876846414E0
1.641518729E1,2.932756380E0,7.457506099E0,-1.412823688E0,8.137046637E0
1.642516129E1,1.656619105E0,9.123022912E0,-1.948898612E0,9.474816078E0
1.643513529E1,4.192494553E-1,1.043362426E1,-2.155570349E0,1.066221219E1
1.644510929E1,-8.057948488E-1,1.130079909E1,-2.438799535E0,1.158900809E1
1.645508429E1,-1.808778275E0,1.150526101E1,-3.172454507E0,1.207092281E1
1.646505829E1,-2.510956369E0,1.147405092E1,-4.261930239E0,1.249491079E1
1.647503229E1,-3.157049725E0,1.144620063E1,-5.467974601E0,1.307215430E1
1.648500629E1,-3.755468978E0,1.112679530E1,-6.395427788E0,1.337200873E1
1.649498029E1,-4.250329948E0,1.059101727E1,-7.172892877E0,1.347907058E1
1.650495429E1,-4.626846197E0,9.968906271E0,-7.778524670E0,1.346448083E1
1.651492829E1,-4.982604246E0,9.573412299E0,-7.830317552E0,1.333380820E1
1.652490329E1,-5.159854987E0,9.281898778E0,-7.460740778E0,1.297845913E1
1.653487729E1,-5.224401231E0,9.036376532E0,-6.942724249E0,1.253602365E1
1.654485129E1,-5.218291476E0,8.920818594E0,-6.461138213E0,1.218843211E1
1.655482529E1,-5.001390181E0,8.722185754E0,-5.826978439E0,1.162084789E1
1.656479929E1,-4.696283053E0,8.329969146E0,-4.990398585E0,1.078645162E1
1.657477679E1,-4.486450456E0,7.981786750E0,-4.241649756E0,1.009102324E1
1.658475079E1,-4.226847530E0,7.696646109E0,-3.676271658E0,9.519431426E0
1.659472479E1,-4.121128117E0,7.429601431E0,-3.096700612E0,9.042799847E0
1.660469979E1,-4.277595515E0,7.260375409E0,-2.366466408E0,8.752773145E0
1.661467379E1,-4.431591879E0,7.091259899E0,-1.736755196E0,8.540567437E0
