"Time (s)","Linear Acceleration x (m/s^2)","Linear Acceleration y (m/s^2)","Linear Acceleration z (m/s^2)","Absolute acceleration (m/s^2)"
3.310791668E-3,5.339548695E-1,-1.112596500E0,-3.706251794E-1,1.288542509E0
1.328079167E-2,6.537920925E-1,-1.122593485E0,-2.484821069E-1,1.322650214E0
2.325079167E-2,7.927448867E-1,-1.024336873E0,-1.197615016E-1,1.300789492E0
3.322079167E-2,9.010081311E-1,-9.409842288E-1,-5.825230122E-2,1.304093671E0
4.319079166E-2,9.306979533E-1,-8.671777493E-1,-3.488448858E-2,1.272561534E0
5.316079166E-2,9.280770850E-1,-8.029665506E-1,-3.673981011E-2,1.227775293E0
6.313079166E-2,8.804414271E-1,-6.895776370E-1,-5.851834953E-2,1.119874467E0
7.310079166E-2,8.271744619E-1,-5.984189603E-1,-1.409944957E-1,1.030631986E0
8.307079166E-2,8.254502642E-1,-6.339273468E-1,-2.934793550E-1,1.081370497E0
9.304079167E-2,8.750359686E-1,-7.132229000E-1,-5.161863506E-1,1.241298997E0
1.030107917E-1,8.453613491E-1,-7.190288928E-1,-8.018965101E-1,1.369188217E0
1.129807917E-1,7.640653172E-1,-6.964951855E-1,-1.083648105E0,1.497729804E0
1.229507917E-1,7.406299692E-1,-6.877804953E-1,-1.470416862E0,1.784292719E0
1.329207917E-1,6.996003494E-1,-6.957967356E-1,-1.843271000E0,2.090746691E0
1.428907917E-1,6.224115479E-1,-6.673953474E-1,-2.155155635E0,2.340407763E0
1.528597917E-1,5.242422058E-1,-5.998448038E-1,-2.485209324E0,2.609771842E0
1.628297917E-1,4.453524493E-1,-5.684826779E-1,-2.679812847E0,2.775411367E0
1.727997917E-1,3.792314038E-1,-5.242037603E-1,-2.756739401E0,2.831645841E0
1.827697917E-1,3.361785011E-1,-4.208743966E-1,-2.771824633E0,2.823678990E0
1.927397917E-1,3.310616027E-1,-3.008684814E-1,-2.650431758E0,2.687919666E0
2.027097917E-1,3.519912726E-1,-2.289559150E-1,-2.393906806E0,2.430454374E0
2.126797917E-1,3.735236442E-1,-1.769706595E-1,-2.044373703E0,2.085737847E0
2.226497917E-1,4.264823149E-1,4.602928162E-3,-1.712514979E0,1.764827443E0
2.326197917E-1,4.892550986E-1,1.886253297E-1,-1.463779103E0,1.554863122E0
2.425897917E-1,5.882241936E-1,2.207762450E-1,-1.252011078E0,1.400814617E0
2.525597917E-1,6.169821158E-1,2.044095960E-1,-1.142717847E0,1.314630857E0
2.625297917E-1,5.912840416E-1,2.388040879E-1,-1.050027784E0,1.228496055E0
2.724997917E-1,5.371262531E-1,3.612357205E-1,-1.032584955E0,1.218699121E0
2.824697917E-1,4.822853637E-1,4.957286972E-1,-1.065399529E0,1.270205602E0
2.924397917E-1,4.555827378E-1,5.948004109E-1,-1.130685446E0,1.356389597E0
3.024097917E-1,4.705513175E-1,6.366489333E-1,-1.219716321E0,1.454114270E0
3.123797917E-1,4.544685508E-1,6.833000663E-1,-1.305304356E0,1.541836601E0
3.223497917E-1,4.157536975E-1,8.284861386E-1,-1.340412208E0,1.629707123E0
3.323197917E-1,3.316338989E-1,1.002276497E0,-1.223024676E0,1.615651131E0
3.422897917E-1,3.390616170E-1,1.102851238E0,-1.101085086E0,1.594876798E0
3.522597917E-1,3.582080323E-1,1.150873251E0,-8.965442204E-1,1.502202973E0
3.622297917E-1,3.112844190E-1,1.259029783E0,-4.494754672E-1,1.372618731E0
3.721997917E-1,3.114900948E-1,1.331515085E0,8.002148509E-2,1.369803613E0
3.821697917E-1,2.749762796E-1,1.303145564E0,5.117073834E-1,1.426760232E0
3.921397917E-1,2.290051778E-1,1.206487581E0,9.418279821E-1,1.547609641E0
4.021097917E-1,1.943493153E-1,1.035474357E0,1.295417299E0,1.669755904E0
4.120797917E-1,1.479433268E-1,8.792715454E-1,1.479454318E0,1.727365265E0
4.220487917E-1,6.744516576E-2,8.662948197E-1,1.627024008E0,1.844511504E0
4.320187917E-1,-5.274042338E-2,9.165381896E-1,1.877469025E0,2.089907593E0
4.419887917E-1,-1.393036272E-1,9.782040954E-1,2.161765328E0,2.376871491E0
4.519587917E-1,-1.622822893E-1,1.058858834E0,2.519075813E0,2.737382056E0
4.619287917E-1,-1.969258909E-1,1.242781833E0,2.960190346E0,3.216521938E0
4.718987917E-1,-2.127469946E-1,1.339155349E0,3.310881198E0,3.577783202E0
4.818687917E-1,-2.005631514E-1,1.155552485E0,3.536220610E0,3.725638647E0
4.918387917E-1,-1.760510387E-1,7.731422424E-1,3.574788845E0,3.661674232E0
5.018087917E-1,-1.849607335E-1,3.837732285E-1,3.348985748E0,3.375973623E0
5.117787917E-1,-7.789586688E-2,6.153726697E-2,2.908173516E0,2.909867316E0
5.217487917E-1,1.553938490E-1,-2.915760863E-1,2.277656558E0,2.301495874E0
5.317187917E-1,1.771463683E-1,-6.509827977E-1,1.423857238E0,1.575604288E0
5.416887917E-1,-7.323067501E-2,-9.196208417E-1,5.601018637E-1,1.079249425E0
5.516587917E-1,-3.980845812E-1,-9.519536054E-1,-2.677153534E-1,1.066001178E0
5.616287917E-1,-6.902158606E-1,-7.967644089E-1,-9.310562414E-1,1.406448429E0
5.715987917E-1,-1.003296544E0,-6.243192020E-1,-1.366238190E0,1.806373498E0
5.815687917E-1,-1.276094151E0,-3.940570191E-1,-1.528611276E0,2.029864441E0
5.915387917E-1,-1.489910748E0,-1.763222033E-1,-1.377372458E0,2.036683197E0
6.015087917E-1,-1.539479934E0,-8.273254663E-2,-1.105859338E0,1.897305462E0
6.114787917E-1,-1.431555536E0,-1.293064964E-1,-7.934981543E-1,1.641861974E0
6.214487917E-1,-1.148678937E0,-3.258635741E-1,-4.964958519E-1,1.293119677E0
6.314187917E-1,-8.222904289E-1,-6.265408516E-1,-1.671648788E-1,1.047214918E0
6.413887917E-1,-5.662684835E-1,-8.705685496E-1,6.868256450E-2,1.040801081E0
6.513587917E-1,-3.973232737E-1,-9.573005918E-1,2.392236257E-1,1.063728419E0
6.613287917E-1,-3.421454385E-1,-9.552917808E-1,3.225242293E-1,1.064738356E0
6.712987917E-1,-3.598344353E-1,-9.651338142E-1,3.734265804E-1,1.095632927E0
6.812687917E-1,-4.213543068E-1,-9.509595788E-1,2.732129055E-1,1.075411021E0
6.912387917E-1,-4.886376326E-1,-9.398940155E-1,9.018160701E-2,1.063155783E0
7.012036667E-1,-4.642509426E-1,-9.370244944E-1,-1.796948773E-1,1.061053293E0
7.111746667E-1,-4.262111503E-1,-9.722203472E-1,-6.255269444E-1,1.232133234E0
7.211436667E-1,-3.794565216E-1,-9.974119064E-1,-1.128410879E0,1.553102983E0
7.311136667E-1,-3.814856516E-1,-9.748214811E-1,-1.620058220E0,1.928833030E0
7.410836667E-1,-4.317603041E-1,-9.657325691E-1,-2.040985826E0,2.298843078E0
7.510536667E-1,-4.871594565E-1,-9.034053433E-1,-2.357488593E0,2.571228892E0
7.610236667E-1,-5.578439614E-1,-7.818969861E-1,-2.543525945E0,2.718837438E0
7.709936667E-1,-5.790937664E-1,-6.691509739E-1,-2.536520396E0,2.686456464E0
7.809636667E-1,-5.628548791E-1,-5.815362945E-1,-2.466430991E0,2.595818158E0
7.909336667E-1,-5.269798721E-1,-4.666045931E-1,-2.328078852E0,2.432155171E0
8.009036667E-1,-4.693716417E-1,-3.343347278E-1,-2.117552192E0,2.194565272E0
8.108736667E-1,-4.288388890E-1,-2.954861194E-1,-1.945563945E0,2.014059061E0
8.208436667E-1,-4.157053117E-1,-3.053258139E-1,-1.766981792E0,1.840722525E0
8.308136667E-1,-4.238083832E-1,-2.073972309E-1,-1.555528348E0,1.625513949E0
8.407836667E-1,-4.343881890E-1,-1.722180426E-2,-1.430579197E0,1.495174414E0
8.507536667E-1,-4.136606866E-1,1.050598472E-1,-1.226604341E0,1.298734363E0
8.607236667E-1,-3.197099644E-1,1.434681603E-1,-1.029209942E0,1.087230739E0
8.706936667E-1,-2.777393813E-1,2.057222959E-1,-1.020066651E0,1.077031476E0
8.806636667E-1,-2.937442338E-1,3.539199767E-1,-9.868006718E-1,1.088724295E0
8.906336667E-1,-3.287664244E-1,4.500417700E-1,-9.850564474E-1,1.131795547E0
9.006036667E-1,-3.812358293E-1,4.944294459E-1,-1.002576460E0,1.181084583E0
9.105736667E-1,-4.676456898E-1,6.363980877E-1,-8.090096480E-1,1.130571372E0
9.205436667E-1,-5.317301501E-1,8.515159822E-1,-4.940294963E-1,1.118875133E0
9.305136667E-1,-5.835133843E-1,9.570330817E-1,6.653546691E-3,1.120912333E0
9.404836667E-1,-6.554424691E-1,9.827658007E-1,4.582503837E-1,1.267054404E0
9.504536667E-1,-6.264510968E-1,9.727150217E-1,9.886355281E-1,1.521846148E0
9.604236667E-1,-4.038686469E-1,8.668853885E-1,1.530680605E0,1.804877635E0
9.703936667E-1,-2.010406131E-1,7.651414973E-1,2.012347918E0,2.162268018E0
9.803636667E-1,-8.305023316E-2,7.014778903E-1,2.484140453E0,2.582619284E0
9.903336667E-1,1.277762800E-3,7.005242094E-1,2.908904418E0,2.992066295E0
1.000303667E0,-7.138463594E-3,7.274465445E-1,3.058375622E0,3.143706551E0
1.010273667E0,-6.198282480E-2,7.122347206E-1,3.116471218E0,3.197422872E0
1.020242667E0,-1.105027279E-1,6.607692826E-1,3.111119846E0,3.182435167E0
1.030212667E0,-1.059700029E-1,6.774066576E-1,2.918065251E0,2.997534692E0
1.040182667E0,-6.317068666E-2,6.738728929E-1,2.748638669E0,2.830743673E0
1.050152667E0,-2.419928670E-2,5.974836981E-1,2.658232529E0,2.724660080E0
1.060122667E0,9.699726775E-2,4.890359741E-1,2.741858237E0,2.786817405E0
1.070092667E0,3.052440991E-1,3.109683770E-1,2.802053568E0,2.835732620E0
1.080062667E0,4.770054376E-1,9.779088110E-2,2.720448073E0,2.763681414E0
1.090032667E0,5.616544091E-1,-1.444952238E-1,2.499189432E0,2.565595908E0
1.100002667E0,6.487583707E-1,-3.961392125E-1,1.982472154E0,2.123207372E0
1.109972667E0,6.604145028E-1,-7.324473757E-1,1.302031084E0,1.633374243E0
1.119942667E0,6.019584261E-1,-9.887881404E-1,5.006935680E-1,1.261249374E0
1.129912667E0,4.897785340E-1,-1.130605047E0,-2.142606926E-1,1.250623216E0
1.139882667E0,3.798907870E-1,-1.126568714E0,-7.718447453E-1,1.417469008E0
1.149852667E0,3.220229767E-1,-9.739929307E-1,-1.104408644E0,1.507341859E0
1.159822667E0,3.602817473E-1,-8.687436336E-1,-1.289450215E0,1.595995080E0
1.169792667E0,4.493357188E-1,-8.587998587E-1,-1.253992699E0,1.584909296E0
1.179762667E0,5.098650719E-1,-7.870872670E-1,-1.075018199E0,1.426580837E0
1.189732667E0,6.226623935E-1,-6.434910527E-1,-8.747943324E-1,1.251820400E0
1.199702667E0,8.503452234E-1,-5.803583729E-1,-5.099894714E-1,1.148909092E0
1.209672667E0,1.069595199E0,-5.854162145E-1,-8.124823093E-2,1.222025903E0
1.219642667E0,1.155861876E0,-6.122242364E-1,2.603724200E-1,1.333652499E0
1.229612667E0,1.087888140E0,-6.415372056E-1,5.735375959E-1,1.387089026E0
1.239582667E0,8.927290584E-1,-6.671971267E-1,7.099905592E-1,1.321440037E0
1.249552667E0,6.887616581E-1,-7.166753885E-1,6.814754426E-1,1.205165969E0
1.259522667E0,5.186914439E-1,-7.428750077E-1,4.343019426E-1,1.004749854E0
1.269492667E0,3.735214515E-1,-7.573006734E-1,1.554587531E-1,8.585976989E-1
1.279462667E0,2.580443510E-1,-7.313650560E-1,-1.905087179E-1,7.986083545E-1
1.289432667E0,1.928958437E-1,-6.383925730E-1,-6.823197806E-1,9.541038553E-1
1.299402667E0,1.747870168E-1,-5.449464655E-1,-1.135535127E0,1.271596310E0
1.309372667E0,1.947739694E-1,-4.720278856E-1,-1.612228214E0,1.691161446E0
1.319342667E0,2.487054706E-1,-4.073275673E-1,-2.014818951E0,2.070571314E0
1.329312667E0,3.492821114E-1,-3.485779604E-1,-2.363870829E0,2.414827092E0
1.339282667E0,4.773753105E-1,-2.017546678E-1,-2.635060013E0,2.685541548E0
1.349252667E0,6.603240171E-1,-2.482435405E-2,-2.665930388E0,2.746603155E0
1.359221667E0,8.079037933E-1,9.309527457E-2,-2.581362108E0,2.706437807E0
1.369191667E0,9.247399329E-1,1.709705392E-1,-2.514919027E0,2.684993963E0
1.379161667E0,1.023447511E0,2.610851955E-1,-2.326053962E0,2.554630564E0
1.389131667E0,1.036717182E0,3.291812843E-1,-2.125410265E0,2.387574423E0
1.399101667E0,9.747383045E-1,3.159887964E-1,-2.004553580E0,2.251266029E0
1.409071667E0,8.129500866E-1,2.727904442E-1,-1.778288553E0,1.974237232E0
1.419041667E0,5.979444587E-1,3.085537693E-1,-1.684730179E0,1.814127554E0
1.429011667E0,4.369141862E-1,3.063698342E-1,-1.660389975E0,1.744033070E0
1.438981667E0,3.040724632E-1,2.381109005E-1,-1.556035302E0,1.603247555E0
1.448951667E0,2.839391658E-1,2.423808298E-1,-1.584401314E0,1.627789127E0
1.458921667E0,3.158436392E-1,3.045697689E-1,-1.630086195E0,1.688105729E0
1.468891667E0,3.864866289E-1,3.607474780E-1,-1.602980842E0,1.687915352E0
1.478861667E0,4.680720980E-1,4.429350641E-1,-1.603079075E0,1.727757356E0
1.488831667E0,5.905502160E-1,5.285239756E-1,-1.480120316E0,1.678941125E0
1.498801667E0,7.637004510E-1,6.979353547E-1,-1.355333133E0,1.705074790E0
1.508771667E0,8.027471338E-1,8.409746218E-1,-1.250290242E0,1.707298148E0
1.518741667E0,7.152846283E-1,8.628841388E-1,-8.827687651E-1,1.426703133E0
1.528711667E0,5.766436368E-1,8.375911304E-1,-4.848066831E-1,1.126549735E0
1.538681667E0,5.363664074E-1,7.806500673E-1,-1.648745245E-1,9.613984915E-1
1.548651667E0,5.682965903E-1,6.746415094E-1,2.331857908E-1,9.124022105E-1
1.558621667E0,6.245491438E-1,6.306371185E-1,7.571869451E-1,1.166660567E0
1.568591667E0,7.445563745E-1,5.844324204E-1,1.175568089E0,1.509266637E0
1.578561667E0,8.251099563E-1,5.633967698E-1,1.497539756E0,1.800235452E0
1.588531667E0,7.869026412E-1,6.072108337E-1,1.725926737E0,1.991668613E0
1.598501667E0,6.196078080E-1,6.711685556E-1,1.919905193E0,2.126127234E0
1.608471667E0,4.746886611E-1,7.618445447E-1,2.085617039E0,2.270580293E0
1.618441667E0,3.890876167E-1,8.958074713E-1,2.140779086E0,2.353039586E0
1.628411667E0,2.314082372E-1,1.011050245E0,2.229436909E0,2.458894325E0
1.638381667E0,-1.260864347E-2,1.067810336E0,2.419128771E0,2.644345269E0
1.648351667E0,-2.337154023E-1,9.801161349E-1,2.722132071E0,2.902628729E0
1.658321667E0,-3.610994804E-1,7.960223973E-1,2.975927542E0,3.101642989E0
1.668291667E0,-4.667481422E-1,6.243177402E-1,2.960092698E0,3.061008861E0
1.678260667E0,-6.472151443E-1,3.314225221E-1,2.665048628E0,2.762464936E0
1.688230667E0,-7.404840812E-1,-1.742537507E-1,2.190462878E0,2.318794657E0
1.698200708E0,-7.694476792E-1,-6.549822932E-1,1.375978482E0,1.707152107E0
1.708170708E0,-8.187971561E-1,-9.226494071E-1,4.158697647E-1,1.301790449E0
1.718140708E0,-9.656198640E-1,-1.001999632E0,-3.233212048E-1,1.428622268E0
1.728110708E0,-1.189516622E0,-8.181292579E-1,-9.092157215E-1,1.706153130E0
1.738080708E0,-1.436511928E0,-5.225095296E-1,-1.167257441E0,1.923297341E0
1.748050708E0,-1.751471761E0,-2.400586081E-1,-1.009966171E0,2.036004207E0
1.758020708E0,-1.981567590E0,7.739988595E-2,-5.136305326E-1,2.048515848E0
1.767990708E0,-2.026231401E0,3.370352644E-1,-5.525267959E-2,2.054813694E0
1.777960708E0,-1.837557393E0,2.560919657E-1,3.514369565E-1,1.888308291E0
1.787930708E0,-1.507466574E0,-1.317167187E-1,6.977821577E-1,1.666344714E0
1.797900708E0,-1.142496968E0,-6.477557194E-1,9.482283443E-1,1.619883881E0
1.807870708E0,-8.235440719E-1,-1.013529172E0,1.039518583E0,1.669151013E0
1.817840708E0,-7.044661099E-1,-1.097994248E0,9.430845487E-1,1.609742941E0
1.827810708E0,-8.282519576E-1,-9.504912168E-1,7.943231964E-1,1.490095366E0
1.837780708E0,-1.056590114E0,-8.349098897E-1,4.902112645E-1,1.433096046E0
1.847750708E0,-1.258868693E0,-7.734851816E-1,1.772098106E-1,1.488097117E0
1.857720708E0,-1.248452024E0,-7.144899917E-1,-2.095753187E-1,1.453633454E0
1.867690708E0,-1.151546411E0,-6.314180142E-1,-6.041249657E-1,1.445584595E0
1.877660708E0,-1.023208945E0,-4.623296937E-1,-1.002429695E0,1.505181246E0
1.887630708E0,-8.353314739E-1,-3.509019363E-1,-1.370559867E0,1.642968408E0
1.897600708E0,-6.464873122E-1,-4.428435552E-1,-1.622998785E0,1.802271155E0
1.907570708E0,-5.611286348E-1,-4.969045722E-1,-1.862220656E0,2.007397637E0
1.917540708E0,-5.539367057E-1,-4.680254665E-1,-2.074458212E0,2.197560144E0
1.927510708E0,-5.712023641E-1,-5.776780093E-1,-2.186376259E0,2.332429027E0
1.937480708E0,-6.201232401E-1,-7.006683433E-1,-2.413442354E0,2.588473093E0
1.947450708E0,-7.009583652E-1,-7.148852634E-1,-2.622130065E0,2.806772105E0
1.957420708E0,-7.668354356E-1,-7.239870393E-1,-2.782655430E0,2.975796543E0
1.967390708E0,-8.572987323E-1,-7.153395921E-1,-2.872828851E0,3.082177389E0
1.977360708E0,-9.110099396E-1,-5.325550461E-1,-2.854437019E0,3.043249034E0
1.987330708E0,-9.210946324E-1,-3.179832816E-1,-2.731305183E0,2.899923566E0
1.997300708E0,-8.569072612E-1,-2.549497122E-1,-2.460824096E0,2.618194921E0
2.007270708E0,-6.619263004E-1,-3.442659312E-1,-2.118032248E0,2.245601492E0
2.017239708E0,-4.624080464E-1,-4.521491066E-1,-1.700611217E0,1.819433573E0
2.027209708E0,-3.792411979E-1,-4.557980615E-1,-1.356420715E0,1.480355672E0
2.037179708E0,-3.850292104E-1,-3.852286005E-1,-1.005873120E0,1.143865945E0
2.047149708E0,-4.714598286E-1,-4.117936707E-1,-6.871788168E-1,9.295499575E-1
2.057119708E0,-5.658843580E-1,-4.684575757E-1,-4.604185313E-1,8.669849081E-1
2.067089708E0,-6.464940365E-1,-4.213983071E-1,-2.379278827E-1,8.075523201E-1
2.077059708E0,-6.345730256E-1,-3.554762131E-1,7.464029253E-2,7.311753799E-1
2.087029708E0,-5.646523131E-1,-2.703927934E-1,3.511293930E-1,7.177996573E-1
2.096999708E0,-5.351256283E-1,-2.453491688E-1,6.542432052E-1,8.801078480E-1
2.106969708E0,-4.049461426E-1,-2.907443199E-1,1.101938195E0,1.209455011E0
2.116939708E0,-2.265613340E-1,-3.367057738E-1,1.437366060E0,1.493560178E0
2.126909708E0,-8.196699992E-2,-2.528602096E-1,1.775319337E0,1.795108806E0
2.136879708E0,-6.957601905E-3,-7.057647765E-2,2.156178898E0,2.157344870E0
2.146849708E0,4.642583247E-2,2.472553611E-1,2.440669329E0,2.453600893E0
2.156819708E0,1.397636203E-1,5.056444055E-1,2.599085603E0,2.651500728E0
2.166789708E0,3.084891576E-1,5.918960989E-1,2.638039754E0,2.721168921E0
2.176759708E0,4.361905932E-1,5.720886558E-1,2.711486630E0,2.805299878E0
2.186729708E0,5.068995103E-1,5.491319025E-1,2.722434372E0,2.823143969E0
2.196699708E0,5.177390422E-1,5.829694471E-1,2.626759306E0,2.740031303E0
2.206669708E0,4.768190941E-1,6.920852154E-1,2.541112214E0,2.676488311E0
2.216639708E0,4.928233254E-1,7.613054314E-1,2.481508037E0,2.642033862E0
2.226609708E0,5.763004053E-1,7.179234767E-1,2.557313679E0,2.717975263E0
2.236579708E0,6.219468404E-1,5.847876388E-1,2.660648013E0,2.794251654E0
2.246549708E0,6.546358457E-1,5.553574330E-1,2.637805865E0,2.773984454E0
2.256519708E0,6.914901151E-1,4.501999372E-1,2.484145131E0,2.617597294E0
2.266489708E0,7.169779088E-1,1.914366710E-1,2.149791400E0,2.274270956E0
2.276459708E0,7.387167603E-1,-9.761137158E-2,1.549532613E0,1.719384120E0
2.286429708E0,7.516715589E-1,-3.152988249E-1,7.669336689E-1,1.119200935E0
2.296399708E0,8.419801967E-1,-4.854013449E-1,3.519439101E-2,9.725141451E-1
2.306369708E0,9.859792842E-1,-5.287871003E-1,-6.389843112E-1,1.288437774E0
2.316339708E0,1.071046478E0,-4.856986758E-1,-1.037631102E0,1.568350109E0
2.326309708E0,1.111221966E0,-3.974016264E-1,-1.217149978E0,1.695345504E0
2.336279708E0,1.174112863E0,-2.752810657E-1,-1.177332779E0,1.685358464E0
2.346248708E0,1.386741744E0,-3.008766675E-1,-9.572640467E-1,1.711704965E0
2.356218708E0,1.696828653E0,-3.592581922E-1,-6.614762110E-1,1.856298657E0
2.366188708E0,1.897948898E0,-3.639163765E-1,-4.790845978E-1,1.991021647E0
2.376158708E0,1.907444484E0,-3.576276961E-1,-3.067864484E-1,1.964779874E0
2.386128708E0,1.862854641E0,-3.947993231E-1,-1.059702587E-1,1.907176870E0
2.396098708E0,1.668328593E0,-4.443506750E-1,-1.373160124E-2,1.726544634E0
2.406068708E0,1.453153688E0,-5.146842009E-1,-7.216633558E-3,1.541624970E0
2.416038708E0,1.233107761E0,-5.957423973E-1,-1.710029912E-1,1.380110784E0
2.426008708E0,9.724719237E-1,-5.492769134E-1,-3.111695212E-1,1.159410730E0
2.435978708E0,7.061791979E-1,-4.425938791E-1,-4.729555464E-1,9.582616293E-1
2.445948708E0,6.267332250E-1,-4.241719338E-1,-7.066851282E-1,1.035432390E0
2.455918708E0,7.261872004E-1,-4.438253027E-1,-9.078468883E-1,1.244393315E0
2.465888708E0,8.069926509E-1,-3.411727542E-1,-1.170351788E0,1.461971031E0
2.475858708E0,7.748740415E-1,-1.743265486E-1,-1.523027769E0,1.717682483E0
2.485828708E0,7.577050084E-1,-1.590132755E-1,-1.877561996E0,2.030921257E0
2.495798708E0,7.396287797E-1,-2.338096887E-1,-2.222690976E0,2.354160759E0
2.505768708E0,6.834795758E-1,-1.941977262E-1,-2.544114760E0,2.641472505E0
2.515738708E0,6.166283593E-1,-1.224737325E-1,-2.864543347E0,2.932718693E0
2.525708708E0,5.266436572E-1,-1.461365372E-1,-3.050610520E0,3.099182791E0
2.535678708E0,4.334191592E-1,-1.571980074E-1,-3.055713969E0,3.090299540E0
2.545648708E0,4.142268433E-1,-7.592814177E-2,-2.988111386E0,3.017641233E0
2.555618708E0,4.396850355E-1,2.960796118E-2,-2.666829690E0,2.702994664E0
2.565588708E0,4.463681106E-1,9.721054494E-2,-2.245529031E0,2.291526786E0
2.575558708E0,3.737154329E-1,1.927286133E-1,-1.889354076E0,1.935579078E0
2.585528708E0,3.355914406E-1,2.240916163E-1,-1.500635272E0,1.553944944E0
2.595498708E0,3.286813474E-1,1.278189647E-1,-1.332343635E0,1.378226642E0
2.605468708E0,3.062694083E-1,-1.818776429E-3,-1.324770906E0,1.359714018E0
2.615438708E0,2.093579485E-1,-1.672157496E-2,-1.335377170E0,1.351792347E0
2.625408708E0,1.705951479E-1,-1.461950094E-2,-1.455913428E0,1.465946910E0
2.635378708E0,1.828360015E-1,3.946081191E-2,-1.608628083E0,1.619466106E0
2.645348708E0,1.556388474E-1,2.830800819E-1,-1.673708178E0,1.704598735E0
2.655318708E0,1.394386978E-1,6.426686418E-1,-1.639927644E0,1.766869777E0
2.665288708E0,1.270825079E-1,8.910846752E-1,-1.467655807E0,1.721683893E0
2.675258708E0,1.478867550E-1,1.036570710E0,-1.267127300E0,1.643764254E0
2.685227708E0,1.268611908E-1,1.207310284E0,-9.929706538E-1,1.568337528E0
2.695197708E0,3.350761548E-2,1.255935437E0,-6.411799407E-1,1.410534756E0
2.705167583E0,-2.638108386E-3,1.229878197E0,-1.681244069E-1,1.241319119E0
2.715137583E0,4.885056317E-2,1.213274444E0,3.043434817E-1,1.251817162E0
2.725107583E0,1.438964689E-1,1.180149967E0,8.595851398E-1,1.467087847E0
2.735077583E0,2.678122710E-1,1.082706703E0,1.358305272E0,1.757546708E0
2.745047583E0,3.695444678E-1,9.331986612E-1,1.759923034E0,2.026018741E0
2.755017583E0,3.237224700E-1,9.076539302E-1,2.050947143E0,2.266057386E0
2.764987583E0,1.706173673E-1,1.025409544E0,2.325264003E0,2.547042933E0
2.774957583E0,-2.241997898E-2,1.163465522E0,2.565899146E0,2.817444428E0
2.784927583E0,-2.076545084E-1,1.299487545E0,2.832678945E0,3.123436934E0
2.794897583E0,-3.645484605E-1,1.476233087E0,3.167984603E0,3.514012828E0
2.804867583E0,-4.545409101E-1,1.645349182E0,3.538199893E0,3.928439875E0
2.814837583E0,-3.464665309E-1,1.721927242E0,4.000515261E0,4.369118313E0
2.824807583E0,-1.236355743E-1,1.569423964E0,4.196833187E0,4.482386210E0
2.834777583E0,1.294135004E-1,1.230188392E0,4.281972156E0,4.457061462E0
2.844747583E0,4.056751442E-1,8.206248495E-1,4.039048997E0,4.141486963E0
2.854717583E0,5.224440408E-1,4.083005440E-1,3.211297853E0,3.279038123E0
2.864687583E0,4.701769495E-1,-1.162362152E-1,2.126638765E0,2.181093684E0
2.874657583E0,1.923598185E-1,-5.447473678E-1,8.416008586E-1,1.020805564E0
2.884627583E0,-1.793384895E-1,-7.814657539E-1,-1.891802305E-1,8.237961993E-1
2.894597583E0,-5.530333109E-1,-8.316097212E-1,-9.944938534E-1,1.409410726E0
2.904567583E0,-9.988571920E-1,-7.898778507E-1,-1.530698147E0,1.991145280E0
2.914537583E0,-1.557091601E0,-6.171057844E-1,-1.620109676E0,2.330259463E0
2.924507583E0,-2.144709877E0,-3.380690521E-1,-1.402096240E0,2.584558958E0
2.934477583E0,-2.524580382E0,-2.311378035E-1,-9.640292752E-1,2.712246897E0
2.944447583E0,-2.513092065E0,-4.745565140E-1,-4.816035783E-1,2.602456074E0
2.954417583E0,-2.199120558E0,-8.667561650E-1,-1.052510512E-1,2.366109731E0
2.964387583E0,-1.925734867E0,-1.227149594E0,3.161782461E-1,2.305280804E0
2.974357583E0,-1.659063534E0,-1.574118401E0,6.911666179E-1,2.389152955E0
2.984327583E0,-1.380122988E0,-1.821086956E0,8.358723414E-1,2.433059748E0
2.994297583E0,-1.202519368E0,-1.899244056E0,7.998768818E-1,2.385997452E0
3.004267583E0,-1.153265347E0,-1.821212379E0,7.362831491E-1,2.277926330E0
3.014237583E0,-1.103094482E0,-1.629147132E0,5.318849552E-1,2.038097009E0
3.024207583E0,-1.051666612E0,-1.425634791E0,1.743148541E-1,1.780118785E0
3.034177583E0,-9.733941758E-1,-1.284056743E0,-2.499672997E-1,1.630577073E0
3.044147583E0,-8.249159749E-1,-1.214973352E0,-8.667105567E-1,1.705237169E0
3.054117583E0,-7.611278223E-1,-1.154402045E0,-1.528904806E0,2.061433858E0
3.064087583E0,-7.877367465E-1,-1.101804002E0,-2.172726519E0,2.560320637E0
3.074056583E0,-8.613533378E-1,-1.119969839E0,-2.756033058E0,3.097092221E0
3.084026583E0,-9.459328736E-1,-1.155917936E0,-3.285018378E0,3.608639775E0
3.093996583E0,-1.048031252E0,-1.159292364E0,-3.668217995E0,3.987248619E0
3.103966583E0,-1.114136072E0,-1.175238014E0,-3.731077318E0,4.067360511E0
3.113936583E0,-9.918433106E-1,-1.192123895E0,-3.579150867E0,3.900670900E0
3.123906583E0,-7.478248219E-1,-1.066281874E0,-3.399314488E0,3.640266197E0
3.133876583E0,-5.597774895E-1,-8.582782871E-1,-3.118388520E0,3.282428890E0
3.143846583E0,-5.111212000E-1,-6.495133924E-1,-2.857146619E0,2.974289719E0
3.153816583E0,-5.478640799E-1,-5.009789121E-1,-2.515261674E0,2.622532404E0
3.163786583E0,-5.725103863E-1,-4.184249979E-1,-2.142671830E0,2.256964819E0
3.173756583E0,-5.856685218E-1,-4.110501972E-1,-1.830578449E0,1.965448381E0
3.183726583E0,-5.743487509E-1,-4.117907470E-1,-1.541646473E0,1.695913310E0
3.193696583E0,-5.972113641E-1,-3.380526799E-1,-1.408409479E0,1.566702999E0
3.203666583E0,-6.526011609E-1,-2.228508371E-1,-1.172174365E0,1.359979232E0
3.213636583E0,-6.765085253E-1,-1.567270142E-1,-1.044523800E0,1.254295464E0
3.223606583E0,-5.811143083E-1,-1.451270154E-1,-8.818583536E-1,1.066034636E0
3.233576583E0,-4.273145564E-1,-1.437742621E-1,-6.412553698E-1,7.838859725E-1
3.243546583E0,-4.185724939E-1,-7.314223588E-2,-5.085475481E-1,6.627015376E-1
3.253516583E0,-5.792826314E-1,1.204201904E-1,-2.663324869E-1,6.488469642E-1
3.263486583E0,-6.823520865E-1,3.030816525E-1,1.085313392E-1,7.544812188E-1
3.273456583E0,-6.338567416E-1,4.188591537E-1,4.765381354E-1,8.968310622E-1
3.283426583E0,-4.926492611E-1,4.570879573E-1,1.095319732E0,1.285051754E0
3.293396583E0,-2.475158545E-1,5.127198288E-1,1.743363134E0,1.833974029E0
3.303366583E0,2.146659046E-2,6.546618658E-1,2.301986822E0,2.393362969E0
3.313336583E0,3.064017016E-1,6.684457996E-1,2.910296640E0,3.001754207E0
3.323306583E0,4.689248414E-1,5.874969462E-1,3.309118263E0,3.393421112E0
3.333276583E0,4.522458780E-1,5.914446938E-1,3.491434447E0,3.569936646E0
3.343246583E0,2.811081085E-1,6.991349110E-1,3.584111061E0,3.662466858E0
3.353216583E0,1.143856446E-1,7.652046472E-1,3.555613486E0,3.638819793E0
3.363186583E0,2.222190455E-2,8.162847537E-1,3.327418878E0,3.426153967E0
3.373156583E0,-2.282124415E-2,8.622310048E-1,3.001493323E0,3.122967385E0
3.383126583E0,8.819910854E-2,9.691031966E-1,2.751832418E0,2.918821979E0
3.393096583E0,4.345754461E-1,9.458777636E-1,2.623676069E0,2.822625848E0
3.403066583E0,7.741757378E-1,8.968412590E-1,2.516365628E0,2.781324917E0
3.413036583E0,9.553312495E-1,9.912948418E-1,2.439530291E0,2.801183910E0
3.423006583E0,1.007342964E0,1.026814630E0,2.385427759E0,2.785561653E0
3.432976583E0,8.961327226E-1,1.016830510E0,2.206823387E0,2.589800688E0
3.442946583E0,6.988028622E-1,1.035942134E0,1.884049482E0,2.260783934E0
3.452916583E0,5.790746898E-1,8.283344033E-1,1.408282594E0,1.733414332E0
3.462886583E0,6.642667946E-1,4.106373838E-1,9.341353852E-1,1.217572319E0
3.472855583E0,7.803876735E-1,3.055813372E-2,1.808315760E-1,8.016475406E-1
3.482825583E0,8.061706786E-1,-1.453524256E-1,-4.516898078E-1,9.354475790E-1
3.492795583E0,8.485771716E-1,-3.064052099E-1,-9.664441752E-1,1.322112595E0
3.502765583E0,9.223953456E-1,-4.837755266E-1,-1.545714966E0,1.863890203E0
3.512735583E0,8.907057756E-1,-5.649480361E-1,-1.907821337E0,2.179978283E0
3.522705583E0,7.730001551E-1,-5.469959146E-1,-2.146668402E0,2.346256379E0
3.532675583E0,5.971182472E-1,-5.122500050E-1,-2.298407156E0,2.429326188E0
3.542645583E0,4.022429748E-1,-4.584664384E-1,-2.302903665E0,2.382300606E0
3.552615583E0,1.777436249E-1,-4.572385231E-1,-1.993753772E0,2.053220390E0
3.562585583E0,1.137531586E-1,-4.622940257E-1,-1.453747619E0,1.529718173E0
3.572555583E0,2.297879007E-1,-4.063566372E-1,-1.074752151E0,1.171759524E0
3.582525583E0,3.258996807E-1,-3.601133475E-1,-6.374669588E-1,8.014089770E-1
3.592495583E0,3.715346407E-1,-3.526102003E-1,-2.446323001E-1,5.676415285E-1
3.602465583E0,3.434635471E-1,-3.093621469E-1,1.019321716E-1,4.733522089E-1
3.612435583E0,2.252746542E-1,-2.392183632E-1,3.955430889E-1,5.142260498E-1
3.622405583E0,8.406249583E-2,-1.550079328E-1,5.634499794E-1,5.903980367E-1
3.632375583E0,-4.427511692E-3,-1.280841359E-1,5.513456583E-1,5.660452135E-1
3.642345583E0,-1.028778491E-1,-1.289974710E-1,3.509112918E-1,3.877665975E-1
3.652315583E0,-1.913355142E-1,-1.018482640E-1,1.758374691E-2,2.174661722E-1
3.662285583E0,-2.131378810E-1,-4.699027151E-2,-5.019980818E-1,5.473919218E-1
3.672255583E0,-1.567226288E-1,-3.790925324E-2,-1.072460627E0,1.084514126E0
3.682225583E0,-9.321616575E-2,-5.788597316E-2,-1.681621799E0,1.685197886E0
3.692195583E0,1.579734944E-3,-6.499443322E-2,-2.194480500E0,2.195443335E0
3.702165667E0,9.810458422E-3,-6.989878535E-2,-2.675228630E0,2.676159620E0
3.712135667E0,-1.311709542E-2,-6.826419622E-2,-3.095714772E0,3.096495117E0
3.722105667E0,-6.304687187E-2,-8.761058629E-2,-3.338785281E0,3.340529550E0
3.732075667E0,-1.580866380E-1,-2.730064988E-3,-3.372374611E0,3.376078991E0
3.742045667E0,-2.665390398E-1,2.284369746E-1,-3.312505555E0,3.331053821E0
3.752015667E0,-3.623540371E-1,3.543313283E-1,-3.140933045E0,3.181558035E0
3.761985667E0,-4.087000916E-1,3.678889748E-1,-2.848127874E0,2.900725848E0
3.771955667E0,-3.790741137E-1,4.324355114E-1,-2.589245324E0,2.652336518E0
3.781925667E0,-2.425661865E-1,5.384274048E-1,-2.438507028E0,2.508995606E0
3.791895667E0,-9.376565784E-2,5.543449876E-1,-2.391780759E0,2.456970810E0
3.801865667E0,2.398367062E-2,5.209407216E-1,-2.428920518E0,2.484272396E0
3.811835667E0,3.387145847E-2,5.536190557E-1,-2.494818639E0,2.555731084E0
3.821805667E0,-7.239262283E-2,6.552267069E-1,-2.454369355E0,2.541356264E0
3.831775667E0,-1.856262928E-1,8.123598102E-1,-2.282982202E0,2.430307247E0
3.841745667E0,-1.667667200E-1,9.290602943E-1,-2.172520112E0,2.368714378E0
3.851715667E0,-1.324822654E-1,1.013097062E0,-2.139734189E0,2.371155754E0
3.861685667E0,-1.979244491E-1,1.191818086E0,-1.941932239E0,2.287073514E0
3.871655667E0,-2.843300705E-1,1.341213276E0,-1.666378693E0,2.157895871E0
3.881625667E0,-3.360026461E-1,1.390840935E0,-1.332747093E0,1.955390267E0
3.891595667E0,-2.617890907E-1,1.360067039E0,-7.857581949E-1,1.592398134E0
3.901565667E0,-1.630357213E-1,1.412630584E0,-1.049774015E-1,1.425877297E0
3.911535667E0,-1.863098323E-2,1.559512348E0,8.108322251E-1,1.757803964E0
3.921504667E0,1.784820186E-1,1.520005344E0,1.644965605E0,2.246816396E0
3.931474667E0,3.149497461E-1,1.324427090E0,2.261078532E0,2.639275769E0
3.941444667E0,3.641518731E-1,1.154129273E0,2.714597349E0,2.972147326E0
3.951414667E0,3.281822510E-1,9.839253035E-1,2.883687716E0,3.064550119E0
3.961384667E0,2.395872859E-1,8.235157129E-1,2.863559845E0,2.989239901E0
3.971354667E0,8.982317269E-2,6.835462341E-1,2.731662447E0,2.817318474E0
3.981324667E0,-7.899924561E-2,6.469134280E-1,2.501130708E0,2.584645562E0
3.991294667E0,-9.243600100E-2,6.550080210E-1,2.339367487E0,2.431094437E0
4.001264667E0,-1.654646913E-2,6.715573955E-1,2.321590782E0,2.416825786E0
4.011234667E0,-2.303263013E-2,7.831588152E-1,2.468905533E0,2.590243765E0
4.021204667E0,-1.720142671E-1,9.397832108E-1,2.850583119E0,3.006427367E0
4.031174667E0,-2.424338932E-1,1.024831840E0,3.281573784E0,3.446415673E0
4.041144667E0,-2.424996744E-1,8.250421286E-1,3.296514589E0,3.406832700E0
4.051114667E0,-2.837802860E-1,3.936211091E-1,3.143444424E0,3.180677864E0
4.061084667E0,-3.249487773E-1,-2.988775045E-2,3.043206190E0,3.060651712E0
4.071054667E0,-3.787229884E-1,-3.613412628E-1,2.838346651E0,2.886210374E0
4.081024667E0,-5.261991227E-1,-6.216496557E-1,2.679533935E0,2.800577783E0
4.090994667E0,-6.832016869E-1,-6.998275137E-1,2.587342640E0,2.766019709E0
4.100964667E0,-8.534699754E-1,-6.345883745E-1,2.616030250E0,2.823956032E0
4.110934667E0,-9.843498114E-1,-5.577463129E-1,2.806210939E0,3.025697495E0
4.120904667E0,-9.067661767E-1,-4.962581626E-1,2.908374660E0,3.086606588E0
4.130874667E0,-6.613978583E-1,-5.195025989E-1,2.901084936E0,3.020533709E0
4.140844667E0,-4.914982367E-1,-5.691919452E-1,2.797900876E0,2.897205429E0
4.150814667E0,-2.763475978E-1,-6.661802959E-1,2.440427839E0,2.544769580E0
4.160784667E0,-9.528125614E-2,-8.380401966E-1,2.042639419E0,2.209924362E0
4.170754667E0,1.696886833E-1,-1.019317038E0,1.463168653E0,1.791274401E0
4.180724667E0,3.236072798E-1,-1.172015028E0,7.074388343E-1,1.406702030E0
4.190694667E0,2.438030188E-1,-1.263902560E0,2.923490882E-2,1.287534184E0
4.200664667E0,9.027879870E-2,-1.217617463E0,-6.207661414E-1,1.369705498E0
4.210634667E0,-3.963505894E-2,-1.183143741E0,-1.208866228E0,1.691968560E0
4.220604667E0,-8.652358890E-2,-1.190701852E0,-1.742092534E0,2.111905214E0
4.230574667E0,-9.942006156E-2,-1.231124239E0,-2.232987923E0,2.551820194E0
4.240544667E0,-4.523157522E-2,-1.284309928E0,-2.598703195E0,2.899095753E0
4.250514667E0,5.355318636E-3,-1.302894718E0,-2.903050770E0,3.182022486E0
4.260484667E0,-5.037376285E-4,-1.278905931E0,-3.100290218E0,3.353714369E0
4.270454667E0,-3.222312838E-2,-1.247848738E0,-3.280902523E0,3.510339894E0
4.280424667E0,-5.652664170E-2,-1.235196240E0,-3.306805104E0,3.530419948E0
4.290394667E0,-9.984924719E-2,-1.248147238E0,-3.244269717E0,3.477517419E0
4.300364667E0,-1.080745254E-1,-1.248254242E0,-3.250523314E0,3.483636114E0
4.310334667E0,-1.416613707E-1,-1.206872620E0,-3.315629137E0,3.531289572E0
4.320304667E0,-1.992836527E-1,-1.167054835E0,-3.352337957E0,3.555263807E0
4.330274667E0,-2.159536260E-1,-1.115423921E0,-3.399095217E0,3.583944027E0
4.340244667E0,-1.915653098E-1,-1.042243971E0,-3.417877643E0,3.578387534E0
4.350214667E0,-1.133234248E-1,-8.655139241E-1,-3.343892823E0,3.455947882E0
4.360184667E0,8.807953298E-3,-6.454358366E-1,-3.089068242E0,3.155789537E0
4.370154667E0,1.239485465E-1,-4.926662180E-1,-2.693667825E0,2.741154792E0
4.380124667E0,1.871918848E-1,-3.883448741E-1,-2.273224368E0,2.313741898E0
4.390094667E0,1.767908576E-1,-2.139683318E-1,-1.814819033E0,1.835920907E0
4.400064667E0,2.052666517E-1,-4.306883633E-2,-1.535756573E0,1.550012121E0
4.410034667E0,2.022051957E-1,-4.726509064E-2,-1.341620827E0,1.357596175E0
4.420004667E0,1.007393396E-1,-5.145081997E-2,-1.177812250E0,1.183231718E0
4.429974667E0,-1.329919964E-2,4.372898698E-2,-1.076566542E0,1.077536362E0
4.439944667E0,-9.556572318E-2,1.162619430E-1,-9.084146529E-1,9.207968443E-1
4.449914667E0,-1.148982261E-1,1.951987696E-1,-6.614440513E-1,6.991511961E-1
4.459883667E0,-7.685448691E-2,3.829458475E-1,-3.042089957E-1,4.950729717E-1
4.469853667E0,4.462927546E-2,5.206930920E-1,2.264521372E-1,5.695556503E-1
4.479823667E0,1.144836585E-1,5.361563462E-1,7.484664077E-1,9.277780441E-1
4.489793667E0,2.397921212E-1,4.630453929E-1,1.185775573E0,1.295366746E0
4.499763667E0,4.125970781E-1,3.442083362E-1,1.447739021E0,1.544235733E0
4.509733667E0,5.214109839E-1,2.822068003E-1,1.636977723E0,1.741035944E0
4.519703667E0,5.772984519E-1,2.974195012E-1,1.827544913E0,1.939497943E0
4.529673667E0,6.221854068E-1,3.051363641E-1,1.922673265E0,2.043745425E0
4.539643667E0,6.142982438E-1,4.432312256E-1,2.058976539E0,2.193900782E0
4.549613667E0,5.269083899E-1,6.994936377E-1,2.239340923E0,2.404489877E0
4.559583667E0,4.876591010E-1,8.138020259E-1,2.645555765E0,2.810524941E0
4.569553667E0,5.787144282E-1,8.042412436E-1,3.152309972E0,3.304356598E0
4.579523667E0,7.399724498E-1,7.934329578E-1,3.651963320E0,3.809715367E0
4.589493667E0,9.427068186E-1,6.999251622E-1,3.972806475E0,4.142678200E0
4.599463667E0,1.078941900E0,4.483799914E-1,4.321622710E0,4.476782671E0
4.609433667E0,1.098494258E0,9.244652599E-2,4.517168219E0,4.649735983E0
4.619403667E0,9.997657762E-1,-1.539060250E-1,4.394701211E0,4.509613886E0
4.629373667E0,7.246696287E-1,-2.211054432E-1,4.204664363E0,4.272380612E0
4.639343667E0,2.741019747E-1,-3.429874375E-1,3.817495072E0,3.842660654E0
4.649313667E0,1.234486096E-2,-4.748693401E-1,3.223536075E0,3.258348986E0
4.659283667E0,1.327883671E-1,-5.719687879E-1,2.310743612E0,2.384180590E0
4.669253667E0,3.858866681E-1,-6.776282671E-1,1.305959828E0,1.521058731E0
4.679223667E0,5.411045524E-1,-8.168533954E-1,5.833597487E-1,1.140329866E0
4.689193667E0,7.285844126E-1,-9.692689651E-1,-8.805205107E-2,1.215759325E0
4.699163667E0,1.000311248E0,-1.052490631E0,-5.446681380E-1,1.550813497E0
4.709133667E0,1.359294329E0,-1.045092734E0,-5.889847702E-1,1.812954207E0
4.719103667E0,1.680410110E0,-9.093788588E-1,-5.970562667E-1,2.001805243E0
4.729073667E0,1.852795529E0,-6.046649560E-1,-6.135647106E-1,2.043265190E0
4.739043667E0,1.824358912E0,-3.504052153E-1,-5.244332635E-1,1.930310727E0
4.749013667E0,1.698215320E0,-3.493854609E-1,-4.873280025E-1,1.800970310E0
4.758983667E0,1.564135450E0,-5.015311816E-1,-5.534032935E-1,1.733294100E0
4.768953667E0,1.302534822E0,-6.636037204E-1,-8.657235467E-1,1.698953831E0
4.778923667E0,1.042148076E0,-7.345304462E-1,-1.114841831E0,1.693658731E0
4.788893667E0,8.673737772E-1,-7.493616164E-1,-1.617849727E0,1.982755113E0
4.798863667E0,8.072962676E-1,-8.319956374E-1,-2.228252848E0,2.511783183E0
4.808833667E0,7.409423567E-1,-9.380609134E-1,-2.650314229E0,2.907424869E0
4.818803667E0,6.433562744E-1,-8.988699505E-1,-2.918335977E0,3.120666492E0
4.828773667E0,5.573302835E-1,-6.696216747E-1,-3.096960229E0,3.217168458E0
4.838743667E0,5.097919817E-1,-3.792080149E-1,-3.146887264E0,3.210387210E0
4.848713667E0,4.911890651E-1,-1.340883493E-1,-3.041385368E0,3.083710644E0
4.858683667E0,4.176533116E-1,6.656558007E-2,-2.842723877E0,2.874011883E0
4.868653667E0,3.496265124E-1,2.616474053E-1,-2.598488603E0,2.634927149E0
4.878623667E0,3.630740851E-1,3.346615872E-1,-2.451260975E0,2.500500257E0
4.888593667E0,5.542765751E-1,2.699574682E-1,-2.311966265E0,2.392757315E0
4.898563667E0,7.292951417E-1,2.723434246E-1,-2.195612521E0,2.329540016E0
4.908533667E0,8.225466831E-1,2.912164825E-1,-2.241266411E0,2.405133096E0
4.918503667E0,7.862278725E-1,3.161455017E-1,-2.427450528E0,2.571112271E0
4.928473667E0,6.947535923E-1,3.145056501E-1,-2.605204715E0,2.714532734E0
4.938443667E0,6.477587892E-1,2.853438315E-1,-2.745879368E0,2.835642088E0
4.948413667E0,6.551153174E-1,2.924183777E-1,-2.833361900E0,2.922776803E0
4.958383667E0,6.579776756E-1,3.502023169E-1,-2.831919392E0,2.928368782E0
4.968353667E0,6.006925039E-1,3.946777010E-1,-2.825435414E0,2.915422311E0
4.978323667E0,4.782782668E-1,4.306664363E-1,-2.736101654E0,2.810778529E0
4.988293667E0,3.688673602E-1,4.544409227E-1,-2.629474753E0,2.693829459E0
4.998263667E0,2.848115887E-1,4.563345435E-1,-2.465538706E0,2.523537194E0
5.008233667E0,2.559318982E-1,5.865610993E-1,-2.241889139E0,2.331442037E0
5.018202667E0,2.459729205E-1,9.409035373E-1,-1.949192727E0,2.178337538E0
5.028172667E0,3.198387493E-1,1.369359726E0,-1.514021888E0,2.066326490E0
5.038142667E0,4.193773632E-1,1.790714471E0,-7.841478717E-1,1.999355790E0
5.048112667E0,5.735814500E-1,2.089708628E0,1.494320279E-1,2.172143586E0
5.058082667E0,6.939076464E-1,2.268010114E0,1.100065917E0,2.614483260E0
5.068052667E0,7.790720500E-1,2.024418910E0,1.663209502E0,2.733402830E0
5.078022667E0,8.521948439E-1,1.499467583E0,2.161499864E0,2.765270466E0
5.087992667E0,8.472755814E-1,1.133328680E0,2.609208303E0,2.968211208E0
5.097962667E0,8.538950680E-1,8.180988523E-1,2.441387367E0,2.712709862E0
5.107932667E0,8.187780064E-1,5.985540310E-1,2.131023592E0,2.360069046E0
5.117902667E0,6.729765147E-1,5.250732413E-1,1.853075611E0,2.040217762E0
5.127872667E0,3.935947967E-1,5.704856417E-1,1.482929319E0,1.636902592E0
5.137842667E0,4.853773713E-3,6.785109043E-1,1.289613937E0,1.457225004E0
5.147812667E0,-5.181445831E-1,9.889118090E-1,1.644727623E0,1.987850429E0
5.157782667E0,-9.056421956E-1,1.471158289E0,2.008513899E0,2.649268310E0
5.167752667E0,-1.088684458E0,1.677811754E0,2.505065299E0,3.205563645E0
5.177722667E0,-1.019529146E0,1.536949990E0,3.555006545E0,4.004962732E0
5.187692667E0,-6.605934276E-1,1.370037711E0,4.260832717E0,4.524166492E0
5.197662667E0,-2.504555422E-1,1.158543921E0,4.476216075E0,4.630492667E0
5.207632667E0,1.005225541E-1,7.244881457E-1,4.192130857E0,4.255461077E0
5.217602667E0,3.185023682E-1,1.315787244E-1,3.578490717E0,3.595045553E0
5.227572667E0,2.700393292E-1,-5.066320002E-1,2.718148947E0,2.778116434E0
5.237542667E0,-1.203057129E-1,-8.298248586E-1,1.992970245E0,2.162177874E0
5.247512667E0,-4.876038449E-1,-7.424095693E-1,1.426725297E0,1.680617313E0
5.257482667E0,-6.693733142E-1,-6.356370726E-1,8.690102667E-1,1.267783091E0
5.267452667E0,-8.585734253E-1,-6.573957315E-1,6.332119399E-1,1.253106075E0
5.277422667E0,-1.039138807E0,-6.901301989E-1,5.772897542E-1,1.374537235E0
5.287392667E0,-1.203307865E0,-6.755259007E-1,5.874451983E-1,1.499792293E0
5.297362667E0,-1.144810565E0,-7.021734166E-1,7.163043827E-1,1.522081044E0
5.307332667E0,-9.672898288E-1,-8.748010567E-1,7.515642625E-1,1.505249263E0
5.317302667E0,-8.624312720E-1,-1.013501982E0,8.214893603E-1,1.563911358E0
5.327272667E0,-7.432328573E-1,-1.082957548E0,6.793599200E-1,1.478756922E0
5.337242667E0,-7.045044091E-1,-1.138950778E0,4.383441228E-1,1.409141905E0
5.347212667E0,-7.373385715E-1,-1.178531750E0,-4.891020477E-2,1.391041863E0
5.357182667E0,-8.332869950E-1,-1.183824942E0,-7.346225399E-1,1.623415839E0
5.367152667E0,-8.015955247E-1,-1.248990406E0,-1.422639847E0,2.055829895E0
5.377122667E0,-6.480913496E-1,-1.366482019E0,-2.084349947E0,2.575230127E0
5.387092667E0,-3.954052408E-1,-1.494393662E0,-2.560682845E0,2.991095845E0
5.397062667E0,-2.304228352E-1,-1.551933188E0,-2.840889605E0,3.245342055E0
5.407032667E0,-2.138964111E-1,-1.476716944E0,-2.837305847E0,3.205736901E0
5.417002667E0,-2.867116414E-1,-1.227354539E0,-2.841311190E0,3.108319804E0
5.426972667E0,-3.602402321E-1,-9.773974720E-1,-2.873641030E0,3.056614403E0
5.436942667E0,-3.930036432E-1,-9.271388993E-1,-2.885496259E0,3.056162146E0
5.446912667E0,-3.584683795E-1,-1.099426816E0,-2.904316108E0,3.126066371E0
5.456882667E0,-3.606482215E-1,-1.305510762E0,-2.954120936E0,3.249808609E0
5.466852667E0,-3.705435011E-1,-1.434850295E0,-2.953218126E0,3.304178439E0
5.476822667E0,-3.805505356E-1,-1.429472319E0,-2.862336023E0,3.221983446E0
5.486792667E0,-4.093809633E-1,-1.276910861E0,-2.797675758E0,3.102431912E0
5.496762667E0,-4.565602461E-1,-1.081271504E0,-2.704486343E0,2.948192956E0
5.506732667E0,-4.949632967E-1,-9.380027336E-1,-2.553408324E0,2.764910824E0
5.516702667E0,-5.367302504E-1,-8.876210770E-1,-2.399371029E0,2.613987734E0
5.526671667E0,-5.744221334E-1,-8.241185609E-1,-2.100068432E0,2.327964692E0
5.536641667E0,-6.288173188E-1,-6.919600850E-1,-1.867376731E0,2.088376363E0
5.546611667E0,-6.612940702E-1,-5.942463872E-1,-1.592302072E0,1.823695288E0
5.556581667E0,-6.535653667E-1,-5.842227978E-1,-1.271938974E0,1.544762998E0
5.566551667E0,-6.547956209E-1,-5.738428205E-1,-9.940307540E-1,1.321419702E0
5.576521667E0,-5.915571065E-1,-5.166459417E-1,-5.593908423E-1,9.642514993E-1
5.586491667E0,-5.790971285E-1,-4.278337526E-1,-2.080462718E-1,7.494521034E-1
5.596461667E0,-6.391031559E-1,-2.968064207E-1,2.050349557E-1,7.338843426E-1
5.606431667E0,-5.483099667E-1,-5.940507978E-2,7.156366307E-1,9.034979636E-1
5.616401667E0,-2.836833684E-1,1.527690339E-1,1.175448806E0,1.218808650E0
5.626371667E0,-2.657530278E-2,2.325548762E-1,1.609163688E0,1.626098334E0
5.636341667E0,1.258485992E-1,2.856113416E-1,2.042048850E0,2.065762623E0
5.646311667E0,2.469147608E-1,3.670227098E-1,2.381887854E0,2.422614769E0
5.656281667E0,3.035296954E-1,5.358967298E-1,2.621357648E0,2.692736805E0
5.666251667E0,3.075514103E-1,7.869250068E-1,2.808566782E0,2.932897237E0
5.676221667E0,2.293026549E-1,1.048762447E0,2.861556589E0,3.056303075E0
5.686191667E0,1.769358686E-1,1.182300573E0,2.829131439E0,3.071339390E0
5.696161667E0,2.440259439E-1,1.121176119E0,2.820374064E0,3.044847191E0
5.706135708E0,4.078336439E-1,9.885793948E-1,2.782651922E0,2.981068470E0
5.716105708E0,5.646027580E-1,9.454555947E-1,2.864362668E0,3.068751546E0
5.726075708E0,8.381600645E-1,9.832107738E-1,3.085780937E0,3.345334021E0
5.736045708E0,1.022537100E0,9.900031918E-1,3.406637540E0,3.692000511E0
5.746015708E0,1.008762448E0,1.001668972E0,3.677590497E0,3.942792699E0
5.755985708E0,8.235931154E-1,1.159663955E0,3.733894506E0,3.995634404E0
5.765955708E0,5.729439573E-1,1.119244199E0,3.650902635E0,3.861354997E0
5.775925708E0,3.080638457E-1,6.796496496E-1,3.343626190E0,3.425881358E0
5.785895708E0,1.057179514E-1,1.139692497E-1,2.915539253E0,2.919680533E0
5.795865708E0,2.177093804E-1,-4.163960141E-1,2.211974784E0,2.261330462E0
5.805835708E0,5.089477169E-1,-8.631487253E-1,1.087869794E0,1.479024743E0
5.815805708E0,7.336736830E-1,-1.059147394E0,2.955399138E-1,1.321897922E0
5.825775708E0,7.923813361E-1,-1.175017281E0,-2.148495072E-1,1.433420421E0
5.835745708E0,8.151996566E-1,-1.213277367E0,-6.092629141E-1,1.583601512E0
5.845715708E0,8.766556473E-1,-1.083563028E0,-8.695581508E-1,1.642791933E0
5.855685708E0,8.639278668E-1,-7.920898524E-1,-9.418022543E-1,1.503585441E0
5.865655708E0,8.743286017E-1,-4.391317427E-1,-8.450822908E-1,1.292846189E0
5.875625708E0,8.578505632E-1,-1.517910871E-1,-7.512824267E-1,1.150379680E0
5.885595708E0,9.079791816E-1,-3.577648133E-2,-5.710455126E-1,1.073219049E0
5.895565708E0,9.712565799E-1,6.800311804E-4,-4.001536185E-1,1.050458340E0
5.905535708E0,9.742317894E-1,-8.603593111E-2,-2.564910382E-1,1.011097134E0
5.915505708E0,8.976912980E-1,-2.469779107E-1,-2.084386200E-1,9.540935033E-1
5.925475708E0,7.531864263E-1,-3.472766626E-1,-3.160648102E-1,8.875741306E-1
5.935445708E0,5.876181297E-1,-4.846771672E-1,-5.405253857E-1,9.340100189E-1
5.945415708E0,4.023220584E-1,-6.357063621E-1,-8.655533928E-1,1.146807871E0
5.955385708E0,2.203817041E-1,-7.168633765E-1,-1.247270156E0,1.455384498E0
5.965355708E0,9.673005000E-2,-6.497241846E-1,-1.747914022E0,1.867271177E0
5.975325708E0,4.407865047E-2,-5.070123616E-1,-2.170822665E0,2.229680584E0
5.985294708E0,9.905504912E-2,-4.037791845E-1,-2.650455732E0,2.682865095E0
5.995264708E0,2.288629442E-1,-3.592084908E-1,-3.139395812E0,3.168156412E0
6.005234708E0,3.245647614E-1,-2.868848652E-1,-3.409312057E0,3.436721390E0
6.015204708E0,4.340358943E-1,-2.013058940E-1,-3.560826863E0,3.592826070E0
6.025174708E0,5.301667508E-1,-1.319342351E-1,-3.650076424E0,3.690737233E0
6.035144708E0,5.572308809E-1,-3.631617934E-2,-3.698044642E0,3.739967820E0
6.045114708E0,5.148827139E-1,8.514218420E-2,-3.611950824E0,3.649457789E0
6.055084708E0,4.160866964E-1,1.904052222E-1,-3.450729055E0,3.480935693E0
6.065054708E0,3.476608247E-1,2.018002760E-1,-3.327496061E0,3.351689341E0
6.075024708E0,3.676122554E-1,1.297628716E-1,-3.170469085E0,3.194346786E0
6.084994708E0,4.044320261E-1,6.788675845E-2,-2.975204827E0,3.003334420E0
6.094964708E0,4.092105170E-1,1.497346213E-1,-2.872626538E0,2.905487382E0
6.104934708E0,3.262874973E-1,3.501341969E-1,-2.761084467E0,2.802257112E0
6.114904708E0,1.841925555E-1,5.432019487E-1,-2.653229066E0,2.714520166E0
6.124874708E0,6.821521665E-2,6.362755886E-1,-2.624692315E0,2.701575409E0
6.134844708E0,3.874058113E-2,7.000979474E-1,-2.465687225E0,2.563445233E0
6.144814708E0,8.016459569E-2,7.702317908E-1,-2.243157985E0,2.373065764E0
6.154784708E0,-2.348256424E-2,9.720689043E-1,-1.933224565E0,2.163983966E0
6.164754708E0,-1.195577261E-1,1.196082753E0,-1.474672465E0,1.902515935E0
6.174724708E0,-2.141224059E-1,1.323711390E0,-9.967304134E-1,1.670787768E0
6.184694708E0,-3.549197043E-1,1.362398323E0,-3.152526319E-1,1.442734005E0
6.194664708E0,-4.449631709E-1,1.403577047E0,4.182922661E-1,1.530682583E0
6.204634708E0,-4.275922626E-1,1.431735191E0,1.127200506E0,1.871705581E0
6.214604708E0,-3.083735289E-1,1.382604254E0,1.856154755E0,2.334951655E0
6.224574708E0,-7.262753472E-2,1.189925050E0,2.334224276E0,2.621030208E0
6.234544708E0,1.395882404E-1,9.954153746E-1,2.581075594E0,2.769889505E0
6.244514708E0,2.486512376E-1,9.763066739E-1,2.707050347E0,2.888446597E0
6.254484708E0,1.646453136E-1,1.074268001E0,2.703092952E0,2.913395154E0
6.264454708E0,-7.505880699E-2,1.261654014E0,2.806365890E0,3.077839207E0
6.274424708E0,-1.817726853E-1,1.622074925E0,3.020213184E0,3.433053459E0
6.284394708E0,-1.364069165E-1,2.044305875E0,3.329440845E0,3.909343896E0
6.294364708E0,-8.971529156E-2,2.319932804E0,3.949976606E0,4.581752093E0
6.304334708E0,-1.904160395E-2,2.323102872E0,4.651226748E0,5.199142217E0
6.314304708E0,1.125695725E-1,2.082443755E0,4.974121690E0,5.393619424E0
6.324274708E0,2.054287657E-1,1.614619432E0,4.885100756E0,5.149117039E0
6.334244708E0,1.686958261E-1,9.324139649E-1,4.247729107E0,4.352132425E0
6.344214708E0,1.484486724E-1,8.676946431E-2,3.160827026E0,3.165500504E0
6.354184708E0,3.362207472E-2,-6.035987163E-1,2.063789967E0,2.150509447E0
6.364154708E0,-2.607479574E-1,-9.462715736E-1,1.020597578E0,1.415993928E0
6.374124708E0,-6.786461212E-1,-1.034442323E0,3.501277649E-1,1.285776392E0
6.384094708E0,-1.025272720E0,-8.920608678E-1,-1.228149176E-1,1.364565955E0
6.394063708E0,-1.347578555E0,-6.377072793E-1,-4.355702037E-1,1.553177369E0
6.404033708E0,-1.727951628E0,-4.566155022E-1,-4.433879310E-1,1.841441664E0
6.414003708E0,-2.049593805E0,-4.017066389E-1,-2.135292059E-1,2.099475580E0
6.423973708E0,-2.198666814E0,-3.727985895E-1,-2.330232382E-2,2.230169846E0
6.433943708E0,-2.072893059E0,-4.037277290E-1,2.960620701E-1,2.132494891E0
6.443913708E0,-1.692107757E0,-5.996956998E-1,4.185758561E-1,1.843385294E0
6.453883708E0,-1.435595085E0,-8.394818276E-1,4.968729973E-1,1.735668678E0
6.463853708E0,-1.209558831E0,-1.067514467E0,5.198057771E-1,1.694938863E0
6.473823708E0,-9.903054929E-1,-1.232567917E0,4.379283857E-1,1.640643139E0
6.483793708E0,-8.124080497E-1,-1.253491593E0,7.429355264E-2,1.495582677E0
6.493763708E0,-6.813970900E-1,-1.286445331E0,-3.233112645E-1,1.491232295E0
6.503733708E0,-5.979640469E-1,-1.406791262E0,-8.151492244E-1,1.732365699E0
6.513703708E0,-5.536468300E-1,-1.539721862E0,-1.460060858E0,2.192953701E0
6.523673708E0,-5.147760022E-1,-1.571569600E0,-2.100564276E0,2.673423950E0
6.533643708E0,-3.053068104E-1,-1.544584699E0,-2.725451535E0,3.147545109E0
6.543613708E0,-1.055419684E-1,-1.600840176E0,-3.267649224E0,3.640241727E0
6.553583708E0,-1.310552524E-1,-1.818000503E0,-3.433368087E0,3.887199214E0
6.563553708E0,-3.955422118E-1,-2.044459657E0,-3.502604967E0,4.074863248E0
6.573523708E0,-7.941315539E-1,-1.824142711E0,-3.643219979E0,4.151047262E0
6.583493708E0,-1.257411128E0,-1.343423816E0,-3.778425731E0,4.202662406E0
6.593463708E0,-1.571173304E0,-1.153194303E0,-3.650035493E0,4.137777393E0
6.603433708E0,-1.713997540E0,-1.296570954E0,-3.470411952E0,4.081990069E0
6.613403708E0,-1.694779643E0,-1.477368616E0,-3.274996836E0,3.972467790E0
6.623373708E0,-1.575951357E0,-1.629594736E0,-3.056168298E0,3.805176257E0
6.633343708E0,-1.468914566E0,-1.579282954E0,-2.909391491E0,3.621657562E0
6.643313708E0,-1.293239211E0,-1.336960889E0,-2.559231566E0,3.163794918E0
6.653283708E0,-1.103245194E0,-1.020977647E0,-2.236984495E0,2.695115015E0
6.663253708E0,-9.014905263E-1,-7.346009052E-1,-1.826102990E0,2.164942445E0
6.673223708E0,-6.620626867E-1,-5.488152757E-1,-1.238680596E0,1.507930644E0
6.683193708E0,-4.145133568E-1,-4.126298225E-1,-6.998777997E-1,9.120929931E-1
6.693163708E0,-2.713014507E-1,-1.899447539E-1,-3.089715528E-1,4.529314597E-1
6.703129958E0,-2.671765324E-1,-4.042004764E-2,-3.233802617E-2,2.721448652E-1
6.713099958E0,-3.471798912E-1,-5.784884334E-2,1.602078617E-1,3.867129742E-1
6.723069958E0,-4.049816644E-1,-1.019877201E-1,3.550207150E-1,5.481344284E-1
6.733038958E0,-2.297759870E-1,-5.491471052E-2,5.641726953E-1,6.116399756E-1
6.743009958E0,2.706701707E-2,1.202830732E-2,8.225804508E-1,8.231135411E-1
6.752978958E0,1.922927034E-1,1.191285405E-1,1.111490207E0,1.134274470E0
6.762948958E0,3.439483909E-1,1.575353917E-1,1.481585044E0,1.529121361E0
6.772918958E0,5.059317596E-1,1.895383725E-1,1.839653912E0,1.917346671E0
6.782888958E0,5.737241220E-1,2.827111226E-1,2.089542274E0,2.185239544E0
6.792858958E0,4.818769357E-1,5.520040548E-1,2.405348053E0,2.514480685E0
6.802828958E0,3.018522754E-1,9.596824551E-1,2.561312006E0,2.751803845E0
6.812798958E0,1.033184002E-1,1.326649616E0,2.776152157E0,3.078586477E0
6.822768958E0,3.059891805E-2,1.466529048E0,3.049425874E0,3.383879712E0
6.832738958E0,9.619166762E-2,1.432288338E0,3.211249906E0,3.517503188E0
6.842708958E0,1.799268655E-1,1.377246158E0,3.281584309E0,3.563421983E0
6.852678958E0,1.886971043E-1,1.299031170E0,3.264457229E0,3.518489673E0
6.862648958E0,1.950215989E-1,1.220418572E0,3.175560256E0,3.407585340E0
6.872618958E0,3.060248485E-1,1.156543588E0,3.151500717E0,3.370934744E0
6.882588958E0,4.443458145E-1,1.090941337E0,3.207172058E0,3.416657549E0
6.892558958E0,5.191622910E-1,1.013670967E0,3.184497140E0,3.382023115E0
6.902528958E0,6.251651479E-1,8.724142233E-1,3.149881039E0,3.327715222E0
6.912498958E0,7.373164983E-1,6.324000540E-1,2.866508596E0,3.026621380E0
6.922468958E0,8.558236259E-1,2.552876812E-1,2.452370192E0,2.609928244E0
6.932438958E0,9.244481568E-1,-1.273617125E-1,1.937700609E0,2.150699665E0
6.942408958E0,9.232389526E-1,-3.296326894E-1,1.368328570E0,1.683256055E0
6.952378958E0,9.349171579E-1,-5.764804995E-1,8.458342427E-1,1.386302790E0
6.962348958E0,9.921723627E-1,-8.429316849E-1,4.758867556E-1,1.386148631E0
6.972318958E0,1.149268629E0,-9.648411611E-1,1.950362170E-1,1.513200572E0
6.982288958E0,1.345301503E0,-8.484035093E-1,5.123213410E-2,1.591304302E0
6.992258958E0,1.377140762E0,-5.890654618E-1,-1.059620726E-1,1.501580087E0
7.002228958E0,1.214377229E0,-2.739107707E-1,-8.121080875E-2,1.247531306E0
7.012198958E0,9.773394383E-1,-1.140557885E-1,-2.236793876E-2,9.842263080E-1
7.022168958E0,7.285187776E-1,-1.063611451E-1,4.491714120E-2,7.376109084E-1
7.032138958E0,5.242226176E-1,-1.877798223E-1,-2.362801373E-2,5.573409168E-1
7.042108958E0,2.599737860E-1,-2.892173195E-1,-1.861911339E-1,4.311614148E-1
7.052078958E0,2.499684691E-4,-3.944058055E-1,-4.365595526E-1,5.883368464E-1
7.062048958E0,-2.093282738E-1,-5.478434685E-1,-7.085778719E-1,9.198007354E-1
7.072018958E0,-3.480619437E-1,-6.633283165E-1,-1.165216178E0,1.385236555E0
7.081987958E0,-4.007801476E-1,-7.343436277E-1,-1.639147625E0,1.840296233E0
7.091957958E0,-3.815321369E-1,-8.530523381E-1,-2.139717232E0,2.334877919E0
7.101927958E0,-3.147722831E-1,-9.358471575E-1,-2.632795971E0,2.811851013E0
7.111897958E0,-2.177756001E-1,-9.867062393E-1,-2.939844375E0,3.108649283E0
7.121867958E0,-1.415773170E-1,-9.607054254E-1,-3.116899234E0,3.264668419E0
7.131837958E0,-2.016989730E-1,-7.618635482E-1,-3.323818747E0,3.415975645E0
7.141807958E0,-2.751321079E-1,-5.522087073E-1,-3.335245376E0,3.391827509E0
7.151777958E0,-2.746606761E-1,-5.255056429E-1,-3.191882173E0,3.246491410E0
7.161747958E0,-1.552529311E-1,-6.285353369E-1,-3.032154953E0,3.100503798E0
7.171717958E0,-6.567592621E-2,-6.712524632E-1,-2.783848847E0,2.864386077E0
7.181687958E0,-2.951732934E-2,-6.138798755E-1,-2.607530152E0,2.678979893E0
7.191657958E0,-4.215213910E-2,-6.043100300E-1,-2.547368150E0,2.618406368E0
7.201627958E0,-6.333323926E-2,-6.608353561E-1,-2.400182623E0,2.490299398E0
7.211597958E0,-5.157010317E-2,-7.210055441E-1,-2.315979209E0,2.426163260E0
7.221567958E0,-3.971903957E-2,-6.654450086E-1,-2.345018821E0,2.437931076E0
7.231537958E0,-2.659196734E-2,-5.275676635E-1,-2.313566648E0,2.373104592E0
7.241507958E0,6.802994214E-2,-3.462741575E-1,-2.270173876E0,2.297438419E0
7.251477958E0,1.995623273E-1,-1.230192778E-1,-2.061098494E0,2.074388070E0
7.261447958E0,3.358435287E-1,9.916673094E-2,-1.641030428E0,1.677976693E0
7.271417958E0,3.170573750E-1,3.609647021E-1,-1.309034879E0,1.394415006E0
7.281387958E0,9.803017840E-2,6.881976941E-1,-9.890389860E-1,1.208893750E0
7.291357958E0,-1.628306302E-1,9.182134169E-1,-6.609809518E-1,1.143033469E0
7.301327958E0,-3.983327955E-1,1.052399122E0,-4.143693691E-1,1.199130895E0
7.311297958E0,-4.250300127E-1,1.152632093E0,-6.831302047E-2,1.230397465E0
7.321267958E0,-2.644327265E-1,1.099117498E0,3.683038348E-1,1.188962429E0
7.331237958E0,-1.261152323E-1,9.498515314E-1,7.413626254E-1,1.211503828E0
7.341207958E0,-1.547816455E-2,8.026250732E-1,1.068168771E0,1.336200249E0
7.351177958E0,2.264885361E-1,5.721175995E-1,1.334161534E0,1.469218365E0
7.361147958E0,5.528766055E-1,4.041536987E-1,1.358343864E0,1.521220170E0
7.371116958E0,7.543014903E-1,4.019101220E-1,1.216972808E0,1.487119800E0
7.381086958E0,7.114834996E-1,5.187585407E-1,1.196550822E0,1.485615382E0
7.391056958E0,4.752976486E-1,7.459795868E-1,1.403908877E0,1.659323215E0
7.401026958E0,3.015393032E-1,1.104382331E0,1.680957556E0,2.033766110E0
7.410996958E0,2.310927799E-1,1.412687302E0,1.935987960E0,2.407724790E0
7.420966958E0,2.176956394E-1,1.600670315E0,2.259509724E0,2.777574669E0
7.430936958E0,2.683285618E-1,1.683720658E0,2.717877637E0,3.208391235E0
7.440906958E0,2.497186469E-1,1.670137868E0,3.073561426E0,3.506921690E0
7.450876958E0,2.155545352E-1,1.514170407E0,3.143673050E0,3.495977120E0
7.460846958E0,1.626924898E-1,1.169565922E0,2.785267382E0,3.025238450E0
7.470816958E0,1.395008245E-1,6.059194762E-1,2.215372601E0,2.300972545E0
7.480786958E0,1.677522317E-1,7.073669136E-3,1.515684836E0,1.524956186E0
7.490756958E0,2.456371441E-2,-3.220365715E-1,8.941106093E-1,9.506548854E-1
7.500726958E0,-2.579440713E-1,-4.490550524E-1,4.489696831E-1,6.853899330E-1
7.510696958E0,-5.536212485E-1,-3.186606815E-1,1.010276073E-1,6.467207235E-1
7.520666958E0,-8.226642121E-1,-1.165823704E-1,-2.623411775E-2,8.312978311E-1
7.530636958E0,-1.059510652E0,3.360979557E-2,4.461951792E-2,1.060982253E0
7.540606958E0,-1.313914088E0,2.570120251E-1,2.020078522E-1,1.353969196E0
7.550576958E0,-1.436059207E0,3.941678238E-1,4.283950853E-1,1.549566607E0
7.560546958E0,-1.240763228E0,2.002522257E-1,5.991244268E-1,1.392316207E0
7.570516958E0,-9.057363358E-1,-1.482260397E-1,7.093836182E-1,1.159980339E0
7.580486958E0,-7.054592595E-1,-4.166035903E-1,8.292275655E-1,1.165697076E0
7.590456958E0,-5.579245068E-1,-6.088486388E-1,8.799030447E-1,1.206733520E0
7.600426958E0,-4.571818051E-1,-7.222276121E-1,7.852693677E-1,1.160722149E0
7.610396958E0,-3.940143344E-1,-7.369681504E-1,6.389585835E-1,1.051968356E0
7.620366958E0,-2.711285193E-1,-7.542279616E-1,3.387835819E-1,8.701406825E-1
7.630336958E0,-1.514902570E-1,-8.111102602E-1,-9.206265628E-2,8.302557948E-1
7.640306958E0,-1.056814063E-1,-8.894685048E-1,-5.614116400E-1,1.057121474E0
7.650275958E0,-1.599182783E-1,-8.881464493E-1,-1.097653356E0,1.420992914E0
7.660245958E0,-2.154403684E-1,-8.324704313E-1,-1.570216554E0,1.790251825E0
7.670215958E0,-2.834105958E-1,-7.827959955E-1,-1.940443538E0,2.111495266E0
7.680185958E0,-4.296488746E-1,-6.959478861E-1,-2.183325766E0,2.331491586E0
7.690155958E0,-5.421544200E-1,-6.356388268E-1,-2.384591022E0,2.526705855E0
7.700125958E0,-6.406308872E-1,-5.933912319E-1,-2.571078025E0,2.715320110E0
7.710096667E0,-7.739519356E-1,-6.121713191E-1,-2.722427940E0,2.895750198E0
7.720066667E0,-8.833273204E-1,-6.613864562E-1,-2.843282286E0,3.049910385E0
7.730036667E0,-8.981834874E-1,-7.366366133E-1,-3.010268240E0,3.226620826E0
7.740006667E0,-8.499255395E-1,-8.351449478E-1,-3.120449079E0,3.340216005E0
7.749976667E0,-7.098856017E-1,-9.405304849E-1,-3.100569130E0,3.316935949E0
7.759946667E0,-5.003095521E-1,-9.523301661E-1,-2.930107591E0,3.121341521E0
7.769916667E0,-3.231744397E-1,-8.530008826E-1,-2.653263565E0,2.805683476E0
7.779886667E0,-3.134139749E-1,-5.566666245E-1,-2.209361663E0,2.299866303E0
7.789856667E0,-3.624117418E-1,-1.678256142E-1,-1.662267516E0,1.709573339E0
7.799826667E0,-3.973488553E-1,5.857769877E-2,-1.224422745E0,1.288614961E0
7.809796667E0,-4.199075595E-1,4.284810394E-2,-9.612582797E-1,1.049845607E0
7.819766667E0,-4.395148815E-1,-2.703810990E-2,-7.494996107E-1,8.692836458E-1
7.829736667E0,-4.064053153E-1,-6.437667489E-2,-7.067389226E-1,8.177955376E-1
7.839706667E0,-3.314527814E-1,-1.286010298E-1,-8.463774490E-1,9.180163165E-1
7.849676667E0,-2.429750530E-1,-2.708912686E-1,-9.426120937E-1,1.010414031E0
7.859646667E0,-2.143795373E-1,-3.970195109E-1,-9.765300375E-1,1.075729516E0
7.869616667E0,-1.955360077E-1,-4.835036311E-1,-8.625023156E-1,1.007928736E0
7.879586667E0,-1.427311188E-1,-4.669867086E-1,-7.346967995E-1,8.821724013E-1
7.889556667E0,-1.018529418E-1,-4.153248042E-1,-4.335839045E-1,6.089858102E-1
7.899525667E0,-6.134577066E-2,-3.380474174E-1,8.711766601E-3,3.436789997E-1
7.909495667E0,-8.667941719E-2,-9.900856376E-2,4.927869630E-1,5.100539265E-1
7.919465667E0,-1.108484446E-1,2.201628721E-1,1.240273962E0,1.264530968E0
7.929435667E0,-1.270401156E-1,5.046714288E-1,1.860005146E0,1.931437699E0
7.939405667E0,-2.062664159E-1,6.654531947E-1,2.448642007E0,2.545824320E0
7.949375667E0,-2.459203321E-1,8.181508926E-1,2.880860002E0,3.004863066E0
7.959345667E0,-2.337805988E-1,8.615448341E-1,3.124581891E0,3.249603801E0
7.969315667E0,-1.512486117E-1,7.629686719E-1,3.404867004E0,3.492580228E0
7.979285667E0,4.039519697E-2,5.865523285E-1,3.659885128E0,3.706809215E0
7.989255667E0,2.130567509E-1,4.138524753E-1,3.857449096E0,3.885431840E0
7.999225667E0,3.110937998E-1,3.789413819E-1,4.118938335E0,4.148015059E0
8.009195667E0,3.807690022E-1,3.934068087E-1,4.340153705E0,4.374550050E0
8.019165667E0,4.570340167E-1,4.626129913E-1,4.305408381E0,4.354243011E0
8.029135667E0,4.087535571E-1,5.316329402E-1,4.078778488E0,4.133539283E0
8.039105667E0,1.972755544E-1,5.414065611E-1,3.699298285E0,3.743907920E0
8.049075667E0,2.264063828E-2,4.204168519E-1,3.184225829E0,3.211939766E0
8.059045667E0,1.539746567E-1,-1.777027309E-2,2.417177555E0,2.422141885E0
8.069015667E0,4.971785143E-1,-4.894169202E-1,1.632439114E0,1.775266983E0
8.078985667E0,7.751109999E-1,-7.809111455E-1,8.652668792E-1,1.399752139E0
8.088955667E0,9.249548180E-1,-9.701133031E-1,3.124231642E-1,1.376324624E0
8.098925667E0,1.065041680E0,-1.134850418E0,-5.718109131E-2,1.557391707E0
8.108895667E0,1.265740487E0,-1.212782693E0,-2.529984963E-1,1.771143438E0
8.118865667E0,1.478187958E0,-1.062822661E0,-4.170567495E-1,1.867770858E0
8.128835667E0,1.529388955E0,-7.862478992E-1,-5.179779375E-1,1.795972572E0
8.138805667E0,1.469592989E0,-5.199335387E-1,-5.380257010E-1,1.649092506E0
8.148774667E0,1.405304461E0,-3.461554590E-1,-6.965483952E-1,1.606201699E0
8.158744667E0,1.353098765E0,-2.639444840E-1,-7.091585004E-1,1.550306014E0
8.168714667E0,1.270834288E0,-2.572859672E-1,-7.388395518E-1,1.492347058E0
8.178684667E0,1.065677857E0,-3.123085588E-1,-8.120443529E-1,1.375725976E0
8.188654667E0,6.962880479E-1,-3.837220654E-1,-8.847392768E-1,1.189463432E0
8.198624667E0,3.523988235E-1,-4.722185048E-1,-1.052510512E0,1.206214585E0
8.208594667E0,1.121514783E-1,-5.357777390E-1,-1.309489208E0,1.419294799E0
8.218564667E0,1.450357988E-2,-5.867970344E-1,-1.594407070E0,1.699021782E0
8.228534667E0,-1.220153108E-2,-5.690884495E-1,-1.843331811E0,1.929218159E0
8.238504667E0,6.185754821E-2,-4.963666284E-1,-1.994039117E0,2.055820562E0
8.248474667E0,2.124781506E-1,-4.547441009E-1,-2.181935298E0,2.238924029E0
8.258444667E0,3.846289685E-1,-4.002079976E-1,-2.376675062E0,2.440633162E0
8.268414667E0,5.397583772E-1,-3.065537292E-1,-2.480133941E0,2.556634245E0
8.278384667E0,7.180737501E-1,-2.749302328E-1,-2.478849308E0,2.595363257E0
8.288354667E0,9.632608049E-1,-2.970379704E-1,-2.477683958E0,2.674887050E0
8.298324667E0,1.170551032E0,-2.962646762E-1,-2.377077935E0,2.666169909E0
8.308294667E0,1.259622252E0,-3.163671112E-1,-2.258608668E0,2.605388547E0
8.318264667E0,1.206226356E0,-3.390262413E-1,-2.168514184E0,2.504470919E0
8.328234667E0,1.089185856E0,-3.487013367E-1,-2.029424127E0,2.329480787E0
8.338204667E0,9.645254114E-1,-3.864512533E-1,-1.921247714E0,2.184226778E0
8.348174667E0,8.555895911E-1,-4.260895282E-1,-1.841320369E0,2.074619612E0
8.358144667E0,8.380998382E-1,-4.530282354E-1,-1.733439240E0,1.977993306E0
8.368114667E0,8.855977942E-1,-4.694159344E-1,-1.763494513E0,2.028434783E0
8.378083667E0,8.710765265E-1,-3.867114544E-1,-1.776275357E0,2.015806094E0
8.388053667E0,7.915798290E-1,-2.817825848E-1,-1.666386879E0,1.866238270E0
8.398023667E0,6.536165299E-1,-1.080752563E-1,-1.676149975E0,1.802324490E0
8.407993667E0,5.476750687E-1,1.633244276E-1,-1.480785729E0,1.587245799E0
8.417963667E0,4.260132220E-1,4.876762041E-1,-1.201261924E0,1.364677821E0
8.427933667E0,3.126140758E-1,7.303151885E-1,-9.249739677E-1,1.219288594E0
8.437903667E0,1.671441212E-2,9.083134961E-1,-6.089670449E-1,1.093688091E0
8.447873667E0,-2.494895822E-1,1.089392994E0,-1.536297441E-1,1.128106487E0
8.457843667E0,-2.731499201E-1,1.198739727E0,1.748656619E-1,1.241839689E0
8.467813667E0,-2.071263586E-1,1.203734711E0,6.205731833E-1,1.370032722E0
8.477783667E0,-5.041235447E-2,1.090954785E0,1.052466073E0,1.516709789E0
8.487753667E0,1.442345841E-1,1.029371910E0,1.447167163E0,1.781769610E0
8.497723667E0,3.149221180E-1,1.152800785E0,1.764649923E0,2.131223813E0
8.507693667E0,3.736785954E-1,1.373681403E0,2.091376546E0,2.529919395E0
8.517663667E0,3.205624884E-1,1.413108301E0,2.371199729E0,2.778888903E0
8.527633667E0,5.623048022E-2,1.342987906E0,2.523895673E0,2.859515300E0
8.537603667E0,-2.891572393E-1,1.394389025E0,2.608286197E0,2.971714917E0
8.547573667E0,-5.808012995E-1,1.485673124E0,2.680081235E0,3.118876433E0
8.557543667E0,-8.537348543E-1,1.554627585E0,2.823378949E0,3.334246364E0
8.567513667E0,-9.961722967E-1,1.485355328E0,2.980956148E0,3.476311156E0
8.577483667E0,-1.023630237E0,1.243195816E0,3.063360958E0,3.460857561E0
8.587452667E0,-1.115214298E0,1.033191019E0,2.916118128E0,3.288606323E0
8.597422667E0,-1.095310230E0,7.750306007E-1,2.534598416E0,2.867850426E0
8.607392667E0,-8.943092684E-1,3.243503147E-1,1.986540062E0,2.202574315E0
8.617362667E0,-5.949943922E-1,-2.000542974E-1,1.327782807E0,1.468688950E0
8.627332667E0,-4.311058545E-1,-4.496061525E-1,7.224275869E-1,9.538865595E-1
8.637302667E0,-5.291680464E-1,-4.509673843E-1,2.967497027E-1,7.559436415E-1
8.647272667E0,-7.704620250E-1,-2.593897954E-1,1.302525759E-2,8.130587034E-1
8.657242667E0,-1.010459968E0,-1.341994464E-2,-4.352901220E-2,1.011486143E0
8.667212667E0,-1.159923571E0,2.092025587E-1,1.274213541E-1,1.185506053E0
8.677182667E0,-1.202003789E0,4.050845754E-1,3.781265724E-1,1.323588428E0
8.687152667E0,-1.053746467E0,3.637891996E-1,6.924869192E-1,1.312349927E0
8.697122667E0,-7.472548646E-1,2.045467132E-1,9.436447120E-1,1.220940020E0
8.707092292E0,-4.280574452E-1,-1.223208278E-2,1.134101390E0,1.212257713E0
8.717062292E0,-1.603781618E-1,-2.484704125E-1,1.230206811E0,1.265253926E0
8.727032292E0,5.338624835E-2,-3.971504885E-1,1.120213668E0,1.189729912E0
8.737002292E0,1.854461986E-1,-5.307804161E-1,8.460359716E-1,1.015822331E0
8.746972292E0,2.070467999E-1,-6.949588296E-1,3.258267367E-1,7.949837825E-1
8.756942292E0,2.641538143E-2,-7.607189557E-1,-2.592567712E-1,8.041176378E-1
8.766912292E0,-1.846097544E-1,-7.449931616E-1,-6.739606011E-1,1.021429618E0
8.776882292E0,-2.303669943E-1,-8.070528772E-1,-1.156055346E0,1.428589255E0
8.786852292E0,-2.413314007E-1,-8.146165431E-1,-1.657587989E0,1.862642987E0
8.796822292E0,-2.340827537E-1,-9.004527918E-1,-1.911601562E0,2.125989298E0
8.806791292E0,-2.057844226E-1,-1.122402573E0,-2.053882445E0,2.349588871E0
8.816761292E0,-2.133893113E-1,-1.187979974E0,-2.383388835E0,2.671586374E0
8.826731292E0,-3.301751648E-1,-1.093556796E0,-2.682873865E0,2.915937976E0
8.836701292E0,-4.650259911E-1,-1.072691884E0,-2.823576584E0,3.056059846E0
8.846671292E0,-5.514645030E-1,-1.129398182E0,-2.914998386E0,3.174408440E0
8.856641292E0,-6.538113883E-1,-1.186121436E0,-2.974880306E0,3.268679585E0
8.866611292E0,-7.478028949E-1,-1.228640926E0,-2.968119171E0,3.298256980E0
8.876581292E0,-8.057119645E-1,-1.244336023E0,-2.863432961E0,3.224405717E0
8.886551292E0,-8.362654205E-1,-1.189648477E0,-2.782893412E0,3.139920237E0
8.896521292E0,-8.866621336E-1,-1.086995051E0,-2.639085821E0,2.988729153E0
8.906491292E0,-9.943833411E-1,-1.046939870E0,-2.365249017E0,2.771152149E0
8.916461292E0,-1.028004100E0,-1.008514600E0,-2.015729363E0,2.477308820E0
8.926431292E0,-9.221760750E-1,-9.314836729E-1,-1.536492153E0,2.019623401E0
8.936401292E0,-7.498631613E-1,-8.683843222E-1,-9.879712844E-1,1.514091593E0
8.946371292E0,-7.349979311E-1,-7.925894970E-1,-6.204831362E-1,1.246362464E0
8.956341292E0,-8.296047109E-1,-6.946983361E-1,-2.493983656E-1,1.110427530E0
8.966311292E0,-9.637271203E-1,-5.586388904E-1,-9.198488832E-2,1.117724739E0
8.976281292E0,-1.113641836E0,-4.856182766E-1,9.892845690E-2,1.218938099E0
8.986251292E0,-1.139293863E0,-4.872937962E-1,3.285480309E-1,1.281947565E0
8.996221292E0,-1.068274459E0,-5.784255758E-1,4.663458538E-1,1.301255133E0
9.006190292E0,-9.164770862E-1,-6.603184623E-1,7.010133290E-1,1.329424841E0
9.016160292E0,-7.436132187E-1,-6.695494616E-1,9.787326837E-1,1.399705243E0
9.026130292E0,-4.145436162E-1,-5.268312067E-1,1.332344220E0,1.491488736E0
9.036100292E0,-1.742375247E-1,-2.547108534E-1,1.700874926E0,1.728644512E0
9.046070292E0,-1.596775192E-1,-2.154055774E-2,2.023650586E0,2.030054827E0
9.056040292E0,-2.529647286E-1,1.205666631E-1,2.264704975E0,2.281976358E0
9.066010292E0,-3.353752398E-1,1.816478473E-1,2.362626541E0,2.393214714E0
9.075980292E0,-4.092201649E-1,1.549067760E-1,2.311525970E0,2.352575091E0
9.085950292E0,-4.309257968E-1,6.211029410E-2,2.214223039E0,2.256621013E0
9.095920292E0,-3.942407678E-1,1.960571408E-2,2.141552673E0,2.177626694E0
9.105890292E0,-3.133022931E-1,6.361887574E-2,2.117753336E0,2.141748090E0
9.115860292E0,-1.690342337E-1,1.437453184E-1,2.150121768E0,2.161540863E0
9.125830292E0,-1.546325415E-2,1.768940610E-1,2.263015130E0,2.269970946E0
9.135800292E0,1.323192742E-1,1.892094666E-1,2.498939756E0,2.509583335E0
9.145770292E0,2.954624382E-1,2.383646697E-1,2.548987829E0,2.577102000E0
9.155740292E0,4.216899370E-1,1.700387853E-1,2.340740413E0,2.384491827E0
9.165710292E0,4.014715809E-1,-8.113333315E-2,1.972931253E0,2.014998704E0
9.175680292E0,3.962365687E-1,-4.249993148E-1,1.370871524E0,1.488931352E0
9.185649292E0,4.115396091E-1,-7.108553624E-1,7.084305221E-1,1.084690740E0
9.195619292E0,3.508634908E-1,-7.967603159E-1,2.388301080E-1,9.027580023E-1
9.205589292E0,3.291438621E-1,-8.705071539E-1,-2.979267472E-1,9.771789670E-1
9.215559292E0,2.921789342E-1,-8.558832675E-1,-5.933122945E-1,1.081630332E0
9.225529292E0,3.095211911E-1,-8.215726832E-1,-7.261136717E-1,1.139309486E0
9.235499292E0,4.387914348E-1,-8.277204457E-1,-7.245220596E-1,1.184310464E0
9.245469292E0,5.929952292E-1,-7.474887532E-1,-7.082282084E-1,1.188263428E0
9.255439292E0,7.094453064E-1,-5.057517019E-1,-6.067468572E-1,1.061715204E0
9.265409292E0,8.419356117E-1,-2.095832124E-1,-4.687163150E-1,9.861418159E-1
9.275379292E0,9.406871903E-1,1.907449454E-2,-3.143316954E-1,9.919983070E-1
9.285349292E0,1.121282685E0,1.973768574E-1,-1.232101893E-1,1.145169522E0
9.295319292E0,1.233790715E0,3.480192590E-1,-8.273517787E-2,1.284601901E0
9.305289292E0,1.187860837E0,4.631135130E-1,9.014652371E-3,1.274977944E0
9.315259292E0,1.100196602E0,4.600381699E-1,-3.793615043E-2,1.193108056E0
9.325229292E0,8.793035589E-1,3.856791285E-1,-2.350738567E-1,9.885255975E-1
9.335199292E0,6.419881721E-1,2.922748286E-1,-5.490816164E-1,8.939038035E-1
9.345169292E0,4.881331640E-1,1.876564461E-1,-9.713447267E-1,1.103177006E0
9.355139292E0,4.665260942E-1,9.482341915E-2,-1.375910654E0,1.455942377E0
9.365109292E0,5.532100430E-1,6.889160246E-2,-1.745166416E0,1.832046185E0
9.375079292E0,6.779260366E-1,1.003747657E-1,-2.053072606E0,2.164432011E0
9.385048292E0,8.305341259E-1,1.270105872E-1,-2.202395875E0,2.357215776E0
9.395018292E0,1.042718326E0,1.208087379E-1,-2.326482562E0,2.552327834E0
9.404988292E0,1.123623472E0,1.153591329E-1,-2.437640471E0,2.686620275E0
9.414958292E0,1.012332247E0,2.254206884E-1,-2.486236095E0,2.693882140E0
9.424928292E0,8.197805116E-1,4.235328332E-1,-2.568627457E0,2.729334564E0
9.434898292E0,7.102469596E-1,4.975354868E-1,-2.580164598E0,2.721992222E0
9.444868292E0,7.391042845E-1,3.408178282E-1,-2.431447100E0,2.564052834E0
9.454838292E0,8.683409066E-1,1.907294503E-1,-2.182870853E0,2.356972383E0
9.464808292E0,1.016900530E0,1.787581533E-1,-1.987521225E0,2.239705736E0
9.474778292E0,1.133903169E0,3.736882433E-1,-1.594155639E0,1.991660489E0
9.484748292E0,1.213382910E0,5.749523297E-1,-1.139721733E0,1.761202401E0
9.494718292E0,1.179486600E0,7.602362680E-1,-5.979696018E-1,1.525357489E0
9.504688292E0,1.051420445E0,8.818185925E-1,-4.931132376E-2,1.373142596E0
9.514658292E0,7.895597622E-1,8.912203306E-1,3.759075540E-1,1.248593122E0
9.524628292E0,5.341162527E-1,8.595626280E-1,6.938458121E-1,1.227008596E0
9.534598292E0,4.336159180E-1,7.572191048E-1,7.641205734E-1,1.159863694E0
9.544568292E0,4.077418426E-1,5.897431540E-1,7.080738419E-1,1.007679991E0
9.554537292E0,4.237288611E-1,3.341990724E-1,6.050178355E-1,8.107291465E-1
9.564507292E0,4.337911883E-1,8.392742515E-2,4.366729885E-1,6.212100343E-1
9.574477292E0,3.598983161E-1,-4.040835321E-2,2.484809375E-1,4.392065679E-1
9.584447292E0,2.715939577E-1,-8.540180057E-2,1.614381158E-1,3.272904072E-1
9.594417292E0,2.693708463E-1,-5.769447684E-3,2.466437423E-1,3.652767102E-1
9.604387292E0,3.057080756E-1,2.045826736E-1,6.445227939E-1,7.421058750E-1
9.614357292E0,4.488768585E-1,4.162393087E-1,8.010638666E-1,1.008190912E0
9.624327292E0,6.682526954E-1,5.526367235E-1,1.052906953E0,1.364031548E0
9.634297292E0,8.838418753E-1,4.634663925E-1,1.132760623E0,1.509676848E0
9.644267292E0,1.050663084E0,3.165691325E-1,9.653694570E-1,1.461522193E0
9.654237292E0,1.001870116E0,2.582513425E-1,7.765260261E-1,1.293611284E0
9.664207292E0,8.472796744E-1,2.668394405E-1,6.261555201E-1,1.086810411E0
9.674177292E0,6.345030051E-1,2.947218883E-1,3.252841151E-1,7.715340631E-1
9.684147292E0,3.094029312E-1,4.454031739E-1,2.853903168E-1,6.128309670E-1
9.694117292E0,3.265538380E-2,6.556453675E-1,5.536155474E-1,8.587359294E-1
9.704087333E0,-2.551710293E-1,8.636969018E-1,8.543869650E-1,1.241395053E0
9.714057333E0,-3.408409247E-1,9.375048432E-1,1.200394782E0,1.560780413E0
9.724027333E0,-2.203840430E-1,7.569445780E-1,1.449979674E0,1.650446992E0
9.733996333E0,-1.408157171E-1,5.802712494E-1,1.544203461E0,1.655629221E0
9.743966333E0,-1.077925435E-1,4.214848459E-1,1.600695750E0,1.658763272E0
9.753936333E0,-1.190634902E-1,-3.136738837E-2,1.450495983E0,1.455712411E0
9.763906333E0,-1.178901002E-1,-4.612272012E-1,1.079947987E0,1.180218734E0
9.773876333E0,-1.166709557E-1,-7.987594789E-1,5.927006757E-1,1.001460388E0
9.783846333E0,-1.877003002E-1,-1.028852093E0,1.526111591E-1,1.056909739E0
9.793816333E0,-3.398061137E-1,-1.093454470E0,-1.638243645E-1,1.156697582E0
9.803786333E0,-4.998679411E-1,-1.120951002E0,-2.363204831E-1,1.249898587E0
9.813756333E0,-6.692844366E-1,-1.078838185E0,-1.863864309E-1,1.283188758E0
9.823726333E0,-7.615881443E-1,-9.088759983E-1,-1.663877839E-1,1.197395915E0
9.833696333E0,-7.081462012E-1,-7.678522664E-1,-6.979879797E-2,1.046871538E0
9.843666333E0,-5.137867995E-1,-7.204389489E-1,5.454809010E-2,8.865577525E-1
9.853636333E0,-2.553752433E-1,-7.460561854E-1,1.379644686E-1,8.005314117E-1
9.863606333E0,-8.431831151E-3,-7.693058842E-1,1.863554406E-1,7.916002713E-1
9.873576333E0,1.322910614E-1,-7.514385474E-1,2.047121894E-1,7.899796807E-1
9.883546333E0,1.720215762E-1,-7.036442837E-1,1.638758200E-1,7.426721922E-1
9.893516333E0,3.100062177E-2,-6.054639781E-1,3.584810972E-2,6.073160250E-1
9.903486333E0,-2.214132991E-1,-4.736034179E-1,-1.370090336E-1,5.404586217E-1
9.913455333E0,-4.725374705E-1,-4.106499553E-1,-3.645434904E-1,7.244425465E-1
9.923425333E0,-6.092026877E-1,-3.929024863E-1,-5.817219436E-1,9.294625857E-1
9.933395333E0,-6.774434951E-1,-4.059303752E-1,-8.201895243E-1,1.138604415E0
9.943365333E0,-7.443064061E-1,-3.888605985E-1,-1.051988940E0,1.346062897E0
9.953335333E0,-7.804606175E-1,-3.960979897E-1,-1.262370005E0,1.536095838E0
9.963305333E0,-7.105495530E-1,-4.693270567E-1,-1.432749683E0,1.666709395E0
9.973275333E0,-5.911325987E-1,-4.982058701E-1,-1.557045701E0,1.738401033E0
9.983245333E0,-5.357132734E-1,-4.341481608E-1,-1.691100136E0,1.826278458E0
9.993215333E0,-4.286007611E-1,-3.700837272E-1,-1.792556929E0,1.879872581E0
1.000318533E1,-2.937899883E-1,-3.962330604E-1,-1.820679697E0,1.886315922E0
1.001315533E1,-1.674788743E-1,-4.171725243E-1,-1.844734558E0,1.898717377E0
1.002312533E1,-1.011413357E-1,-3.618467546E-1,-1.898813701E0,1.935628093E0
1.003309533E1,-7.381218061E-2,-3.181025648E-1,-1.972410266E0,1.999259797E0
1.004306533E1,-7.788505867E-2,-3.770740736E-1,-2.038794875E0,2.074833844E0
1.005303533E1,-1.486021619E-1,-4.143342859E-1,-2.081953758E0,2.127977198E0
1.006300533E1,-2.745646356E-1,-3.502107954E-1,-2.065555826E0,2.112949174E0
1.007297433E1,-3.654438154E-1,-2.393066561E-1,-1.915584685E0,1.964759920E0
1.008294433E1,-4.234419090E-1,-1.357936898E-1,-1.702639031E0,1.759750735E0
1.009291433E1,-4.524309424E-1,-9.081018269E-2,-1.290462953E0,1.370487096E0
1.010288433E1,-4.462292393E-1,-7.409767091E-2,-8.866021997E-1,9.953263079E-1
1.011285433E1,-4.388060528E-1,-2.685041428E-2,-5.359411687E-1,6.931844149E-1
1.012282433E1,-4.783655365E-1,1.630232960E-2,-2.304276592E-1,5.312214779E-1
1.013279433E1,-4.868733814E-1,5.483869672E-2,9.185975790E-3,4.900381152E-1
1.014276433E1,-5.095038602E-1,1.031951702E-1,2.111727780E-1,5.611037060E-1
1.015273433E1,-4.992118835E-1,1.267343062E-1,4.513185096E-1,6.848083572E-1
1.016270433E1,-3.799321926E-1,1.194551075E-1,6.274781603E-1,7.432004005E-1
1.017267433E1,-3.218387894E-1,1.049750626E-1,6.307373983E-1,7.158419069E-1
1.018264433E1,-3.932251064E-1,1.408833987E-1,7.239823616E-1,8.358376494E-1
1.019261433E1,-5.039105599E-1,2.127936262E-1,8.231499696E-1,9.883232528E-1
1.020258433E1,-6.366160427E-1,2.766037059E-1,1.060605982E0,1.267546703E0
1.021255433E1,-7.082568598E-1,4.107101816E-1,1.276009805E0,1.516084317E0
1.022252433E1,-5.851839338E-1,5.659093183E-1,1.524548630E0,1.728277211E0
1.023249433E1,-2.651498875E-1,5.954383421E-1,1.682693594E0,1.804524595E0
1.024246333E1,4.599039763E-2,4.630462700E-1,1.789708750E0,1.849211825E0
1.025243333E1,3.293640098E-1,3.098965824E-1,1.960923995E0,2.012396447E0
1.026240333E1,5.716647327E-1,2.550742579E-1,2.014324862E0,2.109352529E0
1.027237333E1,5.984087276E-1,2.799851507E-1,2.059532025E0,2.162904725E0
1.028234333E1,4.903477970E-1,4.022551078E-1,2.320578629E0,2.405688115E0
1.029231333E1,4.628491823E-1,4.831241468E-1,2.725611164E0,2.806527129E0
1.030228333E1,4.805235976E-1,4.953316712E-1,2.957523431E0,3.036972380E0
1.031225333E1,4.805427472E-1,5.222367570E-1,2.946721870E0,3.030977126E0
1.032222333E1,4.532646091E-1,5.143000388E-1,2.652275385E0,2.739437544E0
1.033219333E1,4.883762620E-1,3.805040503E-1,2.220069669E0,2.304778524E0
1.034216333E1,6.262625241E-1,-5.317457914E-2,1.563963541E0,1.685530849E0
1.035213333E1,6.144689825E-1,-3.168179315E-1,8.195170945E-1,1.072172561E0
1.036210333E1,4.985878395E-1,-2.249739611E-1,2.059927297E-1,5.844964683E-1
1.037207333E1,4.582666098E-1,-2.237755743E-1,-2.828736752E-1,5.831820551E-1
1.038204333E1,4.320441864E-1,-3.122477478E-1,-5.080096042E-1,7.363658011E-1
1.039201333E1,4.814383945E-1,-3.590985632E-1,-5.637253833E-1,8.237238697E-1
1.040198233E1,5.403422217E-1,-2.640772158E-1,-4.569037700E-1,7.552930209E-1
1.041195233E1,5.929062054E-1,-9.458105206E-2,-3.371639031E-1,6.885948310E-1
1.042192233E1,6.867874919E-1,-4.370179743E-2,-1.261624485E-1,6.996455313E-1
1.043189233E1,7.911633611E-1,-1.331738448E-1,1.187247902E-1,8.110304018E-1
1.044186233E1,8.962951291E-1,-2.862460569E-1,3.348963529E-1,9.987178433E-1
1.045183233E1,9.019004162E-1,-4.247899845E-1,3.940725142E-1,1.071990689E0
1.046180233E1,7.702559106E-1,-5.008710310E-1,4.092156333E-1,1.005794906E0
1.047177233E1,6.253238998E-1,-5.544218785E-1,2.309650183E-1,8.670400445E-1
1.048174233E1,5.753416081E-1,-6.394634905E-1,-1.120525324E-1,8.674602537E-1
1.049171233E1,5.228780504E-1,-7.017255199E-1,-6.969676405E-1,1.118742174E0
1.050168233E1,4.136252744E-1,-6.518864849E-1,-1.215468904E0,1.439932815E0
1.051165233E1,3.913251999E-1,-5.913792050E-1,-1.756695955E0,1.894424835E0
1.052162233E1,3.861764342E-1,-6.899384102E-1,-2.316082705E0,2.447322280E0
1.053159233E1,3.069516322E-1,-7.328531724E-1,-2.756741155E0,2.868957106E0
1.054156233E1,1.732375047E-1,-6.213029158E-1,-3.110743285E0,3.176909242E0
1.055153233E1,1.127838364E-2,-4.483598185E-1,-3.242822531E0,3.273690837E0
1.056150133E1,-6.450122058E-2,-1.937001282E-1,-3.326309661E0,3.332568996E0
1.057147133E1,-3.760563657E-2,3.331158757E-2,-3.267231733E0,3.267617946E0
1.058144133E1,1.815421589E-1,1.129290301E-1,-2.990698779E0,2.998331153E0
1.059141133E1,4.269749428E-1,7.955663145E-2,-2.770394404E0,2.804232874E0
1.060138133E1,5.444377577E-1,1.312179512E-1,-2.465418838E0,2.528224806E0
1.061135133E1,5.708731659E-1,2.157651812E-1,-2.138736069E0,2.224104934E0
1.062132133E1,5.108829260E-1,2.423062778E-1,-1.900231651E0,1.982572577E0
1.063129133E1,3.814281661E-1,3.068124685E-1,-1.738025796E0,1.805645315E0
1.064126133E1,2.657104893E-1,3.615736896E-1,-1.588827072E0,1.650972156E0
1.065123133E1,2.328030722E-1,2.967944339E-1,-1.402822464E0,1.452651050E0
1.066120133E1,1.629908440E-1,2.633463138E-1,-1.222955094E0,1.261561119E0
1.067117133E1,4.488205791E-2,3.665303743E-1,-1.181902378E0,1.238245591E0
1.068114133E1,-3.796905929E-2,4.731669232E-1,-1.156392145E0,1.250028552E0
1.069111133E1,-1.228719279E-2,5.505697328E-1,-1.164715072E0,1.288347470E0
1.070108133E1,7.717316017E-2,6.399005699E-1,-1.143131830E0,1.312318108E0
1.071105042E1,1.697750759E-1,7.814090359E-1,-1.190385518E0,1.434029755E0
1.072102042E1,2.392382437E-1,9.650461060E-1,-1.251217026E0,1.598152987E0
1.073099042E1,2.379122414E-1,1.080364601E0,-1.168177208E0,1.608859191E0
1.074096042E1,2.378566928E-1,1.169629364E0,-8.763227946E-1,1.480726273E0
1.075093042E1,1.790834047E-1,1.322309228E0,-4.773011971E-1,1.417176416E0
1.076090042E1,1.742072654E-1,1.437116384E0,7.890349746E-2,1.449785306E0
1.077087042E1,3.264357242E-1,1.379891146E0,7.519063246E-1,1.604999370E0
1.078084042E1,5.101729278E-1,1.238477697E0,1.356390309E0,1.906278598E0
1.079081042E1,5.643459190E-1,1.214543290E0,1.825162758E0,2.263806708E0
1.080078042E1,5.721925901E-1,1.199079158E0,2.264293331E0,2.625303692E0
1.081075042E1,5.526903717E-1,1.260064740E0,2.585556316E0,2.928878840E0
1.082072042E1,4.277103764E-1,1.374161167E0,2.866828439E0,3.207796810E0
1.083069042E1,2.814567487E-1,1.537198496E0,2.967835581E0,3.354138511E0
1.084066042E1,2.079614689E-1,1.687294183E0,3.137161006E0,3.568191252E0
1.085063042E1,1.104207207E-1,1.796570458E0,3.383070922E0,3.832104776E0
1.086059942E1,1.177731559E-1,1.802807390E0,3.789666418E0,4.198280191E0
1.087056942E1,3.552233210E-1,1.654444233E0,4.136306319E0,4.469049037E0
1.088053942E1,5.210269681E-1,1.401548941E0,4.112418104E0,4.375818918E0
1.089050942E1,4.027141142E-1,1.106973233E0,3.840922526E0,4.017493528E0
1.090047942E1,2.262219031E-1,6.259134454E-1,3.196125498E0,3.264684087E0
1.091044942E1,-8.193674058E-2,-2.741467059E-3,2.272954227E0,2.274432250E0
1.092041942E1,-4.723886588E-1,-4.554697403E-1,1.237871926E0,1.401046264E0
1.093038942E1,-9.653517692E-1,-6.771417788E-1,4.260538602E-1,1.253773073E0
1.094035942E1,-1.418258967E0,-6.798382223E-1,-1.631560278E-1,1.581220540E0
1.095032942E1,-1.786518071E0,-4.761036873E-1,-4.765457368E-1,1.909297614E0
1.096029942E1,-2.041078066E0,-3.089370543E-1,-4.120491940E-1,2.105047817E0
1.097026942E1,-2.128289141E0,-2.743238765E-1,-1.508026153E-1,2.151187971E0
1.098023942E1,-2.016987391E0,-1.995704404E-1,2.896997148E-1,2.047435572E0
1.099020942E1,-1.578290828E0,-2.268041396E-1,6.949070817E-1,1.739349852E0
1.100017942E1,-1.078990797E0,-4.611693138E-1,9.494492429E-1,1.509421128E0
1.101014842E1,-7.310341036E-1,-7.917510062E-1,1.105875710E0,1.544098962E0
1.102011842E1,-5.690928714E-1,-1.078739075E0,1.110744102E0,1.649635459E0
1.103008842E1,-4.882259886E-1,-1.196434463E0,9.114598829E-1,1.581321965E0
1.104005842E1,-4.819447634E-1,-1.290928391E0,4.633947641E-1,1.453788696E0
1.105002842E1,-6.553706945E-1,-1.353000678E0,-1.029753149E-1,1.506892663E0
1.105999842E1,-9.300613376E-1,-1.329061593E0,-7.080025059E-1,1.769939648E0
1.106996842E1,-1.058952389E0,-1.336646601E0,-1.206112774E0,2.088710684E0
1.107993842E1,-9.869108918E-1,-1.377339129E0,-1.673975396E0,2.381858478E0
1.108990842E1,-8.720598820E-1,-1.365788831E0,-2.012792307E0,2.584027949E0
1.109987842E1,-7.868270659E-1,-1.278178245E0,-2.352990915E0,2.790950143E0
1.110984842E1,-6.975400829E-1,-1.182262274E0,-2.641929907E0,2.977263825E0
1.111981842E1,-6.565383835E-1,-1.157185905E0,-2.790981866E0,3.091876718E0
1.112978842E1,-6.593356915E-1,-1.122706336E0,-2.836393096E0,3.120948392E0
1.113975842E1,-6.649018022E-1,-1.010913420E0,-2.868503666E0,3.113254508E0
1.114972742E1,-7.283753747E-1,-9.342096448E-1,-2.950914323E0,3.179807178E0
1.115969742E1,-8.158139066E-1,-8.977832454E-1,-2.909712503E0,3.152458396E0
1.116966742E1,-8.736649427E-1,-9.037304485E-1,-2.877225958E0,3.139816613E0
1.117963742E1,-8.919923092E-1,-8.907174700E-1,-2.895426586E0,3.157930177E0
1.118960742E1,-9.096140631E-1,-8.485087591E-1,-2.810335565E0,3.073328951E0
1.119957742E1,-8.908599959E-1,-7.903991300E-1,-2.646472024E0,2.902098635E0
1.120954742E1,-7.766295218E-1,-6.827454579E-1,-2.411693451E0,2.624035076E0
1.121951742E1,-6.132074457E-1,-5.110940105E-1,-2.034776668E0,2.185762235E0
1.122948742E1,-4.304221688E-1,-3.168778655E-1,-1.627271930E0,1.712801436E0
1.123945742E1,-2.768832759E-1,-1.787397346E-1,-1.261667170E0,1.304000111E0
1.124942742E1,-2.613494166E-1,-4.772117347E-2,-7.905686992E-1,8.340142062E-1
1.125939742E1,-2.969363020E-1,1.017927155E-1,-3.869810110E-1,4.982842836E-1
1.126936742E1,-3.660204971E-1,1.809610918E-1,-3.538150191E-3,4.083263885E-1
1.127933742E1,-5.285358893E-1,1.031723660E-1,3.319166118E-1,6.325846667E-1
1.128930642E1,-6.512636103E-1,1.904175013E-2,7.458035856E-1,9.903180634E-1
1.129927642E1,-6.200747082E-1,7.713062167E-2,1.047346251E0,1.219580234E0
1.130924642E1,-5.247916248E-1,1.606233063E-1,1.323484519E0,1.432765636E0
1.131921642E1,-3.861707331E-1,1.031542397E-1,1.700428784E0,1.746776082E0
1.132918642E1,-2.106821966E-1,5.964920104E-2,2.062199525E0,2.073791671E0
1.133915642E1,-4.374740571E-3,1.210016960E-1,2.271551480E0,2.274776181E0
1.134912642E1,1.121305928E-1,2.296195740E-1,2.419032292E0,2.432491654E0
1.135909642E1,1.637835802E-1,3.340797892E-1,2.379170653E0,2.408087906E0
1.136906642E1,1.593335567E-1,4.373822558E-1,2.167906659E0,2.217320387E0
1.137903642E1,1.190900219E-1,4.674445456E-1,2.021667795E0,2.078419474E0
1.138900642E1,1.795805642E-1,4.266105151E-1,1.880502561E0,1.936629957E0
1.139897642E1,3.107616779E-1,3.563255212E-1,1.707863519E0,1.772100024E0
1.140894642E1,3.819794489E-1,3.643712899E-1,1.694863989E0,1.775172858E0
1.141891642E1,3.692956688E-1,3.930051050E-1,1.864030370E0,1.940474561E0
1.142888542E1,3.769782523E-1,4.785153714E-1,2.195365768E0,2.278315259E0
1.143885542E1,5.150612001E-1,5.024991882E-1,2.429180135E0,2.533517239E0
1.144882542E1,5.776449725E-1,3.874809480E-1,2.435099271E0,2.532493565E0
1.145879542E1,5.900553954E-1,1.196875343E-1,2.276610491E0,2.354877025E0
1.146876542E1,6.969363579E-1,-1.444709578E-1,1.867425848E0,1.998467273E0
1.147873542E1,7.488037920E-1,-3.207993007E-1,1.177425165E0,1.431764411E0
1.148870542E1,6.276055565E-1,-3.020335391E-1,5.880790365E-1,9.115645596E-1
1.149867542E1,5.189748877E-1,-2.411058444E-1,1.394280267E-1,5.889882316E-1
1.150864542E1,5.162803080E-1,-3.670308959E-1,-2.663968062E-1,6.871857779E-1
1.151861542E1,5.148712752E-1,-5.693577138E-1,-4.668703490E-1,8.984589913E-1
1.152858542E1,5.668524742E-1,-6.128361475E-1,-6.158778691E-1,1.037398391E0
1.153855542E1,6.849786557E-1,-5.869031614E-1,-6.384668326E-1,1.105120345E0
1.154852542E1,7.667692159E-1,-5.067822737E-1,-6.022117567E-1,1.098827695E0
1.155849542E1,7.776407978E-1,-4.791609040E-1,-4.593555075E-1,1.022412766E0
1.156846442E1,6.834035620E-1,-5.344346336E-1,-2.784409010E-1,9.111477056E-1
1.157843442E1,5.622074461E-1,-4.770316404E-1,-1.383696806E-1,7.501883543E-1
1.158840442E1,4.354264352E-1,-4.661602047E-1,-1.589401853E-1,6.573914355E-1
1.159837442E1,3.170394679E-1,-6.006031877E-1,-2.248283654E-1,7.153922051E-1
1.160834442E1,2.012614551E-1,-7.053747672E-1,-4.670334864E-1,8.695861159E-1
1.161831442E1,7.473775830E-2,-7.227079609E-1,-7.926152247E-1,1.075235520E0
1.162828442E1,-8.573757693E-2,-7.152758574E-1,-1.119288054E0,1.331080851E0
1.163825442E1,-1.975701079E-1,-6.879798853E-1,-1.410527340E0,1.581751449E0
1.164822442E1,-2.316054346E-1,-6.227103406E-1,-1.729202347E0,1.852444332E0
1.165819442E1,-2.063745528E-1,-4.703418410E-1,-1.956830360E0,2.023115657E0
1.166816442E1,-9.041754216E-2,-3.053752229E-1,-2.165922114E0,2.189211721E0
1.167813442E1,1.931466892E-2,-2.135730600E-1,-2.267602855E0,2.277720180E0
1.168810442E1,1.462416409E-1,-1.586849543E-1,-2.341329812E0,2.351253458E0
1.169807342E1,3.283202818E-1,-1.287115422E-1,-2.318330959E0,2.344998786E0
1.170804267E1,4.784555836E-1,-7.893156409E-2,-2.283068740E0,2.333999317E0
1.171801267E1,5.207727238E-1,1.899672657E-2,-2.220403545E0,2.280736068E0
1.172798267E1,5.045158563E-1,3.892462224E-2,-2.077807497E0,2.138535801E0
1.173795267E1,4.978027046E-1,1.278727591E-2,-1.957989278E0,2.020320039E0
1.174792267E1,4.782784130E-1,7.083317041E-2,-1.791097464E0,1.855208264E0
1.175789267E1,4.770329560E-1,1.764941114E-1,-1.571274900E0,1.651549401E0
1.176786267E1,5.475603171E-1,1.944357079E-1,-1.398382673E0,1.514299061E0
1.177783267E1,6.441267912E-1,1.913153413E-1,-1.265716951E0,1.433017894E0
1.178780267E1,6.146806517E-1,2.389569926E-1,-1.112657896E0,1.293421950E0
1.179777267E1,5.496802251E-1,3.162413961E-1,-9.733947605E-1,1.161746242E0
1.180774267E1,4.624792363E-1,4.083759731E-1,-9.644607997E-1,1.144920352E0
1.181771267E1,3.850100608E-1,4.809223777E-1,-9.365637338E-1,1.121013251E0
1.182768167E1,3.445524448E-1,5.480624467E-1,-8.652312112E-1,1.080608107E0
1.183765167E1,2.745415391E-1,6.261093271E-1,-8.390269142E-1,1.082290215E0
1.184762167E1,1.227821549E-1,7.614972201E-1,-6.979914880E-1,1.040262270E0
1.185759167E1,3.123684928E-2,8.762280697E-1,-4.707797974E-1,9.951808823E-1
1.186756167E1,7.813487182E-2,9.324975801E-1,-2.668745238E-1,9.730769787E-1
1.187753167E1,1.006580542E-1,9.604463938E-1,-3.833960831E-2,9.664674049E-1
1.188750167E1,7.987603560E-2,9.877134222E-1,2.540562576E-1,1.022987081E0
1.189747167E1,2.218411691E-1,8.983866781E-1,5.495686895E-1,1.076261061E0
1.190744167E1,3.867591092E-1,7.669500411E-1,7.507082301E-1,1.140770714E0
1.191741167E1,4.585731500E-1,7.689679152E-1,9.676054323E-1,1.318279660E0
1.192738167E1,3.834127477E-1,8.326400006E-1,1.178513916E0,1.493047138E0
1.193735167E1,1.961616598E-1,8.595366079E-1,1.395739147E0,1.650869572E0
1.194732167E1,-9.194191128E-2,9.531856138E-1,1.479992262E0,1.762779971E0
1.195729067E1,-3.495205316E-1,1.104011326E0,1.638914321E0,2.006750049E0
1.196726067E1,-4.736212519E-1,1.143755435E0,1.936040000E0,2.297987047E0
1.197723067E1,-4.883777238E-1,1.039680551E0,2.408231315E0,2.668150392E0
1.198720067E1,-4.055237013E-1,9.161528581E-1,2.990889398E0,3.154236028E0
1.199717067E1,-2.922341904E-1,8.515270919E-1,3.298791495E0,3.419433365E0
1.200714067E1,-2.538594988E-1,6.732469484E-1,3.230455670E0,3.309614772E0
1.201711067E1,-3.597649996E-1,3.017230520E-1,2.870687016E0,2.908833374E0
1.202708067E1,-5.051295581E-1,-2.155415252E-1,2.341496458E0,2.405040474E0
1.203705067E1,-6.258476642E-1,-5.701827559E-1,1.632530331E0,1.839007601E0
1.204702067E1,-8.248494628E-1,-5.868087289E-1,9.304744434E-1,1.374955930E0
1.205699067E1,-1.041246289E0,-5.584219587E-1,5.237678504E-1,1.292424729E0
1.206696067E1,-1.197650684E0,-5.381367981E-1,4.852925867E-1,1.399809726E0
1.207692967E1,-1.312080548E0,-3.960544279E-1,4.225402683E-1,1.434208755E0
1.208689967E1,-1.320136257E0,-1.149732167E-1,5.321691298E-1,1.427999496E0
1.209686967E1,-1.220048735E0,5.835930526E-2,9.518138570E-1,1.548507134E0
1.210683967E1,-9.136527349E-1,-1.610080531E-1,1.128552967E0,1.460930085E0
1.211680967E1,-5.971388586E-1,-4.338131154E-1,1.286185715E0,1.482916831E0
1.212677967E1,-3.996263458E-1,-6.554085553E-1,1.193311465E0,1.418891766E0
1.213674967E1,-3.669862013E-1,-8.452328566E-1,1.078835846E0,1.418796757E0
1.214671967E1,-3.548254180E-1,-9.843509808E-1,7.754881454E-1,1.302393871E0
1.215668967E1,-3.791023630E-1,-1.030531121E0,2.385716611E-1,1.123667847E0
1.216665967E1,-4.741888703E-1,-9.815563041E-1,-3.088288808E-1,1.132997414E0
1.217662967E1,-6.407751672E-1,-9.392458516E-1,-8.480468291E-1,1.418435409E0
1.218659967E1,-7.827818160E-1,-9.592597014E-1,-1.287925846E0,1.786527226E0
1.219656867E1,-7.321132073E-1,-1.043679462E0,-1.542591383E0,2.001210820E0
1.220653867E1,-5.063681446E-1,-1.072623472E0,-1.716522076E0,2.086474981E0
1.221650867E1,-3.493490620E-1,-8.668052816E-1,-1.885766809E0,2.104640734E0
1.222647867E1,-2.481587559E-1,-6.450069433E-1,-2.056092108E0,2.169131504E0
1.223644867E1,-2.159274414E-1,-5.982944146E-1,-2.203878145E0,2.293830801E0
1.224641867E1,-3.360165332E-1,-7.149969453E-1,-2.395155187E0,2.522081702E0
1.225638867E1,-5.355014580E-1,-7.585990477E-1,-2.567787212E0,2.730524765E0
1.226635867E1,-7.357147998E-1,-6.905526602E-1,-2.788496214E0,2.965442695E0
1.227632867E1,-8.344342187E-1,-6.758369726E-1,-2.849267496E0,3.044891023E0
1.228629867E1,-8.723595518E-1,-7.173989815E-1,-2.837243282E0,3.053788127E0
1.229626867E1,-7.513465999E-1,-7.689404333E-1,-2.689350241E0,2.896272746E0
1.230623867E1,-5.221328227E-1,-8.197118068E-1,-2.455369813E0,2.640717905E0
1.231620867E1,-3.186725222E-1,-7.408270204E-1,-2.176324895E0,2.320940951E0
1.232617767E1,-1.958726612E-1,-5.779224229E-1,-1.849794154E0,1.947844664E0
1.233614767E1,-1.448024949E-1,-4.014040455E-1,-1.502232732E0,1.561664545E0
1.234611767E1,-1.086954997E-1,-2.307404852E-1,-1.276534300E0,1.301766378E0
1.235608767E1,-1.071518348E-1,-1.606212598E-1,-1.106386757E0,1.123108348E0
1.236605767E1,-1.565632921E-1,-1.637395799E-1,-8.905905855E-1,9.189528309E-1
1.237602767E1,-2.486303338E-1,-6.590601414E-2,-6.429218262E-1,6.924659705E-1
1.238599767E1,-2.812313385E-1,1.155269480E-1,-3.817886835E-1,4.880575175E-1
1.239596767E1,-2.255489069E-1,2.153029588E-1,-2.060500324E-2,3.124935833E-1
1.240593767E1,-1.134707929E-1,2.239337415E-1,3.444980657E-1,4.262638369E-1
1.241590767E1,7.353780001E-2,2.094455105E-1,6.751119179E-1,7.106696360E-1
1.242587767E1,2.975772299E-1,1.649786049E-1,9.803044152E-1,1.037673790E0
1.243584667E1,4.495897437E-1,1.466888067E-1,1.223562620E0,1.311775144E0
1.244581667E1,5.402045198E-1,1.831184220E-1,1.537563363E0,1.639955601E0
1.245578667E1,5.309850687E-1,2.730772501E-1,1.719279038E0,1.820010093E0
1.246575667E1,3.726579639E-1,3.965631357E-1,1.834816511E0,1.913815014E0
1.247572667E1,1.322967625E-1,5.637148583E-1,1.947791149E0,2.032035245E0
1.248569667E1,-1.250324741E-2,6.515593332E-1,1.979248585E0,2.083773225E0
1.249566667E1,-5.492099628E-2,6.667620939E-1,1.970695277E0,2.081160225E0
1.250563667E1,-4.867777795E-2,6.580123204E-1,2.022482897E0,2.127389670E0
1.251560667E1,5.051394984E-2,5.932450515E-1,2.094866749E0,2.177833338E0
1.252557667E1,2.322846983E-1,5.270051613E-1,1.932090206E0,2.016100985E0
1.253554667E1,3.603479670E-1,4.537497818E-1,1.724235722E0,1.818991025E0
1.254551667E1,4.673470068E-1,4.410177621E-1,1.664625698E0,1.784345428E0
1.255548567E1,6.689735109E-1,4.578855175E-1,1.598443403E0,1.792262820E0
1.256545567E1,8.360226148E-1,4.066472438E-1,1.523458709E0,1.784719090E0
1.257542567E1,9.169527572E-1,2.895210823E-1,1.477883756E0,1.763169082E0
1.258539567E1,9.001724178E-1,9.513302922E-2,1.336355994E0,1.614065680E0
1.259536567E1,7.699129714E-1,-1.328431848E-1,1.138538257E0,1.380826802E0
1.260533567E1,6.573694190E-1,-2.546813250E-1,8.701218224E-1,1.119870134E0
1.261530567E1,6.167856494E-1,-4.433297512E-1,6.491157818E-1,9.991581975E-1
1.262527567E1,6.249255583E-1,-7.137397939E-1,5.113413477E-1,1.077694957E0
1.263524567E1,6.687820145E-1,-8.992351091E-1,3.610427624E-1,1.177389078E0
1.264521567E1,7.313097998E-1,-1.100201865E0,3.187972140E-1,1.359003249E0
1.265518567E1,7.869412328E-1,-1.187191769E0,3.491664827E-1,1.466498562E0
1.266515567E1,8.171228059E-1,-1.098533946E0,2.517238033E-1,1.392060122E0
1.267512467E1,8.241226539E-1,-1.017410846E0,1.574655175E-1,1.318748788E0
1.268509467E1,8.474084593E-1,-9.776652744E-1,-5.167944610E-2,1.294836380E0
1.269506467E1,9.365268964E-1,-8.920173061E-1,-2.867410237E-1,1.324763344E0
1.270503467E1,1.016962803E0,-7.306280145E-1,-5.919159794E-1,1.385061430E0
1.271500521E1,9.963656934E-1,-5.723111424E-1,-8.756597203E-1,1.444667638E0
1.272497521E1,8.829140684E-1,-4.488325658E-1,-1.124519557E0,1.498509980E0
1.273494521E1,7.575697915E-1,-3.914886296E-1,-1.370010813E0,1.613723943E0
1.274491521E1,6.645041916E-1,-4.201113349E-1,-1.647399216E0,1.825372162E0
1.275488521E1,6.193195403E-1,-4.700608823E-1,-1.845775947E0,2.002848664E0
1.276485521E1,5.906357315E-1,-5.030827403E-1,-2.078590440E0,2.218666497E0
1.277482521E1,5.560747401E-1,-4.629129535E-1,-2.343548246E0,2.452697678E0
1.278479421E1,4.892682548E-1,-4.154312235E-1,-2.562469169E0,2.641631082E0
1.279476421E1,4.620265156E-1,-4.843701884E-1,-2.709250070E0,2.790720144E0
1.280473421E1,4.681802715E-1,-5.184609175E-1,-2.767551488E0,2.854353819E0
1.281470421E1,4.947660993E-1,-4.329781330E-1,-2.646326428E0,2.726775957E0
1.282467421E1,4.557292105E-1,-2.469007275E-1,-2.504754812E0,2.557820508E0
1.283464421E1,2.909160818E-1,-2.394434810E-2,-2.252583112E0,2.271417217E0
1.284461421E1,1.472102322E-1,1.033717561E-1,-1.937056831E0,1.945390896E0
1.285458421E1,1.038180448E-1,5.971352041E-2,-1.684583999E0,1.688836031E0
1.286455421E1,1.523983204E-1,-1.881692469E-2,-1.429226151E0,1.437451466E0
1.287452421E1,2.211959289E-1,-3.712046385E-2,-1.241857388E0,1.261949024E0
1.288449421E1,2.419919899E-1,2.503865451E-2,-1.032696052E0,1.060965689E0
1.289446421E1,2.931972268E-1,4.386113405E-2,-8.625473392E-1,9.120725439E-1
1.290443321E1,3.320351641E-1,3.058912396E-2,-7.715266567E-1,8.404977256E-1
1.291440321E1,3.535625656E-1,7.893507242E-2,-6.441409707E-1,7.390228843E-1
1.292437321E1,3.361704612E-1,2.133222145E-1,-6.982838488E-1,8.038142071E-1
1.293434321E1,2.682639684E-1,3.157560772E-1,-7.205991626E-1,8.312223590E-1
1.294431321E1,1.552856755E-1,4.517441869E-1,-8.363447964E-1,9.631505956E-1
1.295428321E1,7.074575454E-2,6.187418354E-1,-8.972382849E-1,1.092191815E0
1.296425321E1,5.881173357E-2,7.674716127E-1,-8.485081744E-1,1.145616698E0
1.297422321E1,6.819198310E-2,9.043745193E-1,-6.631128466E-1,1.123504368E0
1.298419321E1,7.060118213E-2,1.035592470E0,-3.777757394E-1,1.104604364E0
1.299416321E1,9.341964886E-2,1.084707035E0,2.855370820E-2,1.089096827E0
1.300413221E1,2.523934557E-1,1.016537272E0,5.248443228E-1,1.171542592E0
1.301410221E1,4.531118506E-1,9.645189795E-1,8.530309957E-1,1.365016150E0
1.302407221E1,6.286822481E-1,9.671943730E-1,1.125987793E0,1.612003361E0
1.303404221E1,7.103028005E-1,9.336746246E-1,1.302414662E0,1.752872592E0
1.304401221E1,6.306894511E-1,8.963050693E-1,1.357256867E0,1.744499402E0
1.305398221E1,4.105276023E-1,1.002967638E0,1.466845382E0,1.823763244E0
1.306395221E1,1.781165676E-1,1.116245162E0,1.572291731E0,1.936447794E0
1.307392221E1,2.792440161E-2,1.200596218E0,1.713564554E0,2.092490032E0
1.308389221E1,-3.245862499E-2,1.236905381E0,1.907716087E0,2.273844575E0
1.309386221E1,-7.269492388E-2,1.237718436E0,2.129642479E0,2.464266335E0
1.310383221E1,-9.808324188E-2,1.128883627E0,2.290201174E0,2.555194705E0
1.311380221E1,-1.399956451E-1,9.594172838E-1,2.461835665E0,2.645886457E0
1.312377121E1,-1.984388579E-1,7.222732204E-1,2.291143160E0,2.410475797E0
1.313374121E1,-3.196336582E-1,4.256305218E-1,1.904760904E0,1.977736362E0
1.314371121E1,-4.170054401E-1,7.296564996E-2,1.419359559E0,1.481147893E0
1.315368121E1,-5.923945740E-1,-2.896453357E-1,8.370932400E-1,1.065622280E0
1.316365121E1,-8.013734767E-1,-4.707400364E-1,3.799953425E-1,1.004087691E0
1.317362121E1,-9.797091687E-1,-5.270343974E-1,8.466358960E-2,1.115689578E0
1.318359121E1,-1.191711813E0,-4.576729712E-1,-1.693061292E-2,1.276686429E0
1.319356121E1,-1.385712342E0,-3.984491551E-1,9.454187572E-2,1.444956259E0
1.320353121E1,-1.505331610E0,-2.252683684E-1,3.478643078E-1,1.561338743E0
1.321350121E1,-1.449181529E0,-1.434380472E-1,7.337787867E-1,1.630684790E0
1.322347021E1,-1.235212174E0,-2.625189328E-1,1.051450412E0,1.643232568E0
1.323344021E1,-1.036409034E0,-4.051187816E-1,1.221378100E0,1.652280054E0
1.324341021E1,-7.765739733E-1,-5.233070898E-1,1.292322952E0,1.595937361E0
1.325338021E1,-5.430619079E-1,-6.298813659E-1,1.211827258E0,1.469759189E0
1.326335021E1,-4.030728409E-1,-6.879424632E-1,9.863024890E-1,1.268276448E0
1.327332021E1,-3.566393705E-1,-6.193622249E-1,6.074584633E-1,9.379802721E-1
1.328329021E1,-3.926567571E-1,-5.125762796E-1,1.287264526E-1,6.583952240E-1
1.329326021E1,-4.245015706E-1,-4.332748792E-1,-3.328469038E-1,6.918928860E-1
1.330323021E1,-3.868963726E-1,-4.394553861E-1,-7.639504194E-1,9.625123806E-1
1.331320021E1,-3.666623752E-1,-5.661218646E-1,-1.209056847E0,1.384468751E0
1.332317021E1,-3.800180005E-1,-6.598781669E-1,-1.600770594E0,1.772658843E0
1.333313921E1,-3.849230835E-1,-7.426118830E-1,-1.875555232E0,2.053617690E0
1.334310921E1,-3.564763793E-1,-7.957972795E-1,-2.068182980E0,2.244493163E0
1.335307921E1,-3.249414682E-1,-8.005194908E-1,-2.152953574E0,2.319833508E0
1.336304921E1,-3.352620962E-1,-7.312065965E-1,-2.181112595E0,2.324718459E0
1.337301921E1,-2.993587303E-1,-5.687247527E-1,-2.107323657E0,2.203151491E0
1.338298921E1,-2.280513507E-1,-4.110247618E-1,-2.010815948E0,2.065025314E0
1.339295921E1,-1.565597838E-1,-3.884521705E-1,-2.001491978E0,2.044841361E0
1.340292921E1,-1.604072517E-1,-3.953244030E-1,-2.003118673E0,2.048046945E0
1.341289921E1,-1.922592281E-1,-3.198959059E-1,-2.055440728E0,2.089050882E0
1.342286921E1,-1.670198679E-1,-2.443475407E-1,-2.055719056E0,2.076916511E0
1.343283921E1,-1.383034609E-1,-2.397916827E-1,-2.015350463E0,2.034272693E0
1.344280821E1,-1.788160408E-1,-2.101424986E-1,-1.898015556E0,1.917967179E0
1.345277821E1,-2.440914327E-1,-1.463926452E-1,-1.741535295E0,1.764640648E0
1.346274821E1,-3.419121346E-1,-1.265387169E-1,-1.501836875E0,1.545454611E0
1.347271821E1,-3.994099988E-1,-1.341900909E-1,-1.269714693E0,1.337800706E0
1.348268821E1,-4.146571983E-1,-1.194504297E-1,-9.917427385E-1,1.081555665E0
1.349265821E1,-4.225491853E-1,-9.360749066E-2,-7.098724455E-1,8.314018674E-1
1.350262821E1,-4.190487497E-1,2.736379981E-2,-3.733681083E-1,5.619202580E-1
1.351259821E1,-4.005625216E-1,1.818598089E-1,-1.256929171E-1,4.575172490E-1
1.352256821E1,-4.155144002E-1,2.643707460E-1,3.025875628E-1,5.780167309E-1
1.353253821E1,-3.129207623E-1,1.937369657E-1,7.952844787E-1,8.763166193E-1
1.354250721E1,-1.691416763E-1,1.801258171E-1,1.109805624E0,1.136979657E0
1.355247721E1,-8.429331467E-2,2.372402501E-1,1.492340412E0,1.513429286E0
1.356244721E1,-4.637119755E-2,1.961746699E-1,1.929638468E0,1.940139017E0
1.357241721E1,5.758469537E-2,1.161306730E-1,2.250377542E0,2.254107676E0
1.358238721E1,1.491506307E-1,8.354092419E-2,2.494236256E0,2.500087898E0
1.359235721E1,1.651986064E-1,9.148261249E-2,2.578616840E0,2.585522086E0
1.360232721E1,9.726141572E-2,5.167944610E-2,2.552688532E0,2.555063461E0
1.361229721E1,-2.637649745E-2,-1.544015765E-2,2.446727044E0,2.446917928E0
1.362226721E1,-9.627864495E-2,-4.925343633E-2,2.197746170E0,2.200405350E0
1.363223721E1,-6.587166175E-2,-7.942886978E-2,1.878354878E0,1.881187144E0
1.364220621E1,1.975642607E-2,-4.753640145E-2,1.645695922E0,1.646500863E0
1.365217621E1,1.698013884E-1,1.290813786E-1,1.451258460E0,1.466848878E0
1.366214621E1,2.722033837E-1,3.253770858E-1,1.344372527E0,1.409717142E0
1.367211621E1,3.167373861E-1,3.931381291E-1,1.259651050E0,1.357055978E0
1.368208621E1,4.134322067E-1,3.560974798E-1,1.162442844E0,1.284135885E0
1.369205621E1,5.799917160E-1,3.349410841E-1,1.062513344E0,1.255989859E0
1.370202621E1,7.868215111E-1,1.661147189E-1,1.024626310E0,1.302513441E0
1.371199567E1,9.716515593E-1,-7.551737487E-2,8.994935560E-1,1.326234626E0
1.372196567E1,9.699779400E-1,-2.556917238E-1,7.584867811E-1,1.257592008E0
1.373193567E1,7.780482025E-1,-3.389247921E-1,6.790564495E-1,1.086897733E0
1.374190467E1,6.246732509E-1,-4.343487203E-1,6.101785880E-1,9.752914388E-1
1.375187467E1,5.979997149E-1,-6.797499293E-1,5.773505652E-1,1.073777119E0
1.376184467E1,5.586571629E-1,-9.086204749E-1,5.271598202E-1,1.189784211E0
1.377181467E1,5.133332017E-1,-1.029149716E0,4.990399754E-1,1.253675002E0
1.378178467E1,5.909317468E-1,-1.127270088E0,3.530578047E-1,1.320828525E0
1.379175467E1,6.628970844E-1,-1.167905897E0,7.189210117E-2,1.344843933E0
1.380172467E1,7.005848743E-1,-1.109062735E0,-1.535969996E-1,1.320769228E0
1.381169467E1,6.802660923E-1,-9.028083426E-1,-4.768053532E-1,1.226852968E0
1.382166467E1,5.607452036E-1,-6.267370257E-1,-7.593264413E-1,1.133053894E0
1.383163467E1,5.418070954E-1,-4.722261062E-1,-9.428635240E-1,1.185556430E0
1.384160367E1,6.463078026E-1,-4.742714623E-1,-1.069130053E0,1.336295725E0
1.385157367E1,6.668587191E-1,-5.185088646E-1,-1.214973060E0,1.479767391E0
1.386154367E1,5.461796433E-1,-4.875744626E-1,-1.401616184E0,1.581318749E0
1.387151367E1,4.089324819E-1,-4.255816975E-1,-1.602581477E0,1.707809400E0
1.388148367E1,3.342297703E-1,-4.142003846E-1,-1.824523657E0,1.900567829E0
1.389145367E1,2.741013899E-1,-5.299354935E-1,-2.030472533E0,2.116313281E0
1.390142367E1,2.648517891E-1,-6.270521906E-1,-2.214974406E0,2.317207919E0
1.391139367E1,2.339718027E-1,-6.773224577E-1,-2.391113591E0,2.496183632E0
1.392136367E1,1.946391910E-1,-6.353464660E-1,-2.454804972E0,2.543150998E0
1.393133367E1,1.898083676E-1,-5.221771154E-1,-2.429557865E0,2.492277588E0
1.394130367E1,1.980241076E-1,-4.005942062E-1,-2.324736584E0,2.367295809E0
1.395127267E1,2.803508575E-1,-2.715631136E-1,-2.064678159E0,2.101247018E0
1.396124267E1,4.594604650E-1,-1.146092275E-1,-1.745218456E0,1.808321501E0
1.397121267E1,6.588772698E-1,-7.213593006E-2,-1.493159607E0,1.633661061E0
1.398118267E1,7.437506282E-1,-3.686143219E-2,-1.254625368E0,1.458975180E0
1.399115267E1,7.012659287E-1,1.019090751E-1,-1.116169149E0,1.322116837E0
1.400112267E1,6.608026117E-1,1.903888500E-1,-1.089494151E0,1.288373203E0
1.401109267E1,6.826692979E-1,1.673788869E-1,-1.025166593E0,1.242988176E0
1.402106267E1,6.482366529E-1,2.036310393E-1,-1.056345116E0,1.256002135E0
1.403103267E1,5.478028303E-1,3.227244964E-1,-1.079650948E0,1.252950602E0
1.404100167E1,4.614550965E-1,4.523645765E-1,-1.077116180E0,1.256086693E0
1.405097167E1,3.937046878E-1,5.992442948E-1,-1.046871457E0,1.268872316E0
1.406094167E1,3.800441667E-1,7.109664595E-1,-9.313871938E-1,1.231823437E0
1.407091167E1,3.121496607E-1,8.233540374E-1,-8.216168296E-1,1.204326989E0
1.408088167E1,1.868635637E-1,9.480505890E-1,-5.936467552E-1,1.134078648E0
1.409085167E1,1.238761872E-1,1.042434298E0,-3.058210731E-1,1.093408022E0
1.410082167E1,1.817260538E-1,1.048813902E0,5.834702611E-2,1.066039087E0
1.411079167E1,3.865565032E-1,1.028471439E0,5.550598097E-1,1.230963372E0
1.412076167E1,6.183531417E-1,1.062402539E0,1.053182357E0,1.618719506E0
1.413073167E1,7.514132582E-1,1.045175472E0,1.527269924E0,1.997390066E0
1.414070067E1,8.045224947E-1,1.030363013E0,1.839238760E0,2.256480356E0
1.415067067E1,7.396811123E-1,1.114053918E0,1.967841836E0,2.379211166E0
1.416064067E1,5.802200863E-1,1.161511382E0,2.033773870E0,2.412882135E0
1.417061067E1,3.471538711E-1,1.052098576E0,1.990399225E0,2.277963190E0
1.418058067E1,9.738127450E-2,8.563180080E-1,1.777746516E0,1.975638206E0
1.419055067E1,-1.174034657E-1,7.870323032E-1,1.546973287E0,1.739634953E0
1.420052067E1,-4.406319921E-1,7.243060049E-1,1.613936770E0,1.823065451E0
1.421049067E1,-7.282188155E-1,6.810050341E-1,1.829270427E0,2.083338857E0
1.422046067E1,-8.780756436E-1,5.499815029E-1,2.206507638E0,2.437657163E0
1.423043067E1,-8.360464422E-1,4.103537938E-1,2.488676723E0,2.657230837E0
1.424039967E1,-7.754059920E-1,4.444149944E-1,2.449419687E0,2.607377215E0
1.425036967E1,-6.212697329E-1,4.571446753E-1,2.243225813E0,2.372133930E0
1.426033967E1,-2.397294098E-1,1.255233479E-1,1.781821441E0,1.802252465E0
1.427030967E1,1.899544019E-1,-3.269982263E-1,1.077536010E0,1.141969513E0
1.428027967E1,2.716543302E-1,-5.178630397E-1,3.889070839E-1,7.023011625E-1
1.429024967E1,3.187843502E-2,-3.809028304E-1,-5.557135284E-2,3.862529949E-1
1.430021967E1,-1.705689816E-1,-2.347610307E-1,-4.402152318E-1,5.272532307E-1
1.431018967E1,-4.113848041E-1,-7.499229491E-2,-6.228845876E-1,7.502309717E-1
1.432015967E1,-6.848073323E-1,-3.798848301E-2,-5.876621300E-1,9.031893413E-1
1.433012967E1,-1.005400226E0,-2.697437525E-2,-5.038978422E-1,1.124931228E0
1.434009867E1,-1.086657667E0,-4.156317830E-2,-2.088800848E-1,1.107331600E0
1.435006867E1,-7.787263334E-1,-3.042896873E-1,6.824285388E-3,8.360941855E-1
1.436003867E1,-5.174139735E-1,-5.955628878E-1,2.432780850E-1,8.255886384E-1
1.437000867E1,-3.078120500E-1,-7.436167270E-1,4.685140014E-1,9.312461889E-1
1.437997867E1,-9.621988043E-2,-6.795522934E-1,6.246574634E-1,9.280336909E-1
1.438994867E1,8.013535962E-2,-5.208787411E-1,5.266236305E-1,7.450293867E-1
1.439991867E1,1.746228562E-1,-3.582586107E-1,2.853096253E-1,4.901468722E-1
1.440988867E1,1.182171057E-1,-1.619769368E-1,1.799889922E-2,2.013349758E-1
1.441985867E1,7.822755933E-2,3.185504615E-2,-3.276574999E-1,3.383692247E-1
1.442982767E1,1.664961036E-1,1.072771114E-1,-6.638952041E-1,6.928103443E-1
1.443979767E1,1.889302620E-1,8.667356998E-2,-8.888919693E-1,9.128723267E-1
1.444976767E1,1.458381830E-1,4.862632245E-2,-1.093918739E0,1.104668051E0
1.445973767E1,4.278159186E-2,7.761330932E-2,-1.347652230E0,1.350563077E0
1.446970767E1,-1.561599804E-1,5.708899766E-2,-1.524364443E0,1.533405376E0
1.447967767E1,-3.095624140E-1,-1.461470622E-1,-1.650530400E0,1.685656683E0
1.448964767E1,-4.404195920E-1,-4.522695592E-1,-1.743543813E0,1.854309090E0
1.449961767E1,-5.411419746E-1,-7.049946982E-1,-1.846953576E0,2.049655989E0
1.450958767E1,-6.340526234E-1,-9.054790583E-1,-1.917342943E0,2.213169450E0
1.451955767E1,-7.117217736E-1,-1.068832722E0,-1.906606870E0,2.298717257E0
1.452952667E1,-7.998062767E-1,-1.145335645E0,-1.906947763E0,2.363881044E0
1.453949667E1,-8.511324048E-1,-1.167128218E0,-1.838039496E0,2.337734766E0
1.454946667E1,-8.286603856E-1,-1.200945005E0,-1.616626489E0,2.177711676E0
1.455943667E1,-7.851632407E-1,-1.215422418E0,-1.476983285E0,2.067658723E0
1.456940667E1,-7.646541318E-1,-1.081338747E0,-1.484514499E0,1.989415171E0
1.457937667E1,-7.653214453E-1,-9.646938112E-1,-1.419149060E0,1.878918603E0
1.458934667E1,-8.064780959E-1,-8.472668105E-1,-1.353084878E0,1.788604667E0
1.459931667E1,-9.057211331E-1,-7.941884181E-1,-1.278702448E0,1.756742999E0
1.460928667E1,-9.508236310E-1,-7.090991512E-1,-1.111901851E0,1.625796085E0
1.461925567E1,-8.734230141E-1,-5.489073694E-1,-8.314296269E-1,1.324931050E0
1.462922567E1,-6.903753434E-1,-4.233983472E-1,-3.669753474E-1,8.891317005E-1
1.463919567E1,-5.417743510E-1,-4.101301378E-1,1.385714096E-1,6.934898794E-1
1.464916567E1,-5.326449836E-1,-4.599229798E-1,6.538315612E-1,9.605912431E-1
1.465913567E1,-6.331840195E-1,-4.556559741E-1,1.122752529E0,1.367156761E0
1.466910567E1,-6.969692485E-1,-5.017677015E-1,1.410355432E0,1.651253889E0
1.467907567E1,-6.954014638E-1,-6.426481766E-1,1.653030669E0,1.905017131E0
1.468904567E1,-6.135338666E-1,-8.129033089E-1,1.815423051E0,2.081585080E0
1.469901567E1,-4.786593591E-1,-8.901263165E-1,1.987307802E0,2.229536261E0
1.470898467E1,-2.856620662E-1,-8.884698004E-1,2.058980632E0,2.260615546E0
1.471895896E1,-2.315452082E-1,-7.703285623E-1,2.070927079E0,2.221656644E0
1.472892896E1,-2.672228716E-1,-5.333163536E-1,2.116181020E0,2.198648790E0
1.473889896E1,-1.984502966E-1,-3.361204675E-1,2.110268900E0,2.146064845E0
1.474886896E1,1.561645120E-3,-2.280060348E-1,2.117605986E0,2.129846075E0
1.475883896E1,2.489277744E-1,-1.400188878E-1,2.024224198E0,2.044273448E0
1.476880896E1,4.245522587E-1,-9.288126647E-2,1.936265702E0,1.984438565E0
1.477877896E1,5.254033166E-1,-1.395470175E-1,1.901733216E0,1.977905771E0
1.478874896E1,5.864437164E-1,-1.227658010E-1,1.757184783E0,1.856525258E0
1.479871796E1,5.082214196E-1,-1.003528386E-1,1.626610610E0,1.707109188E0
1.480868796E1,3.379287189E-1,-1.064432985E-1,1.424644858E0,1.468039157E0
1.481865796E1,1.333361050E-1,-5.280240387E-2,1.094751967E0,1.104105285E0
1.482862796E1,7.850862768E-2,-9.190448910E-2,7.066050214E-1,7.168686741E-1
1.483859796E1,1.311053923E-1,-2.661032760E-1,3.126114446E-1,4.309588062E-1
1.484856796E1,2.635629532E-1,-3.760549039E-1,-1.000160390E-1,4.699850307E-1
1.485853796E1,3.854443262E-1,-3.811855432E-1,-3.738978660E-1,6.585357706E-1
1.486850796E1,5.527412425E-1,-4.319250494E-1,-4.789220452E-1,8.493812188E-1
1.487847796E1,7.692498972E-1,-4.477131164E-1,-5.502978373E-1,1.046432104E0
1.488844796E1,9.778383520E-1,-3.818892556E-1,-4.926822978E-1,1.159630585E0
1.489841696E1,1.138333897E0,-3.193541613E-1,-4.002319711E-1,1.248189397E0
1.490838696E1,1.202579740E0,-3.083982334E-1,-2.678387296E-1,1.270057120E0
1.491835696E1,1.263308191E0,-3.133528715E-1,-1.451232147E-1,1.309655815E0
1.492832696E1,1.306643076E0,-2.762005404E-1,-5.227059960E-2,1.336538470E0
1.493829696E1,1.231326114E0,-2.315403843E-1,7.073961496E-3,1.252926570E0
1.494826696E1,1.115991393E0,-2.575265801E-1,-1.098241585E-1,1.150572933E0
1.495823696E1,9.388413705E-1,-3.430745611E-1,-2.663330716E-1,1.034435391E0
1.496820696E1,7.304344717E-1,-3.772842810E-1,-5.274574435E-1,9.767749489E-1
1.497817596E1,5.430017912E-1,-3.202201340E-1,-8.352583838E-1,1.046445625E0
1.498814596E1,4.731262851E-1,-2.777643782E-1,-1.061107088E0,1.194550034E0
1.499811596E1,4.873392583E-1,-2.814452004E-1,-1.351630676E0,1.464109435E0
1.500808596E1,4.913596576E-1,-2.753217039E-1,-1.624450064E0,1.719323810E0
1.501805596E1,4.721689497E-1,-2.016918102E-1,-1.755226550E0,1.828781929E0
1.502802596E1,4.606651376E-1,-1.269120616E-1,-1.992388448E0,2.048885250E0
1.503799596E1,4.627246732E-1,-3.103789777E-2,-2.195816588E0,2.244256662E0
1.504796596E1,4.622218126E-1,3.542827964E-3,-2.342426750E0,2.387598089E0
1.505793596E1,4.106391379E-1,2.267637938E-2,-2.462043825E0,2.496156749E0
1.506790596E1,4.122042914E-1,4.504461050E-2,-2.543552257E0,2.577130086E0
1.507787496E1,4.249328028E-1,5.904167533E-2,-2.434685873E0,2.472195200E0
1.508784496E1,4.060759708E-1,1.346078745E-1,-2.248639165E0,2.288972492E0
1.509781496E1,2.934736539E-1,2.814896393E-1,-1.946029383E0,1.988062766E0
1.510778496E1,1.828427258E-1,4.234933645E-1,-1.542960927E0,1.610436747E0
1.511775496E1,1.776379730E-1,4.662265706E-1,-1.254493806E0,1.350065618E0
1.512772496E1,2.441235924E-1,4.265005875E-1,-1.013599631E0,1.126447198E0
1.513769496E1,2.910184081E-1,4.226852793E-1,-8.231429529E-1,9.700097320E-1
1.514766496E1,2.972851615E-1,4.908588436E-1,-7.736766779E-1,9.632738310E-1
1.515763396E1,3.235713194E-1,5.426496792E-1,-8.576824558E-1,1.065263474E0
1.516760396E1,3.766945893E-1,5.652383503E-1,-9.743496108E-1,1.187750130E0
1.517757396E1,4.471067601E-1,5.899764580E-1,-1.117967167E0,1.340830811E0
1.518754396E1,4.290200065E-1,6.825937226E-1,-1.164993984E0,1.416758038E0
1.519751396E1,3.516603202E-1,9.374726835E-1,-1.273122450E0,1.619679223E0
1.520748396E1,3.315612473E-1,1.159196470E0,-1.208006687E0,1.706736498E0
1.521745396E1,3.680184907E-1,1.161379820E0,-9.906165648E-1,1.570210774E0
1.522742396E1,4.170055863E-1,1.084160321E0,-7.285858744E-1,1.371180016E0
1.523739396E1,4.536945257E-1,1.070159163E0,-2.471641445E-1,1.188347370E0
1.524736296E1,5.034069684E-1,1.037993630E0,2.140975553E-1,1.173323107E0
1.525733296E1,5.246867403E-1,1.009613291E0,6.538602126E-1,1.312306500E0
1.526730296E1,5.357061106E-1,1.011824708E0,1.163966628E0,1.632663036E0
1.527727296E1,5.282136346E-1,1.014953553E0,1.538152177E0,1.917042639E0
1.528724296E1,4.253979488E-1,1.041689070E0,1.733801767E0,2.066917536E0
1.529721296E1,2.261640157E-1,1.102619688E0,1.853407148E0,2.168418409E0
1.530718296E1,-3.192871650E-2,1.143416881E0,1.869070085E0,2.191311157E0
1.531715296E1,-3.790958945E-1,1.226982656E0,1.859778274E0,2.260083044E0
1.532712296E1,-6.869737257E-1,1.341013886E0,1.902086388E0,2.426558009E0
1.533709196E1,-8.489395528E-1,1.379942894E0,2.151276008E0,2.693126291E0
1.534706196E1,-8.875642128E-1,1.408820246E0,2.543197916E0,3.039802684E0
1.535703196E1,-7.385002671E-1,1.330219926E0,3.179061568E0,3.524386493E0
1.536700196E1,-4.977030095E-1,1.214505867E0,3.671749713E0,3.899292083E0
1.537697196E1,-5.024708292E-1,1.091872213E0,3.987942578E0,4.165134796E0
1.538694196E1,-4.924552797E-1,7.565405354E-1,4.042511718E0,4.142072763E0
1.539691196E1,-5.079698431E-1,2.855069688E-1,3.656091455E0,3.702236124E0
1.540688196E1,-4.518890516E-1,-3.553411424E-2,3.007429417E0,3.041397390E0
1.541685196E1,-1.835265577E-1,-3.225844556E-1,1.815252897E0,1.852804849E0
1.542682096E1,-7.046596527E-2,-4.727707744E-1,6.107942998E-1,7.755948260E-1
1.543679096E1,-1.524813326E-1,-7.029268304E-1,-1.232856184E-1,7.297643656E-1
1.544676096E1,-2.090521208E-1,-9.322546282E-1,-6.686092293E-1,1.166121684E0
1.545673096E1,-2.474056345E-1,-8.775711751E-1,-8.627636862E-1,1.255269650E0
1.546670096E1,-3.526809517E-1,-6.764018136E-1,-8.991474009E-1,1.179139227E0
1.547667096E1,-6.758913517E-1,-3.123804796E-1,-7.013267398E-1,1.022873345E0
1.548664096E1,-1.046924082E0,3.579606950E-2,-2.568635058E-1,1.078568613E0
1.549661096E1,-1.023738703E0,-1.444516620E-1,3.283556575E-1,1.084769400E0
1.550657996E1,-7.421243714E-1,-4.567260146E-1,6.989703119E-1,1.117097459E0
1.551654996E1,-4.466344513E-1,-6.616305774E-1,1.084272587E0,1.346433956E0
1.552651996E1,-2.556036136E-1,-8.460514668E-1,1.316698825E0,1.585822212E0
1.553648996E1,-1.454946591E-1,-8.874184710E-1,1.363339140E0,1.633209677E0
1.554645996E1,-1.513776889E-1,-8.873056197E-1,1.073495584E0,1.400935129E0
1.555642996E1,-2.502387567E-1,-9.010454071E-1,6.879167354E-1,1.160918471E0
1.556639996E1,-4.729321575E-1,-9.332489473E-1,9.823205352E-2,1.050841548E0
1.557636996E1,-5.786578564E-1,-8.976081213E-1,-4.587690318E-1,1.162331398E0
1.558633896E1,-5.503995788E-1,-8.531502789E-1,-1.068721333E0,1.474099855E0
1.559630896E1,-5.270804442E-1,-8.102197292E-1,-1.547341661E0,1.824427587E0
1.560627896E1,-5.234871840E-1,-8.378533781E-1,-1.977375137E0,2.210441030E0
1.561624896E1,-5.114715944E-1,-9.309536228E-1,-2.272363073E0,2.508368349E0
1.562621896E1,-4.608348531E-1,-1.082357917E0,-2.446636997E0,2.714755977E0
1.563618896E1,-4.676877898E-1,-1.091899988E0,-2.593693886E0,2.852757513E0
1.564615896E1,-4.502220105E-1,-9.954656607E-1,-2.659469215E0,2.875139691E0
1.565612896E1,-3.790263127E-1,-1.016347530E0,-2.553400138E0,2.774252244E0
1.566609896E1,-3.097791995E-1,-1.117556693E0,-2.416305735E0,2.680192068E0
1.567606796E1,-3.198760253E-1,-1.137090486E0,-2.411518035E0,2.685277393E0
1.568603796E1,-3.846881716E-1,-1.106590532E0,-2.370877547E0,2.644539268E0
1.569600796E1,-4.397509629E-1,-1.066475417E0,-2.306630681E0,2.579010628E0
1.570597796E1,-4.399341269E-1,-1.017067029E0,-2.300480579E0,2.553463975E0
1.571594371E1,-4.498287852E-1,-9.042417875E-1,-2.228813011E0,2.446958640E0
1.572591371E1,-4.650151737E-1,-7.852535802E-1,-2.051622496E0,2.245443645E0
1.573588371E1,-4.486021855E-1,-7.716938871E-1,-1.806144104E0,2.014674143E0
1.574585371E1,-4.180168623E-1,-7.943036082E-1,-1.595620367E0,1.830754127E0
1.575582271E1,-3.537305269E-1,-7.225977409E-1,-1.297252740E0,1.526478775E0
1.576579271E1,-3.550407417E-1,-5.779452270E-1,-1.061141002E0,1.259402573E0
1.577576271E1,-4.509928197E-1,-4.740507299E-1,-8.569638330E-1,1.078195543E0
1.578573271E1,-5.163049029E-1,-4.282214230E-1,-6.495315188E-1,9.337213363E-1
1.579570271E1,-4.934390737E-1,-4.294662952E-1,-4.043525040E-1,7.690411990E-1
1.580567271E1,-3.748812580E-1,-4.449289647E-1,2.979741096E-2,5.825681307E-1
1.581564271E1,-2.502770559E-1,-4.753493965E-1,4.807077849E-1,7.208853084E-1
1.582561271E1,-2.038820675E-1,-4.550148270E-1,9.782327467E-1,1.097973450E0
1.583558271E1,-2.700342129E-1,-3.525549442E-1,1.452948890E0,1.519300478E0
1.584555171E1,-3.961045678E-1,-1.528444630E-1,1.849594179E0,1.897698312E0
1.585552171E1,-5.306915385E-1,7.533991188E-2,2.180085824E0,2.245013098E0
1.586549171E1,-5.731089950E-1,2.613155758E-1,2.381509539E0,2.463397539E0
1.587546171E1,-4.582021442E-1,3.714487597E-1,2.473345324E0,2.542707312E0
1.588543171E1,-1.730888392E-1,3.414996135E-1,2.438698232E0,2.468568573E0
1.589540171E1,1.825560661E-1,2.141045719E-1,2.197543856E0,2.215483352E0
1.590537171E1,4.026923333E-1,8.937761486E-2,1.862977871E0,1.908097487E0
1.591534171E1,3.939745733E-1,1.529017657E-1,1.605900941E0,1.660576029E0
1.592531071E1,3.223516999E-1,3.681848440E-1,1.341674622E0,1.428132168E0
1.593528071E1,3.976216279E-1,3.875598854E-1,1.197799788E0,1.320238598E0
1.594525071E1,5.216505736E-1,2.396481335E-1,1.148940454E0,1.284373277E0
1.595522071E1,7.102386273E-1,1.095700970E-1,1.115632959E0,1.327057426E0
1.596519071E1,8.053371580E-1,9.289529979E-2,1.019317623E0,1.302384694E0
1.597516071E1,6.595562777E-1,9.466642141E-2,1.032127703E0,1.228520985E0
1.598513071E1,4.637308328E-1,-8.804532677E-2,9.369063807E-1,1.049090955E0
1.599510071E1,3.928880145E-1,-4.066475362E-1,6.010388052E-1,8.252095831E-1
1.600506971E1,3.003492486E-1,-5.079663348E-1,2.645783222E-1,6.467156694E-1
1.601503971E1,2.228360729E-1,-5.144608372E-1,1.790967071E-1,5.885588322E-1
1.602500971E1,2.096130332E-1,-5.685075286E-1,2.516758561E-1,6.561091147E-1
1.603497971E1,2.350452054E-1,-6.713574207E-1,3.345075130E-1,7.860421815E-1
1.604494971E1,3.155179493E-1,-6.609163401E-1,6.632917714E-1,9.880880320E-1
1.605491971E1,5.515948593E-1,-6.225948581E-1,9.410087872E-1,1.255937412E0
1.606488971E1,6.984222816E-1,-6.494075578E-1,9.973543113E-1,1.379941840E0
1.607485971E1,6.875938229E-1,-6.426142627E-1,8.948397571E-1,1.298644119E0
1.608482971E1,6.543560565E-1,-6.210982633E-1,6.216134030E-1,1.095604000E0
1.609479871E1,6.774227375E-1,-6.077280200E-1,2.872392064E-1,9.543276551E-1
1.610476871E1,7.670590916E-1,-5.527823192E-1,-9.294558585E-2,9.500456959E-1
1.611473871E1,8.250029522E-1,-4.533568490E-1,-4.562775332E-1,1.046112561E0
1.612470871E1,8.492351295E-1,-3.588211128E-1,-7.294459999E-1,1.175603829E0
1.613467871E1,8.483774891E-1,-3.253186136E-1,-9.891828275E-1,1.343152721E0
1.614464871E1,8.575532323E-1,-3.454757202E-1,-1.213549848E0,1.525599637E0
1.615461871E1,8.295991561E-1,-3.248069823E-1,-1.405134453E0,1.663771970E0
1.616458871E1,7.686502652E-1,-2.784031865E-1,-1.635030600E0,1.828019866E0
1.617455771E1,6.771539117E-1,-3.392700702E-1,-1.852355234E0,2.001215009E0
