"Time (s)","Linear Acceleration x (m/s^2)","Linear Acceleration y (m/s^2)","Linear Acceleration z (m/s^2)","Absolute acceleration (m/s^2)"
1.833583333E-2,-1.920336717E-1,-1.317845464E-1,-5.009280413E-1,5.524246558E-1
2.841683333E-2,-1.219191241E-1,3.854718447E-2,-5.764313829E-1,5.904433059E-1
3.849783333E-2,6.360191882E-2,3.048323089E-1,-2.723153579E-1,4.136708774E-1
4.857883333E-2,3.991043356E-1,5.074611354E-1,2.338541275E-1,6.866504406E-1
5.865983333E-2,6.190581697E-1,5.781960726E-1,4.137150657E-1,9.427109162E-1
6.874083333E-2,6.484801894E-1,5.207202816E-1,5.715577286E-1,1.009135474E0
7.882183333E-2,5.044527429E-1,3.700579995E-1,5.814570647E-1,8.541122941E-1
8.890283333E-2,3.073828644E-1,1.605756515E-1,4.141571152E-1,5.401804155E-1
9.898383333E-2,1.502538541E-1,-2.423320055E-2,2.354434007E-1,2.803516785E-1
1.090648333E-1,6.685180128E-2,-2.269473964E-1,8.763105154E-2,2.522964234E-1
1.191458333E-1,-9.697431743E-2,-4.671352279E-1,-1.563030910E-1,5.020458103E-1
1.292268333E-1,-3.169044703E-1,-5.944589335E-1,-1.705632806E-1,6.949112890E-1
1.393078333E-1,-5.030599362E-1,-5.054912084E-1,1.634179831E-2,7.133426355E-1
1.493888333E-1,-5.390115416E-1,-3.238842916E-1,-3.354313731E-2,6.297297979E-1
1.594698333E-1,-4.328629428E-1,-9.036813319E-2,-5.198174715E-2,4.452401923E-1
1.695508333E-1,-2.700980937E-1,6.579462469E-2,2.739595950E-2,2.793428923E-1
1.796318333E-1,-1.379966283E-1,1.342427158E-1,5.053397655E-2,1.990423547E-1
1.897128333E-1,-8.482146442E-2,1.174226153E-1,2.676972270E-2,1.473070584E-1
1.997938333E-1,-8.116139978E-2,6.757802546E-2,-1.578046560E-2,1.067847622E-1
2.098748333E-1,-6.556687564E-2,4.647367001E-3,3.357822061E-2,7.381131417E-2
2.199558333E-1,-6.955438435E-2,-1.106234729E-1,-4.952942491E-2,1.397445136E-1
2.300368333E-1,-8.936095029E-2,-9.583703399E-2,-1.262326151E-1,1.819472166E-1
2.401178333E-1,-1.459312999E-1,4.581878185E-3,-1.459201902E-1,2.064210256E-1
2.501988333E-1,-1.667123044E-1,4.419968784E-2,-1.775822783E-1,2.475521569E-1
2.602798333E-1,-1.211990395E-1,6.452344000E-2,-2.521728694E-1,2.871300012E-1
2.703608333E-1,-5.150578380E-2,7.448884964E-2,-3.000001699E-1,3.133712437E-1
2.804418333E-1,5.088510185E-2,1.139639872E-1,-2.749740869E-1,3.019732313E-1
2.905228333E-1,1.424843663E-1,1.232750934E-1,-3.369212437E-1,3.860239212E-1
3.006038333E-1,1.834239390E-1,1.542401934E-1,-4.663838607E-1,5.243551127E-1
3.106848333E-1,2.511408359E-1,2.259270573E-1,-5.632201838E-1,6.567585022E-1
3.207658333E-1,2.716891211E-1,2.911714590E-1,-5.802917147E-1,7.037998801E-1
3.308468333E-1,2.642964864E-1,3.218137926E-1,-4.634058738E-1,6.230262865E-1
3.409278333E-1,2.597163624E-1,2.868088514E-1,-2.438511121E-1,4.573568311E-1
3.510088333E-1,3.116612720E-1,1.925970510E-1,-5.581985950E-2,3.705971253E-1
3.610898333E-1,2.903423238E-1,9.986868918E-2,9.763329864E-2,3.221873385E-1
3.711708333E-1,1.401715001E-1,1.986883879E-2,7.229906738E-2,1.589653275E-1
3.812518333E-1,4.224320948E-2,-3.086803615E-2,-4.148541033E-2,6.677097928E-2
3.913328333E-1,-1.340073654E-1,-7.673651934E-2,-8.903029025E-2,1.782494319E-1
4.014138333E-1,-2.587851933E-1,-7.120943874E-2,-3.526923537E-2,2.707110625E-1
4.114948333E-1,-2.144869798E-1,-5.981555432E-2,-7.539399862E-2,2.350889621E-1
4.215758333E-1,-4.216690332E-2,-7.015957117E-2,-1.252450204E-1,1.496219512E-1
4.316568333E-1,6.273623854E-2,5.092310876E-2,-2.155003023E-1,2.301507743E-1
4.417378333E-1,9.683047593E-2,2.468615511E-1,-3.865032935E-1,4.687233324E-1
4.518188333E-1,1.586864161E-1,3.484300259E-1,-2.294032270E-1,4.463302613E-1
4.618998333E-1,2.480666623E-1,5.772967708E-1,-7.122434914E-2,6.323618730E-1
4.719808333E-1,2.603537089E-1,5.914268598E-1,4.437276542E-2,6.477180919E-1
4.820618333E-1,2.264573997E-1,4.388285646E-1,2.355299395E-1,5.471085956E-1
4.921428333E-1,-7.654473066E-2,2.108815867E-1,2.176123166E-1,3.125464121E-1
5.022238333E-1,-4.470631984E-1,-6.489239931E-2,-9.755377650E-2,4.621615152E-1
5.123048333E-1,-6.202626961E-1,-3.298048899E-1,-4.027556294E-1,8.097587138E-1
5.223858333E-1,-6.091161489E-1,-2.898470646E-1,-6.893691838E-1,9.645017757E-1
5.324668333E-1,-2.362503165E-1,-1.706115201E-1,-9.879274303E-1,1.030011219E0
5.425478333E-1,2.037032524E-1,8.438204616E-2,-1.288899992E0,1.307623239E0
5.526288333E-1,4.319747508E-1,4.611067486E-1,-1.264984295E0,1.414003850E0
5.627098333E-1,4.728619909E-1,9.568319374E-1,-9.751150113E-1,1.445674619E0
5.727908333E-1,5.783574557E-1,1.193561141E0,-7.318211389E-1,1.514809468E0
5.828718333E-1,4.237383628E-1,1.236339371E0,-1.290375245E-1,1.313293540E0
5.929528333E-1,2.532592821E-1,1.313731948E0,-1.022496754E-1,1.341822227E0
6.030338333E-1,3.329512766E-1,1.143783209E0,-1.833283371E-1,1.205282482E0
6.131148333E-1,7.957084018E-1,7.104881573E-1,-8.417125404E-2,1.070060784E0
6.231958333E-1,1.085846658E0,1.927069786E-1,1.101919484E-1,1.108305558E0
6.332768333E-1,1.260354909E0,-4.112221053E-1,7.379215389E-1,1.517275952E0
6.433578333E-1,1.388931526E0,-8.633577633E-1,1.140431001E0,1.993765352E0
6.534388333E-1,1.273130929E0,-8.077188751E-1,7.943120867E-1,1.704172478E0
6.635198333E-1,1.062746501E0,-4.436022314E-1,6.654955870E-1,1.330074224E0
6.736008333E-1,9.286650226E-1,8.321640372E-2,4.604998076E-1,1.039905653E0
6.836818333E-1,7.656961057E-1,3.163887459E-1,1.132804477E-1,8.361966423E-1
6.937628333E-1,8.254420781E-1,4.454142836E-1,-5.325228864E-1,1.078577365E0
7.038438333E-1,1.069589936E0,2.993426505E-1,-7.129498351E-1,1.319820488E0
7.139248333E-1,9.881417307E-1,-2.641880205E-1,-1.350537246E-1,1.031726174E0
7.240058333E-1,5.490443404E-1,-8.804064900E-1,5.284760284E-1,1.164410661E0
7.340868333E-1,-1.246133749E-1,-1.805166157E0,-5.153478599E-1,1.881418817E0
7.441678333E-1,-2.573561045E0,-2.260483578E0,-1.656619105E0,3.804916467E0
7.542488333E-1,-2.942293189E0,-1.620640164E0,-1.279425749E0,3.594508867E0
7.643298333E-1,-1.365306728E0,-1.048764493E0,-1.939381099E-1,1.732507263E0
7.744108333E-1,-1.956467394E-1,-7.377399829E-1,3.001609683E-1,8.201429972E-1
7.844918333E-1,1.288205343E0,-4.474841979E-1,1.981830715E0,2.405694930E0
7.945733750E-1,1.700172530E0,-2.278127843E-1,2.594907768E0,3.110632029E0
8.046543750E-1,1.439811950E0,2.191836096E-1,2.501969199E0,2.894987008E0
8.147353750E-1,1.150583960E0,7.162793858E-1,1.663224705E0,2.145510668E0
8.248163750E-1,8.104696977E-1,9.052568641E-1,1.346827773E0,1.813917355E0
8.348973750E-1,8.141246460E-1,9.251699956E-1,1.054781570E0,1.622129040E0
8.449783750E-1,1.043838653E0,1.005559855E0,4.473915195E-1,1.516874723E0
8.550593750E-1,4.611751245E-1,8.612875566E-1,2.353504300E-3,9.769873538E-1
8.651403750E-1,-7.807765865E-1,2.591686244E-1,4.249662781E-1,9.259464301E-1
8.752213750E-1,-1.570406442E0,-6.487270881E-1,1.388567537E0,2.194343417E0
8.853023750E-1,-1.624308853E0,-1.352811082E0,1.779512376E0,2.763175957E0
8.953833750E-1,-1.037840871E0,-1.440893685E0,2.038914158E0,2.703786091E0
9.054643750E-1,-5.022774325E-1,-9.450834194E-1,1.860075898E0,2.146007370E0
9.155453750E-1,-5.988891860E-2,-3.903601170E-1,9.240927923E-1,1.004945368E0
9.256263750E-1,5.963195175E-1,1.436543941E-1,-2.355808103E-1,6.570630640E-1
9.357073750E-1,8.117038257E-1,4.191958071E-1,-8.204935795E-1,1.227924240E0
9.457883750E-1,4.614711763E-1,5.694062456E-1,-1.121740376E0,1.339955443E0
9.558693750E-1,1.597453469E-1,7.353285912E-1,-1.218855611E0,1.432423022E0
9.659503750E-1,1.483235786E-2,6.588803396E-1,-8.346379942E-1,1.063467857E0
9.760313750E-1,-1.156424853E-1,3.987706058E-1,-4.190167361E-1,5.898866040E-1
9.861123750E-1,-1.925560474E-1,2.263591665E-1,-2.846816343E-1,4.115336396E-1
9.961933750E-1,-1.721381368E-1,1.420005092E-1,-2.183870727E-1,3.122316388E-1
1.006274375E0,-2.015687263E-1,7.798899293E-2,-8.431100249E-2,2.319926283E-1
1.016355375E0,-1.900193059E-1,-1.298725069E-2,-1.178658342E-1,2.239829462E-1
1.026436375E0,2.118504703E-2,6.510465324E-2,-3.344332534E-1,3.413693353E-1
1.036517375E0,1.460288753E-1,3.290178546E-1,-6.271086162E-1,7.230784174E-1
1.046598375E0,3.767725765E-1,5.081130999E-1,-7.990056467E-1,1.019091026E0
1.056679375E0,4.498273234E-1,6.080557564E-1,-8.813274264E-1,1.161384715E0
1.066760375E0,3.372291727E-1,5.942487261E-1,-8.660311103E-1,1.103116017E0
1.076841375E0,2.746886697E-1,3.566383472E-1,-6.298462826E-1,7.741777029E-1
1.086922375E0,2.718734911E-1,9.050057262E-2,-3.127406681E-1,4.241606704E-1
1.097003375E0,9.990150668E-2,-8.990766495E-2,2.728310823E-3,1.344289512E-1
1.107084375E0,-4.943820834E-2,-1.342614269E-1,2.058904034E-1,2.507212105E-1
1.117165375E0,-8.729710244E-2,-1.548143899E-1,1.075256181E-1,2.077258722E-1
1.127246375E0,1.846148707E-3,-1.664842629E-1,-2.145817047E-1,2.715984648E-1
1.137327375E0,1.042660877E-1,-2.362275124E-3,-5.336332726E-1,5.437292222E-1
1.147408375E0,2.297021659E-1,1.993976551E-1,-6.615837997E-1,7.281590719E-1
1.157489375E0,2.458507137E-1,2.139966908E-1,-6.228921890E-1,7.030162418E-1
1.167570375E0,1.397757533E-1,1.137938333E-1,-5.503030998E-1,5.790680437E-1
1.177651375E0,3.781715959E-2,-2.594965070E-2,-4.378026706E-1,4.401984783E-1
1.187732375E0,-6.071375974E-2,-1.424679941E-1,-3.138048613E-1,3.499382530E-1
1.197813375E0,7.948821902E-2,-8.555295110E-2,-1.363518065E-1,1.795257629E-1
1.207894375E0,2.138178391E-1,4.725251913E-2,2.888056755E-2,2.208731674E-1
1.217975375E0,2.820971284E-1,1.070117940E-1,5.786755443E-2,3.072116010E-1
1.228056375E0,3.526038415E-1,7.884648710E-2,1.991093874E-2,3.618600324E-1
1.238137375E0,3.770244453E-1,8.518106818E-2,1.864033878E-2,3.869763675E-1
1.248218375E0,3.647608241E-1,1.585286875E-1,-5.137656033E-2,4.010253789E-1
1.258299375E0,3.124961814E-1,1.304971357E-1,-1.182108200E-1,3.586881148E-1
1.268380375E0,2.815779322E-1,1.642865869E-1,-2.697659719E-1,4.231428768E-1
1.278461375E0,2.110684418E-1,1.614325610E-1,-4.668066144E-1,5.371394364E-1
1.288542375E0,1.736385506E-1,1.474698485E-1,-5.948857802E-1,6.370139669E-1
1.298623375E0,9.977663208E-2,5.307064489E-2,-6.656692493E-1,6.751943565E-1
1.308704375E0,-9.855905905E-2,-5.746234238E-2,-5.243549109E-1,5.366226621E-1
1.318785375E0,-7.020357147E-2,-1.630247578E-2,-2.433850890E-1,2.538318611E-1
1.328866375E0,3.991583493E-2,-2.824307486E-2,-7.736626446E-2,9.152313387E-2
1.338947375E0,1.204452238E-1,-4.168056116E-2,-2.948692381E-2,1.308197225E-1
1.349028375E0,2.353651942E-1,1.558920318E-1,-2.209183323E-1,3.584745595E-1
1.359109375E0,3.709463012E-1,4.147837906E-1,-4.936155134E-1,7.438434152E-1
1.369190375E0,5.111548946E-1,5.326333988E-1,-6.470844591E-1,9.816801724E-1
1.379271375E0,5.443216174E-1,4.983485422E-1,-6.126905519E-1,9.591803819E-1
1.389352375E0,4.346600115E-1,3.199217798E-1,-4.749167025E-1,7.189055189E-1
1.399433375E0,2.293184058E-1,2.283001497E-2,-3.380380619E-1,4.091184084E-1
1.409514375E0,-6.681408674E-2,-1.030288169E-1,-2.006097829E-1,2.352091501E-1
1.419595375E0,-1.817500274E-1,-7.022301346E-2,-7.555187345E-3,1.949908329E-1
1.429676375E0,-1.688461726E-1,-3.433397323E-2,3.005129707E-1,3.464042397E-1
1.439757375E0,-8.989297383E-2,1.957954779E-2,4.418501133E-1,4.513265204E-1
1.449838375E0,-6.391445249E-2,9.505774632E-2,2.962807560E-1,3.176528274E-1
1.459919375E0,-4.373125277E-2,1.780360222E-1,-2.660132289E-2,1.852481526E-1
1.470000375E0,-7.203590613E-2,3.116365676E-1,-3.458060879E-1,4.710502865E-1
1.480081375E0,-8.468960971E-3,5.242300728E-1,-6.373938686E-1,8.253240795E-1
1.490162375E0,-5.666046984E-2,5.987529825E-1,-9.343745363E-1,1.111202644E0
1.500243375E0,-2.273978513E-1,5.508620936E-1,-1.011696947E0,1.174176111E0
1.510324375E0,-3.723684537E-1,4.150398986E-1,-8.317909849E-1,1.001395339E0
1.520405375E0,-4.119722300E-1,2.914942253E-1,-3.951764685E-1,6.409792843E-1
1.530486375E0,-4.007589149E-1,2.165665421E-1,-9.193518698E-2,4.647158849E-1
1.540567375E0,-5.294442177E-1,1.388671325E-1,-4.536094487E-2,5.492293469E-1
1.550648375E0,-5.089705576E-1,1.179514959E-1,8.122367263E-3,5.225223026E-1
1.560729375E0,-3.226745758E-1,2.529696988E-1,-1.408196640E-1,4.335236189E-1
1.570810375E0,-1.063981287E-1,5.383139688E-1,-4.289377069E-1,6.964840610E-1
1.580891375E0,9.180530570E-3,7.570854959E-1,-6.461354560E-1,9.953661425E-1
1.590972375E0,5.738716546E-1,6.334174696E-1,-8.134938776E-1,1.179965532E0
1.601053375E0,9.452758659E-2,8.544444139E-1,-8.459289676E-1,1.206070702E0
1.611134375E0,-5.515324038E-1,1.049695370E0,-1.447621492E0,1.871271318E0
1.621215375E0,-3.824334121E-1,1.041341599E0,-2.630099235E0,2.854482375E0
1.631296375E0,-8.745651946E-1,-1.142386602E-1,6.018363655E-2,8.840457122E-1
1.641377375E0,-6.755219539E-1,-1.088746292E0,8.812683696E-1,1.555098819E0
1.651458375E0,-5.706015627E-1,-1.038924945E0,4.935143566E-1,1.283942212E0
1.661539375E0,-5.548426222E-1,-6.222244370E-1,3.256641841E-1,8.950255562E-1
1.671620375E0,-8.661465928E-2,-1.379252923E-1,9.546164274E-2,1.887813833E-1
1.681701375E0,3.328674056E-1,1.041178608E-1,-4.493912673E-1,5.688530124E-1
1.691782375E0,5.037107313E-1,1.354188833E-1,-1.178446088E0,1.288719503E0
1.701863375E0,4.882404970E-1,1.641354364E-1,-2.034045766E0,2.098251987E0
1.711944375E0,2.936714726E-1,1.009270352E-1,-2.699226773E0,2.717030433E0
1.722025375E0,1.406493638E-1,-5.125756949E-2,-2.865549068E0,2.869456576E0
1.732106375E0,1.082018486E-1,-2.607953198E-1,-2.682600215E0,2.697418350E0
1.742187375E0,1.191013509E-1,-6.231047353E-1,-2.406650228E0,2.488857160E0
1.752268375E0,-2.996858820E-2,-1.139121370E0,-2.229704127E0,2.504012002E0
1.762349375E0,-3.827021648E-1,-1.605515610E0,-2.155190134E0,2.714587599E0
1.772430375E0,-7.915894769E-1,-1.989134472E0,-2.181966289E0,3.056836066E0
1.782511375E0,-9.467243674E-1,-2.085153062E0,-2.044152678E0,3.069643382E0
1.792592333E0,-6.158272907E-1,-1.682072912E0,-2.018077605E0,2.698379097E0
1.802673333E0,-3.964273341E-2,-1.219547921E0,-2.011579009E0,2.352725821E0
1.812754333E0,3.291722211E-1,-1.080541040E0,-2.061727070E0,2.350881069E0
1.822835333E0,5.524320710E-1,-7.783788626E-1,-2.343810786E0,2.530712123E0
1.832916333E0,8.101728053E-1,-1.754983306E-1,-2.242444040E0,2.390760321E0
1.842997333E0,9.089263574E-1,-2.162388057E-2,-1.434917831E0,1.698706536E0
1.853078333E0,6.083982570E-1,-1.061021134E-1,-2.173199558E-1,6.547015052E-1
1.863159333E0,1.029728298E-1,-1.558848689E-1,9.492621320E-1,9.674720106E-1
1.873240333E0,-2.145535650E-1,-2.268515021E-1,2.201422899E0,2.223456232E0
1.883321333E0,-5.150212929E-1,-2.119659528E-1,3.236070752E0,3.283645901E0
1.893402333E0,-1.490259680E0,6.671605816E-1,3.815943806E0,4.150590836E0
1.903483333E0,-2.438016885E0,2.142089301E0,4.443129020E0,5.502169427E0
1.913564333E0,-2.707639747E0,3.207754733E0,6.216172621E0,7.500786991E0
1.923645333E0,-1.929650893E0,3.287787327E0,9.911234014E0,1.061911756E1
1.933726333E0,-9.150110431E-1,2.853384228E0,1.484434158E1,1.514376187E1
1.943807333E0,-6.414589991E-1,2.365248433E0,1.905596588E1,1.921290466E1
1.953888333E0,-8.059636141E-1,1.744905922E0,2.141767967E1,2.150375029E1
1.963969333E0,-8.391293136E-1,1.427402405E0,2.231505888E1,2.237640428E1
1.974050333E0,-4.293335634E-1,1.823036710E0,2.189262795E1,2.197259540E1
1.984131333E0,1.825198864E-1,2.498857895E0,2.008318836E1,2.023887494E1
1.994212333E0,5.078402542E-1,2.997650533E0,1.760846543E1,1.786901971E1
2.004293333E0,3.281585332E-1,2.862973077E0,1.520317234E1,1.547387321E1
2.014374333E0,1.302818120E-1,2.346358418E0,1.290257482E1,1.311483161E1
2.024455333E0,-5.317311734E-4,1.699537084E0,1.046421455E1,1.060133071E1
2.034536333E0,-6.058921404E-2,1.043567634E0,7.966014470E0,8.034307127E0
2.044617333E0,1.026504289E-1,3.473351347E-1,6.054891211E0,6.065714004E0
2.054698333E0,1.756688135E-1,-1.298328920E-1,4.585561346E0,4.590761263E0
2.064779333E0,3.078324787E-1,-3.172463863E-1,3.230727566E0,3.260829144E0
2.074860333E0,5.905836913E-1,-3.773540090E-1,1.190879608E0,1.381802947E0
2.084941333E0,8.551609902E-1,-5.775565334E-1,-1.424054289E0,1.758636542E0
2.095022333E0,7.562748525E-1,-9.017277771E-1,-4.065345680E0,4.232268910E0
2.105103333E0,4.651812712E-1,-1.380037911E0,-6.197365052E0,6.366178747E0
2.115184333E0,1.755588127E-1,-1.927189069E0,-7.929752378E0,8.162466011E0
2.125265333E0,-7.757088047E-2,-2.435095470E0,-9.109633373E0,9.429799965E0
2.135346333E0,-3.017114306E-1,-2.935574738E0,-9.977798717E0,1.040505147E1
2.145427333E0,-5.725516457E-1,-3.382917141E0,-1.091678086E1,1.144325339E1
2.155508333E0,-6.535877323E-1,-3.772994837E0,-1.154673532E1,1.216510433E1
2.165589333E0,-7.062619360E-1,-3.731600059E0,-1.218411807E1,1.276230301E1
2.175670333E0,-4.909976054E-1,-3.240649121E0,-1.277397700E1,1.318777365E1
2.185751333E0,-1.278539749E-1,-2.617973279E0,-1.332429121E1,1.357964900E1
2.195832333E0,4.324528337E-1,-2.116975656E0,-1.411013127E1,1.427460703E1
2.205913333E0,8.211906407E-1,-2.048139310E0,-1.456891784E1,1.473508045E1
2.215994333E0,7.100991713E-1,-2.296332272E0,-1.454177974E1,1.473908888E1
2.226075333E0,4.193783864E-1,-2.636946032E0,-1.407891415E1,1.432987042E1
2.236156333E0,3.165412121E-2,-2.987397733E0,-1.322761686E1,1.356080362E1
2.246237333E0,-2.677833273E-1,-3.113159940E0,-1.220643807E1,1.260002393E1
2.256318333E0,-4.245050059E-1,-3.078950220E0,-1.113228701E1,1.155802548E1
2.266399333E0,-6.758763682E-1,-3.064165243E0,-1.027706155E1,1.074541352E1
2.276480333E0,-9.829488185E-1,-3.069618648E0,-9.784665769E0,1.030186542E1
2.286561333E0,-1.120202558E0,-2.998272092E0,-9.514833723E0,1.003875242E1
2.296642333E0,-1.083561493E0,-2.704367937E0,-9.298838162E0,9.744542196E0
2.306723333E0,-9.329842877E-1,-2.301684813E0,-9.311982703E0,9.637491090E0
2.316804333E0,-6.727858955E-1,-2.084808076E0,-9.135592087E0,9.394578668E0
2.326885333E0,-5.066139469E-1,-2.007013211E0,-8.603346359E0,8.848860282E0
2.336966333E0,-3.667561134E-1,-1.912323693E0,-8.123696920E0,8.353798154E0
2.347047333E0,-1.951378489E-1,-2.048136094E0,-7.620913557E0,7.893748392E0
2.357128333E0,-5.325329363E-1,-2.494855476E0,-7.047967114E0,7.495447660E0
2.367209333E0,-7.420059653E-1,-2.694927607E0,-6.499711125E0,7.075270480E0
2.377290333E0,-6.303533824E-1,-2.677164059E0,-5.876839401E0,6.488589533E0
2.387371333E0,-4.183881605E-1,-2.536985542E0,-5.211288850E0,5.811099360E0
2.397452333E0,-2.291747105E-1,-2.287165007E0,-4.800675148E0,5.322605254E0
2.407533333E0,-4.808114268E-2,-1.981033739E0,-4.379651647E0,4.807094239E0
2.417614333E0,4.612216464E-1,-1.729374548E0,-3.676607580E0,4.089120325E0
2.427695333E0,6.646690831E-1,-1.537006415E0,-2.463478732E0,2.978741542E0
2.437776333E0,-9.767481387E-3,-6.142137516E-1,-4.346989685E-1,7.525404504E-1
2.447857333E0,-7.443934565E-1,1.369129053E0,1.912854620E0,2.467316109E0
2.457938333E0,-6.016122709E-1,4.493214223E0,2.826631755E0,5.342355141E0
2.468019333E0,8.589964713E-1,8.552149308E0,2.078963492E0,8.843032394E0
2.478100333E0,3.463447041E0,1.092195565E1,2.163457512E0,1.166040861E1
2.488181333E0,5.932942851E0,8.788783202E0,8.115423110E0,1.335300016E1
2.498262333E0,6.353230771E0,3.596624687E0,2.005956561E1,2.134678952E1
2.508343333E0,4.632803633E0,-1.833394760E0,3.304069309E1,3.341424256E1
2.518424333E0,2.685308061E0,-4.736556920E0,3.998470139E1,4.035371353E1
2.528505333E0,1.272991619E0,-4.231641954E0,3.688792944E1,3.715167075E1
2.538586333E0,5.655062990E-1,-1.123724044E0,2.616211981E1,2.619234747E1
2.548667333E0,9.140360199E-1,2.499349061E0,1.498461979E1,1.521910109E1
2.558748333E0,1.289825460E0,4.910248461E0,6.882399110E0,8.552286664E0
2.568829333E0,1.351736364E0,5.706364413E0,2.650908891E0,6.435612167E0
2.578910333E0,1.099008813E0,4.745846684E0,2.112770923E0,5.309866485E0
2.588991333E0,4.836267880E-1,2.808731673E0,3.678178142E0,4.653156233E0
2.599072333E0,5.416845962E-2,1.001172836E0,4.931318902E0,5.032214958E0
2.609153333E0,1.222435715E-1,1.200930387E-1,4.427594138E0,4.430909125E0
2.619234333E0,6.042329930E-1,-6.686057210E-2,2.722426186E0,2.789475252E0
2.629315333E0,1.003497542E0,1.058749491E-1,6.445455980E-1,1.197353686E0
2.639396333E0,1.196308674E0,5.232471558E-1,-1.479762467E0,1.973483972E0
2.649477333E0,1.443287243E0,9.338111570E-1,-3.427684008E0,3.834592417E0
2.659558333E0,1.791590384E0,1.419111345E0,-5.080573760E0,5.570987600E0
2.669639333E0,2.131828022E0,1.783935502E0,-6.520002717E0,7.087845373E0
2.679720333E0,2.291507442E0,1.741733223E0,-7.176204740E0,7.731917967E0
2.689801333E0,2.102178108E0,1.353069968E0,-6.880563669E0,7.320663053E0
2.699882333E0,1.559577837E0,6.199019229E-1,-6.326947537E0,6.545748740E0
2.709963333E0,8.886113030E-1,-4.414779380E-1,-5.924528707E0,6.007043634E0
2.720044333E0,1.752869537E-1,-1.849561434E0,-5.178968366E0,5.502119260E0
2.730125333E0,-6.875471914E-1,-3.131520489E0,-4.435266854E0,5.472726357E0
2.740206333E0,-1.354875296E0,-3.616228647E0,-3.894729189E0,5.484679767E0
2.750287333E0,-1.442316459E0,-3.581006481E0,-3.379380160E0,5.130701166E0
2.760368333E0,-1.215824268E0,-3.254997604E0,-3.051356624E0,4.624285383E0
2.770449333E0,-9.768171358E-1,-2.846924224E0,-2.808493692E0,4.116647431E0
2.780530333E0,-8.312625428E-1,-2.357471636E0,-2.751059416E0,3.717122252E0
2.790611333E0,-7.024029198E-1,-1.833597659E0,-2.789766229E0,3.411487337E0
2.800691583E0,-5.958372684E-1,-1.388143029E0,-3.002763923E0,3.361332221E0
2.810772583E0,-6.058980607E-1,-1.110214344E0,-3.194245033E0,3.435533391E0
2.820853583E0,-6.148622078E-1,-9.040233940E-1,-2.714335393E0,2.926248530E0
2.830934583E0,-5.796118297E-1,-9.565623808E-1,-1.727628862E0,2.058072629E0
2.841015583E0,-7.234948500E-1,-1.315610658E0,-6.305970651E-1,1.628474396E0
2.851096583E0,-9.226028486E-1,-1.565836405E0,2.568880641E-1,1.835492070E0
2.861177583E0,-9.604777495E-1,-1.705691278E0,1.254535906E0,2.325029157E0
2.871258583E0,-9.796559590E-1,-1.700428199E0,2.118785954E0,2.887981263E0
2.881339583E0,-9.203159295E-1,-1.423902261E0,2.318482987E0,2.872253892E0
2.891420583E0,-6.758324410E-1,-7.976233649E-1,1.936917082E0,2.201045275E0
2.901501583E0,-3.220161062E-1,-4.706716239E-2,9.338991576E-1,9.889779204E-1
2.911582583E0,-5.520137027E-2,3.056593975E-1,-1.648218995E-1,3.516263886E-1
2.921663583E0,3.151416810E-1,2.704711461E-1,-5.059630787E-1,6.545743327E-1
2.931744583E0,5.963478765E-1,3.870447457E-2,9.818995357E-2,6.056154664E-1
2.941825583E0,8.115385687E-1,-3.488808462E-1,1.240293258E0,1.522708133E0
2.951906583E0,7.458312137E-1,-1.062540533E0,2.403358245E0,2.731554034E0
2.961987583E0,3.041076196E-1,-1.638736273E0,3.007927015E0,3.438831625E0
2.972068583E0,-2.841116039E-1,-1.938350819E0,3.046284165E0,3.621846285E0
2.982149583E0,-6.119823444E-1,-2.002982140E0,2.522510467E0,3.278645895E0
2.992230583E0,-4.921053969E-1,-1.665047867E0,1.400649639E0,2.230778234E0
3.002311583E0,-2.101359936E-1,-9.556733117E-1,-5.329093874E-2,9.799533349E-1
3.012392583E0,2.939643815E-2,-2.853075787E-1,-1.404638025E0,1.433622177E0
3.022473583E0,2.702126261E-1,3.562281650E-1,-2.576290818E0,2.614801665E0
3.032554583E0,3.700564646E-1,7.585674727E-1,-3.596819984E0,3.694520320E0
3.042635583E0,2.396150967E-1,8.123279428E-1,-3.709195867E0,3.804658469E0
3.052716583E0,1.032061337E-1,6.675122917E-1,-2.883190117E0,2.961251327E0
3.062797583E0,-2.453974083E-2,2.703357831E-1,-1.652425482E0,1.674572665E0
3.072878583E0,-2.728946708E-1,-2.522266638E-1,-5.315417236E-1,6.485571642E-1
3.082959583E0,-6.206869116E-1,-6.496709749E-1,3.113461071E-1,9.509263990E-1
3.093040583E0,-7.547441246E-1,-8.476220289E-1,1.090901576E0,1.574219821E0
3.103121583E0,-5.067917754E-1,-7.697186977E-1,1.436980144E0,1.707107703E0
3.113202583E0,-2.453580127E-1,-4.612809956E-1,1.352767959E0,1.450159254E0
3.123283583E0,-1.094161873E-1,-5.025506437E-2,1.024511704E0,1.031562749E0
3.133364583E0,-5.135075949E-2,2.582963660E-1,5.313984668E-1,5.930752429E-1
3.143445583E0,-2.434320129E-2,5.016870099E-1,9.270526528E-2,5.107609163E-1
3.153526583E0,-2.450918913E-2,7.750089660E-1,-3.734131318E-1,8.606259146E-1
3.163607583E0,-4.901859753E-2,9.199067706E-1,-6.610610586E-1,1.133857580E0
3.173688583E0,-1.255106302E-1,7.823288029E-1,-5.455510676E-1,9.619860922E-1
3.183769583E0,-2.729703192E-1,5.494929680E-1,-3.727290076E-1,7.179012677E-1
3.193850583E0,-4.291719610E-1,2.687140578E-1,-1.803965431E-1,5.375302129E-1
3.203931583E0,-6.537961125E-1,-1.345663592E-1,2.076521695E-1,6.990542791E-1
3.214012583E0,-8.898916970E-1,-4.140784702E-1,4.499566931E-1,1.079735726E0
3.224093583E0,-9.267807573E-1,-3.253814712E-1,3.948566258E-1,1.058634700E0
3.234174583E0,-7.281433133E-1,-1.131038618E-1,3.422258377E-1,8.124676561E-1
3.244255583E0,-4.066031704E-1,7.617226303E-2,3.539424884E-1,5.444296437E-1
3.254336583E0,-1.631740263E-1,3.914190477E-1,1.001733291E-1,4.357399794E-1
3.264417583E0,-3.531623237E-2,7.063433585E-1,-3.913418645E-1,8.082800450E-1
3.274498583E0,2.080229378E-1,9.937000939E-1,-7.275152493E-1,1.248996340E0
3.284579583E0,4.882944741E-1,1.272488904E0,-8.344333416E-1,1.598104661E0
3.294660583E0,6.071324079E-1,1.376525489E0,-8.068654740E-1,1.707180153E0
3.304741583E0,6.161553195E-1,1.314469574E0,-8.215571880E-1,1.668062904E0
3.314822583E0,5.681355726E-1,1.047117333E0,-8.170595098E-1,1.444582632E0
3.324903583E0,3.857125307E-1,8.115403229E-1,-6.697529447E-1,1.120687672E0
3.334984583E0,2.742578030E-1,7.484620222E-1,-3.617818505E-1,8.753849716E-1
3.345065583E0,2.620633616E-1,6.714343116E-1,5.535500586E-2,7.228868632E-1
3.355146583E0,2.048371737E-1,4.538833907E-1,4.240552819E-1,6.540575527E-1
3.365227583E0,8.593002342E-2,2.720460936E-1,4.312005794E-1,5.170367353E-1
3.375308583E0,-2.765287153E-2,1.356209046E-1,2.599368024E-1,2.944908357E-1
3.385389583E0,-6.038368441E-2,1.547220039E-1,1.043248522E-1,1.961345524E-1
3.395470583E0,2.004014393E-2,2.083944735E-1,-3.006462872E-2,2.115035363E-1
3.405551583E0,-4.781048968E-3,2.320046532E-1,-2.074749988E-1,3.112794447E-1
3.415632583E0,7.459274735E-3,3.048054117E-1,-3.957875025E-1,4.996095745E-1
3.425713583E0,1.079084645E-1,4.909655553E-1,-5.026120394E-1,7.108517957E-1
3.435794583E0,1.643720294E-1,5.549545598E-1,-4.900732702E-1,7.583960296E-1
3.445875583E0,1.869590925E-1,4.824593183E-1,-2.959468800E-1,5.960748711E-1
3.455956583E0,1.409217710E-1,3.721513027E-1,-1.971061313E-1,4.440792324E-1
3.466037583E0,7.089184357E-2,3.278905115E-1,-1.434713763E-1,3.648587080E-1
3.476118583E0,5.904479994E-2,2.891085613E-1,9.911615252E-2,3.112781076E-1
3.486199583E0,1.064912274E-1,2.704153052E-1,3.447945195E-1,4.509413260E-1
3.496280583E0,1.520417134E-1,2.416937819E-1,3.088891071E-1,4.206483654E-1
3.506361583E0,2.024078017E-1,2.822614717E-1,1.260186070E-1,3.694876804E-1
3.516442583E0,2.255066425E-1,3.173593837E-1,-9.229362130E-2,4.001104057E-1
3.526523583E0,1.823894204E-1,2.685544288E-1,-1.858186662E-1,3.740534168E-1
3.536604583E0,8.832869746E-2,2.777842587E-1,-8.887241542E-2,3.047365410E-1
3.546685583E0,1.041966520E-2,3.092808706E-1,-3.247952878E-2,3.111561443E-1
3.556766583E0,1.934697479E-2,3.230402461E-1,-6.450648308E-2,3.299854427E-1
3.566847583E0,1.138233617E-3,3.688780314E-1,-2.396183127E-1,4.398741108E-1
3.576928583E0,3.756547350E-2,3.734756970E-1,-4.052512211E-1,5.523801347E-1
3.587009583E0,4.299073946E-2,3.670610091E-1,-4.670919585E-1,5.956147125E-1
3.597090583E0,-6.831302047E-3,4.172000062E-1,-5.564455998E-1,6.955100412E-1
3.607171583E0,9.313660707E-2,4.500648665E-1,-5.453896844E-1,7.132199658E-1
3.617252583E0,1.442313682E-1,4.229332012E-1,-5.622355127E-1,7.181810023E-1
3.627333583E0,4.142346639E-2,3.067908338E-1,-5.905348670E-1,6.667592882E-1
3.637414583E0,-2.142185926E-2,2.300563610E-1,-5.577150303E-1,6.036811081E-1
3.647495583E0,-6.026684973E-2,1.318599755E-1,-3.542284173E-1,3.827491579E-1
3.657576583E0,-7.313375741E-2,1.247602862E-1,-2.536978233E-1,2.920209942E-1
3.667657583E0,-1.099197605E-1,1.628306302E-1,-3.438572109E-1,3.960226627E-1
3.677738583E0,-8.087572675E-2,2.467817366E-1,-5.012946618E-1,5.645692576E-1
3.687819583E0,3.107970536E-2,3.850783271E-1,-6.265940613E-1,7.361191369E-1
3.697900583E0,1.112114470E-1,4.743594629E-1,-8.056223559E-1,9.414946980E-1
3.707981583E0,1.437945081E-1,4.616750979E-1,-9.452421713E-1,1.061745506E0
3.718062583E0,1.720026458E-1,4.470804477E-1,-9.431541306E-1,1.057830587E0
3.728143583E0,3.039375387E-1,4.483954865E-1,-8.176085633E-1,9.807753578E-1
3.738224583E0,4.596700512E-1,5.222212619E-1,-6.445415050E-1,9.483909288E-1
3.748305583E0,5.979598808E-1,5.714401996E-1,-5.070372123E-1,9.701477492E-1
3.758386583E0,6.227307328E-1,4.792798948E-1,-3.198701781E-1,8.484218962E-1
3.768467583E0,5.585277933E-1,3.391896710E-1,-2.407936031E-1,6.964082768E-1
3.778548583E0,4.281698944E-1,1.843162242E-1,-2.490761840E-1,5.285270801E-1
3.788629583E0,3.079946293E-1,1.645581901E-2,-3.746375388E-1,4.852677314E-1
3.798710875E0,2.877561734E-1,-4.694144726E-2,-5.374421489E-1,6.114337071E-1
3.808791875E0,2.745950411E-1,-4.343370259E-2,-7.548468894E-1,8.044145384E-1
3.818872875E0,2.672052569E-1,2.012465447E-2,-9.710207909E-1,1.007315754E0
3.828953875E0,2.256372181E-1,2.484277278E-2,-1.078887302E0,1.102509468E0
3.839034875E0,2.086429071E-1,4.160293937E-4,-1.202319685E0,1.220288761E0
3.849115875E0,2.090044477E-1,2.218024313E-2,-1.293775401E0,1.310736285E0
3.859196875E0,2.170192993E-1,-5.333830118E-2,-1.248648929E0,1.268489850E0
3.869277875E0,2.163232614E-1,-2.273812598E-1,-1.137079377E0,1.179596329E0
3.879358875E0,1.874828569E-1,-4.438185784E-1,-1.104181772E0,1.204716621E0
3.889439875E0,1.205811350E-1,-6.274638346E-1,-1.114326106E0,1.284512882E0
3.899520875E0,5.117950916E-2,-7.690921685E-1,-1.216258863E0,1.439933237E0
3.909601875E0,5.744922269E-2,-8.619146705E-1,-1.438124444E0,1.677617128E0
3.919682875E0,9.922304694E-2,-9.559694731E-1,-1.608356187E0,1.873641500E0
3.929763875E0,2.332005185E-1,-1.040183704E0,-1.724233968E0,2.027152534E0
3.939844875E0,3.951806712E-1,-1.088553919E0,-1.811213640E0,2.149793536E0
3.949925875E0,5.675553461E-1,-1.099312795E0,-1.923212963E0,2.286778475E0
3.960006875E0,6.887164152E-1,-1.167897711E0,-2.045687572E0,2.454211280E0
3.970087875E0,6.482222541E-1,-1.382234125E0,-2.227012653E0,2.700064560E0
3.980168875E0,4.681136498E-1,-1.695258091E0,-2.363171502E0,2.945778324E0
3.990249875E0,2.346944455E-1,-2.022857411E0,-2.440713767E0,3.178697419E0
4.000330875E0,-2.760814033E-2,-2.276335087E0,-2.475356766E0,3.363012750E0
4.010411875E0,-2.490659514E-1,-2.417109435E0,-2.441562783E0,3.444659735E0
4.020492875E0,-3.021927296E-1,-2.332007889E0,-2.544864957E0,3.464955828E0
4.030573875E0,-2.437491513E-1,-2.105459857E0,-2.706110115E0,3.437354624E0
4.040654875E0,-1.655216651E-1,-1.847271080E0,-3.121769380E0,3.631150221E0
4.050735875E0,-3.196171398E-1,-1.692748466E0,-3.755247953E0,4.131517841E0
4.060816875E0,-4.940004064E-1,-1.670824039E0,-3.969376498E0,4.334932428E0
4.070897875E0,-4.805151557E-1,-1.568613540E0,-3.934719467E0,4.263034193E0
4.080978875E0,-4.308736104E-1,-1.402749959E0,-4.146430773E0,4.398436958E0
4.091059875E0,-2.343072867E-1,-1.079816717E0,-4.256896956E0,4.397962681E0
4.101140875E0,-4.514485370E-2,-7.502778751E-1,-4.147743473E0,4.215297245E0
4.111221875E0,-4.451346405E-2,-5.357625362E-1,-3.715777493E0,3.754467382E0
4.121302875E0,-2.837276976E-1,-5.234930313E-1,-2.784917718E0,2.847861137E0
4.131383875E0,-7.543114306E-1,-7.652759832E-1,-1.257207499E0,1.653845144E0
4.141464875E0,-1.056101433E0,-8.244141376E-1,6.162415659E-1,1.474707624E0
4.151545875E0,-7.940078122E-1,-3.947019669E-1,2.878168529E0,3.011659365E0
4.161626875E0,-6.626144446E-1,1.717338932E-1,4.678275967E0,4.728088034E0
4.171707875E0,-8.175128151E-1,6.914481613E-1,6.062745776E0,6.156566746E0
4.181788875E0,-1.153156077E0,1.320701975E0,7.900634413E0,8.092839228E0
4.191869875E0,-1.494732947E0,1.876846443E0,1.044798970E1,1.071994720E1
4.201950875E0,-1.186801833E0,2.500613229E0,1.330541406E1,1.359027625E1
4.212031875E0,-4.672980729E-1,3.583352092E0,1.596465523E1,1.636853678E1
4.222112875E0,1.973532310E-1,4.063981524E0,1.864928034E1,1.908796876E1
4.232193875E0,1.113520287E0,3.678933018E0,2.166906083E1,2.200733225E1
4.242274875E0,2.685093468E0,3.202988375E0,2.426661388E1,2.462391948E1
4.252355875E0,4.625120684E0,2.934374597E0,2.574217044E1,2.631846566E1
4.262436875E0,6.190226187E0,2.513357528E0,2.612070047E1,2.696158118E1
4.272517875E0,6.958793567E0,1.937932159E0,2.527069307E1,2.628285215E1
4.282598875E0,6.736339756E0,1.471238396E0,2.316762502E1,2.417191893E1
4.292679875E0,5.751193262E0,1.388180159E0,1.952380395E1,2.040054383E1
4.302760875E0,4.216005330E0,1.686748346E0,1.461684396E1,1.530594487E1
4.312841875E0,2.426617446E0,2.168589613E0,9.481623293E0,1.002459143E1
4.322922875E0,6.212799655E-1,2.733414566E0,4.824642300E0,5.579849219E0
4.333003875E0,-1.073101920E0,2.998319162E0,8.018140644E-1,3.283956657E0
4.343084875E0,-2.262347962E0,2.860724530E0,-2.157712038E0,4.237650809E0
4.353165875E0,-3.151701862E0,2.258391736E0,-3.908725669E0,5.505605708E0
4.363246875E0,-3.907842155E0,1.383551795E0,-4.544409227E0,6.151186967E0
4.373327875E0,-3.962549289E0,2.804348016E-1,-4.294406844E0,5.849988948E0
4.383408875E0,-3.632065538E0,-1.041241758E0,-3.457175610E0,5.121342370E0
4.393489875E0,-3.269998343E0,-2.433754119E0,-2.237933498E0,4.650203718E0
4.403570875E0,-3.277357357E0,-3.619330010E0,-1.499155342E0,5.107649920E0
4.413651875E0,-3.641958734E0,-4.410723459E0,-2.218678617E0,6.135216350E0
4.423732875E0,-3.795622685E0,-4.796589113E0,-4.343824587E0,7.502188396E0
4.433813875E0,-3.755699650E0,-4.962459419E0,-6.830370001E0,9.240413286E0
4.443894875E0,-3.659005415E0,-4.844290699E0,-9.129505135E0,1.096372824E1
4.453975875E0,-3.262508352E0,-4.591669640E0,-1.127036199E1,1.259954167E1
4.464056875E0,-2.533550010E0,-4.323093577E0,-1.315006407E1,1.407239136E1
4.474137875E0,-1.752333348E0,-4.141334340E0,-1.449845889E1,1.517981003E1
4.484218875E0,-1.304101876E0,-4.309207901E0,-1.525228427E1,1.590289691E1
4.494299875E0,-1.157546678E0,-4.734747499E0,-1.531874373E1,1.607549867E1
4.504380875E0,-1.104617097E0,-5.310743557E0,-1.450426401E1,1.548540766E1
4.514461875E0,-1.179619625E0,-5.701514733E0,-1.273663318E1,1.400430639E1
4.524542875E0,-1.187276846E0,-5.841865450E0,-1.081613741E1,1.235013550E1
4.534623875E0,-1.052665463E0,-5.846518664E0,-9.338354815E0,1.106773490E1
4.544704875E0,-8.000056668E-1,-5.762828051E0,-8.453143083E0,1.026186261E1
4.554785875E0,-4.904279038E-1,-5.639183414E0,-8.089683666E0,9.873393081E0
4.564866875E0,-2.948286000E-1,-5.547455803E0,-8.138743560E0,9.853950300E0
4.574947875E0,-1.031519008E-1,-5.328620834E0,-8.317304662E0,9.878380289E0
4.585027875E0,1.199945131E-1,-4.819311393E0,-8.294826211E0,9.593972215E0
4.595109875E0,1.328885007E-1,-4.234636606E0,-8.036738298E0,9.085095982E0
4.605190875E0,-2.177894872E-1,-3.874686396E0,-7.465996841E0,8.414376730E0
4.615270875E0,-9.671244988E-1,-3.744505156E0,-6.676874158E0,7.716041549E0
4.625352875E0,-1.893712006E0,-3.655497378E0,-6.098214401E0,7.357786700E0
4.635433875E0,-2.789948370E0,-3.590259115E0,-6.003485999E0,7.530977132E0
4.645513875E0,-3.600718907E0,-3.274338439E0,-6.512927002E0,8.130478891E0
4.655594875E0,-4.326888127E0,-2.764841303E0,-7.047208146E0,8.719486851E0
4.665675875E0,-4.863189192E0,-1.777077303E0,-7.291378516E0,8.942752010E0
4.675756875E0,-4.930473395E0,-1.832084692E-1,-6.979079897E0,8.546969607E0
4.685837875E0,-4.800864598E0,8.754039046E-1,-5.936457612E0,7.684800704E0
4.695918875E0,-4.796560754E0,7.547240978E-1,-4.414653080E0,6.562451170E0
4.705999875E0,-5.008983375E0,-3.480525881E-2,-3.591758634E0,6.163753397E0
4.716080875E0,-5.552273909E0,-9.958071381E-1,-3.472558465E0,6.624050099E0
4.726161875E0,-5.955957491E0,-1.466890991E0,-3.227679997E0,6.931314232E0
4.736242875E0,-6.351431583E0,-1.317264835E0,-2.521711153E0,6.959518442E0
4.746323875E0,-6.495944933E0,-1.083591971E0,-1.033010048E0,6.666226961E0
4.756404875E0,-6.016715909E0,-2.949864748E-1,9.216439784E-1,6.094039299E0
4.766485875E0,-5.923552222E0,1.692270164E0,2.709017351E0,6.729860641E0
4.776566875E0,-6.556059573E0,3.987807799E0,3.798079392E0,8.562122122E0
4.786647875E0,-5.937920001E0,5.577231579E0,3.287336215E0,8.784701783E0
4.796729708E0,-3.248117185E0,5.556439465E0,3.974694541E0,7.564554281E0
4.806810708E0,8.012451303E-1,5.669433984E0,9.210400779E0,1.084508912E1
4.816891708E0,4.285580180E0,5.994633315E0,1.570954122E1,1.735198868E1
4.826972708E0,6.852566031E0,6.577253391E0,2.097938408E1,2.302938297E1
4.837053708E0,7.876783036E0,7.528148650E0,2.351661726E1,2.591810217E1
4.847134708E0,7.748431975E0,8.214794201E0,2.217483095E1,2.488461713E1
4.857215708E0,7.307103433E0,7.714461991E0,1.784724350E1,2.077091199E1
4.867296708E0,6.651221838E0,6.320576996E0,1.231730478E1,1.535918105E1
4.877377708E0,6.584619128E0,5.266883592E0,8.259173398E0,1.180301729E1
4.887458708E0,6.876446060E0,4.883237833E0,6.758846859E0,1.080803095E1
4.897539708E0,5.692279640E0,4.298556029E0,5.872092047E0,9.239106907E0
4.907620708E0,3.769156725E0,3.581020222E0,4.437972946E0,6.835631069E0
4.917701708E0,2.371221364E0,2.926171538E0,3.082332249E0,4.866820597E0
4.927782708E0,1.777247457E0,2.095746463E0,2.787843665E0,3.914439175E0
4.937863708E0,1.478853225E0,1.047097744E0,2.990342098E0,3.496507745E0
4.947944708E0,9.827956215E-1,-8.286235482E-2,2.969700258E0,3.129196866E0
4.958025708E0,3.187794531E-1,-8.269106063E-1,2.531639140E0,2.682274823E0
4.968106708E0,-2.860261285E-1,-1.071376553E0,1.465515726E0,1.837769030E0
4.978187708E0,-6.405940497E-1,-1.234527026E0,1.515498894E-1,1.399065790E0
4.988268708E0,-4.322485101E-1,-1.101544678E0,-1.263466943E0,1.731065616E0
4.998349708E0,3.943101304E-1,-5.622127086E-1,-2.547092162E0,2.638037545E0
5.008430708E0,1.384825904E0,-1.819741219E-2,-3.651052909E0,3.904902210E0
5.018511708E0,2.058094779E0,3.860320079E-1,-4.659625688E0,5.108511171E0
5.028592708E0,2.185433249E0,5.834185132E-1,-5.729222349E0,6.159584756E0
5.038673708E0,1.758224125E0,3.318242258E-1,-6.414808384E0,6.659671613E0
5.048754708E0,1.087983742E0,-3.557329059E-1,-6.084088113E0,6.190830533E0
5.058835708E0,4.826419707E-1,-1.435938755E0,-4.495927039E0,4.744283225E0
5.068916708E0,2.059030480E-1,-2.504420644E0,-2.991306304E0,3.906716298E0
5.078997708E0,1.982818237E-1,-3.076397033E0,-1.761859632E0,3.550730030E0
5.089078708E0,4.338596373E-1,-3.036605853E0,-8.357828790E-1,3.179267575E0
5.099159708E0,7.509068893E-1,-2.546198707E0,-3.850707257E-1,2.682399761E0
5.109240708E0,9.604819156E-1,-1.733465552E0,-1.034764212E-1,1.984473658E0
5.119321708E0,9.998705875E-1,-6.250021568E-1,-6.722602308E-2,1.181053862E0
5.129402708E0,8.319259094E-1,6.781229416E-1,-6.670474380E-1,1.263686562E0
5.139483708E0,5.017972299E-1,1.720440879E0,-1.490631271E0,2.331029572E0
5.149564708E0,3.636430192E-1,2.158917734E0,-2.283114349E0,3.163190345E0
5.159645708E0,4.555972827E-1,1.994569167E0,-2.650287917E0,3.348119037E0
5.169726708E0,6.424226202E-1,1.575959104E0,-2.496735941E0,3.021596313E0
5.179807708E0,9.928539287E-1,1.094120176E0,-2.117539912E0,2.582021139E0
5.189888708E0,1.387854469E0,4.076234365E-1,-1.332926018E0,1.966974494E0
5.199969708E0,1.575797429E0,-5.506846306E-1,2.975396615E-1,1.695559185E0
5.210050708E0,1.494250405E0,-1.315529674E0,2.173922859E0,2.947769189E0
5.220131708E0,1.029745693E0,-1.611724476E0,3.472186582E0,3.964102880E0
5.230212708E0,5.425422366E-1,-1.590273673E0,3.762269874E0,4.120436511E0
5.240293708E0,4.020351063E-1,-1.276491323E0,2.787005759E0,3.091676475E0
5.250374708E0,5.609068792E-1,-7.962013221E-1,1.083548702E0,1.456925139E0
5.260455708E0,8.115656121E-1,-2.096674123E-1,-4.728409410E-1,9.623812768E-1
5.270536708E0,8.678449166E-1,3.139542577E-1,-1.457488083E0,1.725106834E0
5.280617708E0,6.643615926E-1,7.835119870E-1,-1.929992809E0,2.186353037E0
5.290698708E0,4.390720280E-1,1.063552686E0,-2.123748486E0,2.415416360E0
5.300779708E0,4.016802534E-1,1.207489793E0,-1.977160544E0,2.351285275E0
5.310860708E0,3.624248980E-1,1.286999355E0,-1.760724687E0,2.210852905E0
5.320941708E0,2.397487787E-1,1.109740135E0,-1.619049575E0,1.977453962E0
5.331022708E0,1.096372669E-1,8.017438978E-1,-1.395038066E0,1.612744497E0
5.341103708E0,-3.155669197E-3,4.186097699E-1,-1.130753274E0,1.205755806E0
5.351184708E0,-5.432399556E-2,2.772407600E-1,-6.341217667E-1,6.942074261E-1
5.361265708E0,-3.983291410E-2,3.225394320E-1,2.079837066E-1,3.858439691E-1
5.371346708E0,1.460688557E-1,4.789173675E-1,9.603683335E-1,1.083053688E0
5.381427708E0,4.174120409E-1,6.737161875E-1,1.320391341E0,1.539986886E0
5.391508708E0,5.866965354E-1,6.073605224E-1,1.566867853E0,1.779936656E0
5.401589708E0,5.561033915E-1,3.502017322E-1,1.744675249E0,1.864345451E0
5.411670708E0,3.403750478E-1,3.063385516E-2,1.834526489E0,1.866087095E0
5.421751708E0,1.469416257E-1,-3.110984775E-1,1.846577016E0,1.878355871E0
5.431832708E0,5.599951521E-2,-5.901185453E-1,1.705426399E0,1.805506867E0
5.441913708E0,-4.447553024E-2,-7.599187642E-1,1.263301467E0,1.474918709E0
5.451994708E0,-8.071693830E-2,-7.466868076E-1,7.540388042E-1,1.064251348E0
5.462075708E0,3.058430001E-2,-4.962227869E-1,3.334509212E-1,5.986334191E-1
5.472156708E0,1.207137937E-1,-3.350323007E-1,-7.343927443E-2,3.636093914E-1
5.482237708E0,2.727536067E-2,-2.925762525E-1,-3.176353723E-1,4.327089536E-1
5.492318708E0,-6.599533036E-2,-4.180133539E-1,-3.130359524E-1,5.263858425E-1
5.502399708E0,-1.772860437E-1,-4.758224362E-1,-3.232808590E-1,6.019533586E-1
5.512480708E0,-1.542154158E-1,-4.165158820E-1,-4.924349606E-1,6.631440755E-1
5.522561708E0,-9.990903497E-2,-3.176672396E-1,-6.576100320E-1,7.371195592E-1
5.532642708E0,2.562301062E-2,-1.731076965E-1,-8.095411599E-1,8.282389165E-1
5.542723708E0,2.388950121E-1,-1.234551877E-2,-8.641933304E-1,8.966902202E-1
5.552804708E0,3.166416380E-1,1.335580069E-1,-9.853967553E-1,1.043602622E0
5.562885708E0,2.921145418E-1,2.162519619E-1,-1.210834985E0,1.264206146E0
5.572966708E0,3.024169703E-1,1.889799634E-1,-1.351069928E0,1.397340116E0
5.583047708E0,2.627947752E-1,1.005346870E-1,-1.136295265E0,1.170613192E0
5.593128708E0,4.844187934E-2,-3.667461365E-2,-7.263890755E-1,7.289257383E-1
5.603209708E0,-1.709176949E-1,-1.740648857E-1,-4.267812538E-1,4.915828328E-1
5.613290708E0,-3.540981705E-1,-3.175748536E-1,-2.390294981E-1,5.323292242E-1
5.623371708E0,-4.788952942E-1,-4.457800269E-1,-8.921974003E-2,6.603186331E-1
5.633452708E0,-4.907576502E-1,-4.118065345E-1,-3.361388862E-2,6.415275416E-1
5.643533708E0,-4.411611651E-1,-2.845152810E-1,-8.965477288E-2,5.325505582E-1
5.653614708E0,-3.998910054E-1,-1.662187994E-1,-1.311121166E-1,4.524730849E-1
5.663695708E0,-2.732428725E-1,-1.323224902E-3,-1.350244886E-1,3.047868613E-1
5.673776708E0,-8.526979968E-2,1.598596600E-1,-1.658866775E-1,2.456510521E-1
5.683857708E0,8.110636286E-3,2.954951826E-1,-2.374080652E-1,3.791382001E-1
5.693938708E0,1.074162751E-2,3.704199421E-1,-3.539126676E-1,5.124260848E-1
5.704019708E0,6.160407141E-3,3.385979328E-1,-4.631678921E-1,5.737691234E-1
5.714100708E0,-3.082878672E-2,2.348060542E-1,-3.250274223E-1,4.021531082E-1
5.724181708E0,-1.665306752E-1,5.527402192E-2,-6.557359993E-2,1.873167913E-1
5.734262708E0,-2.868184262E-1,-1.735336661E-1,1.611960411E-1,3.719716475E-1
5.744343708E0,-3.275414327E-1,-3.466869709E-1,2.884864175E-1,5.574043945E-1
5.754424708E0,-3.449262281E-1,-3.888038805E-1,4.043951887E-1,6.585423517E-1
5.764505708E0,-2.320182114E-1,-3.177204493E-1,3.980883819E-1,5.596901769E-1
5.774586708E0,-7.413428910E-2,-1.822381237E-1,3.383526421E-1,3.913938387E-1
5.784667708E0,6.603202164E-2,5.600463152E-3,2.360941958E-1,2.452183973E-1
5.794747625E0,1.765792615E-1,1.973376811E-1,3.488214970E-2,2.670939167E-1
5.804828625E0,2.919653647E-1,3.845055923E-1,-2.470659113E-1,5.423374311E-1
5.814909625E0,4.359618209E-1,5.930345517E-1,-4.563079387E-1,8.660078659E-1
5.824990625E0,4.997949971E-1,6.890601584E-1,-5.562766153E-1,1.016878859E0
5.835071625E0,3.634299613E-1,5.900150496E-1,-5.671196920E-1,8.954461684E-1
5.845152625E0,2.636488342E-1,4.256311065E-1,-4.643157005E-1,6.828335202E-1
5.855233625E0,1.962084375E-1,1.837858817E-1,-2.143209189E-1,3.438145686E-1
5.865314625E0,8.081003694E-2,-6.340135932E-2,4.093635678E-3,1.027947094E-1
5.875395625E0,-7.748291641E-3,-1.532642931E-1,-1.108047366E-3,1.534640262E-1
5.885476625E0,-1.353962984E-1,-1.875497344E-1,-9.549321771E-2,2.502519033E-1
5.895557625E0,-1.735108620E-1,-2.016175506E-1,-1.739306921E-1,3.178168365E-1
5.905638625E0,-1.399837314E-1,-1.651230311E-1,-2.585182679E-1,3.371835632E-1
5.915718625E0,-7.700907268E-2,-1.237501797E-1,-3.469538963E-1,3.763263350E-1
5.925800625E0,3.753875904E-2,-3.013421059E-2,-2.987968129E-1,3.026495737E-1
5.935880625E0,2.465607119E-1,1.704229474E-1,-1.197848904E-1,3.227763709E-1
5.945961625E0,4.333445341E-1,2.950747678E-1,6.264122128E-3,5.243051049E-1
5.956042625E0,4.501886082E-1,2.936752367E-1,-3.485408306E-2,5.386369229E-1
5.966123625E0,3.502359384E-1,2.471182439E-1,-2.518875253E-1,4.971719667E-1
5.976204625E0,2.666468478E-1,1.135350940E-1,-4.502864760E-1,5.354891871E-1
5.986285625E0,1.696490684E-1,-1.578251213E-2,-3.522421181E-1,3.912855784E-1
5.996366625E0,6.494612060E-2,-2.574470580E-2,-1.504430115E-1,1.658731087E-1
6.006447625E0,3.950371586E-2,4.982704818E-3,-8.545530260E-2,9.427608210E-2
6.016528625E0,1.938870929E-2,-1.714666754E-2,-1.127109289E-1,1.156446443E-1
6.026609625E0,-1.678596742E-2,-9.020353407E-2,-2.139776874E-1,2.328194514E-1
6.036690625E0,-1.346649579E-1,-1.511399996E-1,-2.981834400E-1,3.604043760E-1
6.046771625E0,-1.510974611E-1,-2.281519228E-1,-3.005603331E-1,4.064729468E-1
6.056852625E0,-6.037791029E-2,-2.705071065E-1,-2.796822649E-1,3.937534203E-1
6.066933625E0,2.686656721E-2,-1.825360394E-1,-3.239451027E-1,3.728024244E-1
6.077014625E0,1.461994679E-1,1.894936413E-2,-3.984590954E-1,4.248564622E-1
6.087095625E0,3.019920970E-1,1.757807511E-1,-4.476698470E-1,5.678964615E-1
6.097176625E0,4.645549247E-1,3.161525184E-1,-4.873122150E-1,7.437989566E-1
6.107257625E0,5.400562198E-1,3.462487221E-1,-5.217534846E-1,8.269072480E-1
6.117338625E0,5.601951268E-1,3.023656610E-1,-5.021635580E-1,8.108093562E-1
6.127419625E0,5.031545149E-1,1.907926002E-1,-4.069176775E-1,6.746467805E-1
6.137500625E0,3.624428051E-1,2.732666999E-2,-2.825093937E-1,4.603510523E-1
6.147581625E0,1.463824126E-1,-2.837007639E-1,-1.814203906E-1,3.671883608E-1
6.157662625E0,-4.673424112E-2,-4.460115767E-1,-8.057638586E-2,4.556346889E-1
6.167743625E0,-1.072883673E-1,-3.471728745E-1,-5.747812986E-4,3.633732639E-1
6.177824625E0,-8.070334353E-2,-2.262235111E-1,-2.395545781E-2,2.413793085E-1
6.187905625E0,-9.860159755E-3,-1.755179188E-1,-7.682773590E-2,1.918495858E-1
6.197986625E0,7.300124489E-2,-1.428463089E-1,-1.556739306E-1,2.235366243E-1
6.208067625E0,1.731286003E-1,-5.467468232E-2,-2.908475232E-1,3.428631139E-1
6.218148625E0,2.907604728E-1,7.461602658E-2,-3.935702384E-1,4.949815517E-1
6.228229625E0,4.065729111E-1,1.768855825E-1,-4.572569418E-1,6.369253898E-1
6.238310625E0,4.638800099E-1,2.013555953E-1,-5.194502664E-1,7.249533216E-1
6.248391625E0,4.288288756E-1,1.510236400E-1,-5.269768023E-1,6.959934588E-1
6.258472625E0,3.980907939E-1,1.424747184E-1,-5.170745426E-1,6.679381769E-1
6.268553625E0,3.850295759E-1,6.230617583E-2,-5.503989941E-1,6.745879383E-1
6.278634625E0,3.471742632E-1,-8.174173594E-2,-6.113404298E-1,7.077773672E-1
6.288715625E0,2.509884428E-1,-2.238969040E-1,-6.421149105E-1,7.248700437E-1
6.298796625E0,1.893660258E-1,-2.758880067E-1,-5.953102881E-1,6.829114313E-1
6.308877625E0,2.412846230E-1,-2.974616012E-1,-5.683481920E-1,6.853621968E-1
6.318958625E0,3.225317576E-1,-3.682053092E-1,-6.234611231E-1,7.926573386E-1
6.329039625E0,3.157219440E-1,-4.991677371E-1,-6.923670512E-1,9.100664313E-1
6.339120625E0,3.190282521E-1,-5.354809928E-1,-8.071174890E-1,1.019783095E0
6.349201625E0,4.604772227E-1,-5.494874132E-1,-8.971727961E-1,1.148431415E0
6.359282625E0,5.848852873E-1,-6.472481811E-1,-1.027774451E0,1.348088027E0
6.369363625E0,6.368657188E-1,-7.670482743E-1,-1.217740547E0,1.573802096E0
6.379444625E0,6.686101064E-1,-8.523942339E-1,-1.377611024E0,1.752548869E0
6.389525625E0,6.708775105E-1,-9.892722899E-1,-1.479957179E0,1.902369456E0
6.399606625E0,7.011654297E-1,-1.153405095E0,-1.533630525E0,2.043036677E0
6.409687625E0,7.261610341E-1,-1.310563926E0,-1.503446614E0,2.122554916E0
6.419768625E0,6.653382238E-1,-1.500992245E0,-1.396943673E0,2.155714336E0
6.429849625E0,5.343444403E-1,-1.701702307E0,-1.297011250E0,2.205346437E0
6.439930625E0,3.784971397E-1,-1.888010678E0,-1.364965836E0,2.360291537E0
6.450011625E0,2.294904967E-1,-1.975880296E0,-1.586975259E0,2.544653081E0
6.460092625E0,1.328436233E-1,-1.964563887E0,-1.828160625E0,2.686881085E0
6.470173625E0,1.184056419E-1,-1.885307218E0,-2.139131341E0,2.853819563E0
6.480254625E0,1.156804739E-1,-1.803456431E0,-2.524504368E0,3.104667353E0
6.490335625E0,-1.771560162E-3,-1.678294441E0,-2.944591729E0,3.389291345E0
6.500416625E0,-8.188912231E-2,-1.538231115E0,-3.336869148E0,3.675262780E0
6.510497625E0,-1.039901722E-1,-1.397683931E0,-3.561500462E0,3.827351548E0
6.520578625E0,-1.136714437E-1,-1.271906522E0,-3.563310176E0,3.785214235E0
6.530659625E0,-2.224121498E-1,-1.189180992E0,-3.371800999E0,3.582270310E0
6.540740625E0,-3.783966406E-1,-1.224654587E0,-3.003903546E0,3.265945405E0
6.550821625E0,-4.955783872E-1,-1.222561869E0,-2.708311007E0,3.012507921E0
6.560902625E0,-5.213654488E-1,-9.692523006E-1,-2.604425865E0,2.827420386E0
6.570983625E0,-4.523490082E-1,-6.861356735E-1,-2.630133734E0,2.755540826E0
6.581064625E0,-3.778567965E-1,-3.929369849E-1,-2.598407911E0,2.654976253E0
6.591145625E0,-1.555190525E-1,-1.692915112E-2,-2.267194719E0,2.272585459E0
6.601226625E0,1.646609549E-1,3.562284574E-1,-1.377295859E0,1.432115857E0
6.611307625E0,3.177137615E-1,5.652000511E-1,-2.229262662E-1,6.856305508E-1
6.621388625E0,1.482970834E-1,4.816062096E-1,8.195773208E-1,9.621037111E-1
6.631469625E0,-1.523324296E-1,2.377498350E-1,1.771768323E0,1.794127405E0
6.641550625E0,-5.033845297E-1,5.660981834E-3,2.985027564E0,3.027179808E0
6.651631625E0,-8.084157170E-1,-1.881096053E-1,4.716768773E0,4.789240947E0
6.661712625E0,-9.210186917E-1,7.262592673E-2,6.285956801E0,6.353487457E0
6.671793625E0,-1.027042599E0,8.157280988E-1,7.121544383E0,7.241313640E0
6.681874625E0,-9.514345188E-1,1.744681974E0,7.088505861E0,7.361797210E0
6.691955625E0,-8.477280097E-1,2.741162711E0,6.739304879E0,7.324673784E0
6.702036625E0,-8.993057142E-1,3.427089931E0,6.532417526E0,7.431431551E0
6.712117625E0,-1.304620231E0,3.626409526E0,6.876560081E0,7.882890240E0
6.722198625E0,-1.745587707E0,3.397377305E0,8.039072506E0,8.900333463E0
6.732279625E0,-1.666613605E0,2.981113438E0,1.038906029E1,1.093605102E1
6.742360625E0,-1.378396890E0,2.655196654E0,1.295896536E1,1.329980566E1
6.752441625E0,-7.172699042E-1,2.516657989E0,1.518570320E1,1.540953034E1
6.762522625E0,3.757192371E-1,2.776904401E0,1.646228603E1,1.669907855E1
6.772603625E0,1.656570427E0,3.152899956E0,1.680786115E1,1.718107099E1
6.782684625E0,2.723743271E0,3.390171489E0,1.662243893E1,1.718189501E1
6.792765625E0,3.162099673E0,3.152156483E0,1.605713714E1,1.666633187E1
6.802846958E0,3.084334921E0,2.526512302E0,1.508797518E1,1.560587650E1
6.812927958E0,2.540874817E0,1.967244251E0,1.338863748E1,1.376886736E1
6.823008958E0,1.723603931E0,1.544011087E0,1.089442228E1,1.113746908E1
6.833089958E0,7.886964208E-1,9.652051502E-1,7.920938285E0,8.018411709E0
6.843170958E0,-3.146211326E-2,3.859755823E-1,4.781759405E0,4.797414931E0
6.853251958E0,-4.528265065E-1,-6.892697811E-3,1.982763346E0,2.033826404E0
6.863332958E0,-5.660125217E-1,-3.532498857E-1,-2.190945858E-1,7.022521584E-1
6.873413958E0,-5.015158327E-1,-7.545220765E-1,-1.804202244E0,2.018902531E0
6.883494958E0,-3.992999250E-1,-1.140978008E0,-2.792615578E0,3.043020376E0
6.893575958E0,-4.330640870E-1,-1.531498046E0,-3.260733722E0,3.628417724E0
6.903656958E0,-6.123116523E-1,-1.836326554E0,-3.327500154E0,3.849581542E0
6.913737958E0,-7.900634998E-1,-2.024003465E0,-3.215821844E0,3.881017971E0
6.923818958E0,-1.196402303E0,-2.122256569E0,-3.231821580E0,4.047224004E0
6.933899958E0,-1.743568079E0,-2.060537454E0,-3.660269875E0,4.547902792E0
6.943980958E0,-2.269217856E0,-1.802011877E0,-4.394665543E0,5.263998643E0
6.954061958E0,-2.625136703E0,-1.507259291E0,-5.547083920E0,6.319281074E0
6.964141958E0,-2.745115429E0,-1.276173527E0,-7.097399476E0,7.716045419E0
6.974222958E0,-2.747772988E0,-1.258987099E0,-8.788744025E0,9.293940308E0
6.984303958E0,-2.540346814E0,-1.662730907E0,-1.033298666E1,1.076980266E1
6.994384958E0,-2.158669520E0,-2.304268990E0,-1.142641365E1,1.185463785E1
7.004465958E0,-1.812943246E0,-3.048010848E0,-1.220560659E1,1.271038810E1
7.014546958E0,-1.628403366E0,-3.962310723E0,-1.243095828E1,1.314839639E1
7.024627958E0,-1.586048475E0,-4.964146925E0,-1.169064699E1,1.279959107E1
7.034708958E0,-1.699790560E0,-5.751851658E0,-1.035111771E1,1.196322378E1
7.044789958E0,-2.023537442E0,-6.115860713E0,-9.216776583E0,1.124488446E1
7.054870958E0,-1.770180804E0,-6.139992757E0,-8.344787745E0,1.051040121E1
7.064951958E0,-8.458640635E-1,-5.984329936E0,-7.719377745E0,9.803901446E0
7.075032958E0,3.897683787E-1,-5.658867481E0,-7.432139123E0,9.349405997E0
7.085113958E0,1.188251869E0,-5.135944553E0,-7.764200746E0,9.384704693E0
7.095194958E0,1.242216407E0,-4.270317193E0,-8.399376765E0,9.504117033E0
7.105275958E0,3.205256510E-1,-2.967449080E0,-8.094901721E0,8.627625665E0
7.115356958E0,-1.367806413E0,-1.440131354E0,-6.859044161E0,7.140823448E0
7.125437958E0,-3.280802536E0,1.214004761E-1,-5.617893117E0,6.506852267E0
7.135518958E0,-5.253022183E0,1.644319049E0,-4.662672672E0,7.213774576E0
7.145599958E0,-7.101823479E0,3.228779858E0,-3.845517268E0,8.697638712E0
7.155680958E0,-8.764970416E0,4.736514527E0,-2.729674979E0,1.033007269E1
7.165761958E0,-9.990609967E0,6.287106948E0,-1.546967440E0,1.190517155E1
7.175842958E0,-1.091770004E1,7.480226040E0,-1.031872180E0,1.327458911E1
7.185923958E0,-1.064666405E1,7.564416590E0,-1.821130518E0,1.318667396E1
7.196004958E0,-9.911009481E0,5.804484785E0,-4.076725531E0,1.218769230E1
7.206085958E0,-9.517793584E0,2.577691226E0,-6.176936050E0,1.163561024E1
7.216166958E0,-9.021546239E0,-5.482861027E-1,-6.910915981E0,1.137759526E1
7.226247958E0,-8.927607796E0,-3.090715110E0,-5.730573056E0,1.104962300E1
7.236328958E0,-9.018278815E0,-4.749499147E0,-1.632864207E0,1.032246775E1
7.246409958E0,-7.012275710E0,-5.411898633E0,3.723104639E0,9.608442413E0
7.256490958E0,-2.742716609E0,-5.290542011E0,8.152793834E0,1.009853338E1
7.266571958E0,1.658650428E0,-4.007432517E0,1.058341004E1,1.143762234E1
7.276652958E0,2.804999688E0,-1.755809225E0,9.253914004E0,9.827808183E0
7.286733958E0,-2.342505687E-1,1.226462546E0,5.160088291E0,5.309010725E0
7.296814958E0,-3.255655416E0,4.860159457E0,1.655215774E0,6.079488580E0
7.306895958E0,-2.875303978E0,8.082058312E0,-1.329020662E0,8.680629899E0
7.316976958E0,8.273286822E-1,9.299814062E0,5.358978993E-1,9.351908944E0
7.327057958E0,4.161918878E0,7.931660324E0,8.791112732E0,1.255055645E1
7.337138958E0,4.334243340E0,3.680689814E0,1.914340749E1,1.997005741E1
7.347219958E0,3.664493611E0,-9.687959254E-3,2.856188026E1,2.879599992E1
7.357300958E0,3.259222217E0,-5.758875918E-1,3.265920203E1,3.282647793E1
7.367381958E0,3.757026676E0,1.303956572E0,2.807242154E1,2.835271421E1
7.377462958E0,5.053118743E0,3.099001784E0,1.907747428E1,1.997718314E1
7.387543958E0,5.692376704E0,4.260924226E0,1.189888505E1,1.386153286E1
7.397624958E0,5.949469421E0,4.897864643E0,7.119086214E0,1.049126556E1
7.407705958E0,5.604160346E0,4.506022257E0,3.997993941E0,8.227685295E0
7.417786958E0,4.414213954E0,3.315047924E0,1.663635764E0,5.765631928E0
7.427867958E0,2.804545067E0,2.091350234E0,-1.709503663E-1,3.502633703E0
7.437948958E0,1.498412161E0,1.161324856E0,-1.532366942E0,2.437634688E0
7.448029958E0,8.457409796E-1,5.261733949E-1,-2.368372015E0,2.569303845E0
7.458110958E0,9.566765477E-1,1.527745888E-1,-2.440117936E0,2.625403899E0
7.468191958E0,1.667246566E0,-2.322543293E-2,-1.916096901E0,2.540015328E0
7.478272958E0,2.188665005E0,-3.584062529E-1,-1.546811904E0,2.703948338E0
7.488353958E0,2.205455870E0,-8.959910738E-1,-1.643272836E0,2.892608029E0
7.498434958E0,2.119796645E0,-1.512838704E0,-1.824839407E0,3.179977613E0
7.508515958E0,2.110843973E0,-2.055050134E0,-1.902336064E0,3.506818477E0
7.518596958E0,2.139805086E0,-2.537470568E0,-2.159163317E0,3.959735966E0
7.528677958E0,2.242609224E0,-2.889153400E0,-2.716921032E0,4.556112751E0
7.538758958E0,2.185500931E0,-3.111877938E0,-3.554380308E0,5.205172234E0
7.548839958E0,2.037505856E0,-3.206216623E0,-4.305255184E0,5.741644132E0
7.558920958E0,2.082285149E0,-3.149359175E0,-4.884121347E0,6.173250034E0
7.569001958E0,2.193102311E0,-3.182519612E0,-5.188887582E0,6.470137801E0
7.579082958E0,2.064374981E0,-3.335077854E0,-5.256436372E0,6.558544936E0
7.589163958E0,1.798959338E0,-3.526430325E0,-4.939618440E0,6.330228737E0
7.599244958E0,1.439964270E0,-3.719774065E0,-4.522207350E0,6.029973093E0
7.609325958E0,1.354705727E0,-3.608013893E0,-4.157806531E0,5.669245718E0
7.619406958E0,1.476789450E0,-3.191122035E0,-3.764398261E0,5.151199976E0
7.629487958E0,1.595219979E0,-2.613737264E0,-3.130922611E0,4.379386448E0
7.639568958E0,1.818708601E0,-1.988087820E0,-2.332344396E0,3.563709379E0
7.649649958E0,1.995027881E0,-1.466546005E0,-1.456596968E0,2.872728347E0
7.659730958E0,1.986547810E0,-1.106645496E0,-6.070444804E-1,2.353622624E0
7.669811958E0,1.894225245E0,-1.051119752E0,-5.255009651E-2,2.166957204E0
7.679892958E0,1.719851480E0,-9.774530205E-1,-1.601786256E-2,1.978271997E0
7.689973958E0,1.408107324E0,-7.616489553E-1,-5.336052060E-1,1.687486261E0
7.700054958E0,1.067140392E0,-3.995782524E-1,-8.041903728E-1,1.394694788E0
7.710135958E0,9.278999144E-1,1.029659593E-1,-6.524831933E-1,1.139005951E0
7.720216958E0,9.045957633E-1,4.935932940E-1,-7.796373296E-1,1.292192788E0
7.730297958E0,9.323793201E-1,5.869201183E-1,-9.890571123E-1,1.480554083E0
7.740378958E0,1.091039278E0,4.742515817E-1,-5.887245691E-1,1.327357482E0
7.750459958E0,1.260247758E0,2.358918822E-1,4.970671248E-1,1.375116402E0
7.760540958E0,1.214949306E0,-1.934951833E-1,1.475471195E0,1.921082364E0
7.770621958E0,9.415229036E-1,-5.599779028E-1,2.234332198E0,2.488429424E0
7.780702958E0,6.002313048E-1,-7.353575349E-1,2.556013259E0,2.726578827E0
7.790783958E0,3.740625382E-1,-7.743590480E-1,2.372949216E0,2.523973593E0
7.800864875E0,2.986037086E-1,-6.546987033E-1,1.660535570E0,1.809743890E0
7.810945875E0,2.993950561E-1,-2.215492469E-1,7.023552650E-1,7.949996143E-1
7.821026875E0,3.587977970E-1,2.730643862E-1,-3.180452621E-1,5.517724231E-1
7.831107875E0,3.483197328E-1,5.348465699E-1,-1.014801233E0,1.198836533E0
7.841188875E0,2.196442971E-1,6.505884030E-1,-1.343489013E0,1.508798070E0
7.851269875E0,-1.982352287E-2,8.676200911E-1,-1.651866488E0,1.865963689E0
7.861350875E0,-2.325375538E-1,1.032484091E0,-1.867987765E0,2.146968887E0
7.871431875E0,-2.726881727E-1,1.014453324E0,-1.652983307E0,1.958527048E0
7.881512875E0,-3.117290998E-1,9.639731419E-1,-1.348294255E0,1.686510198E0
7.891593875E0,-4.881048781E-1,9.827070361E-1,-1.133213782E0,1.577381681E0
7.901674875E0,-4.674258345E-1,1.053501907E0,-7.709027588E-1,1.386594477E0
7.911755875E0,-2.443207897E-1,1.183855055E0,-2.342909145E-1,1.231299181E0
7.921836875E0,-2.563360870E-2,1.257063072E0,3.536776096E-1,1.306121166E0
7.931917875E0,6.967454463E-2,1.167495131E0,9.902493596E-1,1.532479434E0
7.941998875E0,7.023295373E-2,9.347701004E-1,1.490528360E0,1.760796013E0
7.952079875E0,3.147108508E-2,7.916875640E-1,1.816517649E0,1.981791109E0
7.962160875E0,-1.559244107E-2,6.513692987E-1,2.184122742E0,2.279236109E0
7.972241875E0,1.570909303E-2,4.035792097E-1,2.482321969E0,2.514964277E0
7.982322875E0,4.105724797E-2,2.761169252E-1,2.640386242E0,2.655101836E0
7.992403875E0,1.456698928E-1,3.879276752E-1,2.572936270E0,2.606090683E0
8.002484875E0,1.944440768E-1,5.321898875E-1,2.377647454E0,2.444226256E0
8.012565875E0,1.783569978E-1,5.988537008E-1,1.986395051E0,2.082354983E0
8.022646875E0,1.387779625E-1,6.534795588E-1,1.385015354E0,1.537713363E0
8.032727875E0,1.155164595E-1,7.500553885E-1,7.332092679E-1,1.055235978E0
8.042808875E0,8.722901892E-2,9.501962247E-1,1.533017153E-1,9.664280538E-1
8.052889875E0,1.280422918E-1,1.120886098E0,-3.958266789E-1,1.195599946E0
8.062970875E0,7.406488996E-2,1.136014599E0,-6.877114981E-1,1.330023263E0
8.073051875E0,-1.131217324E-1,1.122128631E0,-7.797443336E-1,1.371120132E0
8.083132875E0,-2.416175854E-1,1.041298184E0,-7.031627655E-1,1.279499449E0
8.093213875E0,-2.839168916E-1,8.533017218E-1,-4.481265146E-1,1.004763655E0
8.103294875E0,-3.204285507E-1,6.762085631E-1,-1.056966090E-1,7.557143972E-1
8.113375875E0,-4.678314851E-1,5.103759724E-1,1.734272468E-1,7.137415090E-1
8.123456875E0,-5.994474490E-1,3.729067630E-1,3.235112393E-1,7.765669449E-1
8.133537875E0,-5.770925933E-1,3.755809870E-1,3.610883707E-1,7.774842446E-1
8.143618875E0,-4.248136657E-1,5.795409322E-1,3.022209424E-1,7.795330915E-1
8.153699875E0,-1.635641634E-1,7.876854372E-1,2.251376832E-1,8.353972468E-1
8.163780875E0,2.583869979E-2,8.580891296E-1,2.879484737E-1,9.054826980E-1
8.173861875E0,1.139818943E-1,7.919363630E-1,3.027618098E-1,8.554646625E-1
8.183942875E0,5.921287084E-2,6.139403942E-1,3.923253661E-1,7.309912206E-1
8.194023875E0,-1.455066459E-1,3.164647597E-1,6.042144281E-1,6.974218259E-1
8.204104875E0,-4.085915892E-1,-3.904185891E-2,8.100937217E-1,9.081427154E-1
8.214185875E0,-6.979000521E-1,-3.866731551E-1,1.036904878E0,1.308339535E0
8.224266875E0,-8.901686358E-1,-6.523761892E-1,1.097365088E0,1.556343480E0
8.234347875E0,-1.044210243E0,-8.449340639E-1,1.046691363E0,1.702895009E0
8.244428875E0,-1.151306018E0,-8.824620786E-1,8.286241329E-1,1.670587567E0
8.254509875E0,-1.162604081E0,-8.356957555E-1,2.578411603E-1,1.454825663E0
8.264590875E0,-1.119273143E0,-7.172598177E-1,-4.544157797E-1,1.404894201E0
8.274671875E0,-9.526907200E-1,-5.876913661E-1,-8.242556781E-1,1.390107252E0
8.284752875E0,-7.954739285E-1,-4.982231194E-1,-7.982367378E-1,1.232147287E0
8.294833875E0,-6.567621857E-1,-5.116682070E-1,-7.124341106E-1,1.095766072E0
8.304914875E0,-6.115504179E-1,-5.301904321E-1,-7.741432858E-1,1.119997158E0
8.314995875E0,-4.671818595E-1,-4.519125867E-1,-8.660428047E-1,1.082826863E0
8.325076875E0,-2.939770261E-1,-4.550180429E-1,-8.308905137E-1,9.918885809E-1
8.335157875E0,-2.586913455E-1,-4.890418214E-1,-8.076671273E-1,9.789838118E-1
8.345238875E0,-2.991783437E-1,-5.243221664E-1,-7.131410390E-1,9.343401720E-1
8.355319875E0,-3.031846366E-1,-5.274805400E-1,-4.840553159E-1,7.774742393E-1
8.365400875E0,-2.497635973E-1,-4.560775584E-1,-4.926787895E-1,7.163246355E-1
8.375481875E0,-2.410454719E-1,-3.869661006E-1,-6.996906888E-1,8.351124132E-1
8.385562875E0,-1.276818475E-1,-3.476871371E-1,-7.330209875E-1,8.212848274E-1
8.395643875E0,1.416970387E-2,-2.110616809E-1,-4.482738644E-1,4.956785966E-1
8.405724875E0,7.114701971E-2,-9.748974949E-2,-5.573215127E-2,1.329369112E-1
8.415805875E0,1.041903663E-1,-1.399428740E-1,1.095522630E-1,2.060129577E-1
8.425886875E0,-9.224304289E-2,-2.793355250E-1,1.083372116E-1,3.134869470E-1
8.435967875E0,-3.753735571E-1,-5.163032949E-1,8.797311366E-2,6.443707538E-1
8.446048875E0,-4.959481139E-1,-6.410132951E-1,-1.725337923E-2,8.106542144E-1
8.456129875E0,-3.796157851E-1,-5.309824374E-1,-2.380518436E-1,6.947799460E-1
8.466210875E0,-2.155052724E-1,-3.284281629E-1,-5.348746365E-1,6.636252387E-1
8.476291875E0,-1.227576879E-1,-1.271360099E-1,-8.248047316E-1,8.435258504E-1
8.486372875E0,-1.923076138E-2,-2.235010475E-2,-8.922435933E-1,8.927306308E-1
8.496453875E0,1.501008032E-1,8.041500270E-2,-7.937612790E-1,8.118212807E-1
8.506534875E0,1.969612665E-1,3.103994429E-2,-6.547250158E-1,6.844136651E-1
8.516615875E0,8.710867591E-2,-1.413204780E-1,-4.868918002E-1,5.144152253E-1
8.526696875E0,-3.963184754E-2,-2.626294452E-1,-3.683658153E-1,4.541346526E-1
8.536776875E0,-1.216618466E-1,-3.577610126E-1,-1.915618014E-1,4.236631573E-1
8.546858875E0,-1.640280669E-1,-3.811013433E-1,1.049575210E-1,4.279714031E-1
8.556938875E0,-1.048505169E-1,-3.325437257E-1,2.803751600E-1,4.474250671E-1
8.567019875E0,-5.082370609E-2,-2.252423483E-1,3.732266057E-1,4.388795549E-1
8.577100875E0,5.391030505E-2,-6.785459876E-2,5.359850228E-1,5.429461412E-1
8.587181875E0,2.025324205E-1,1.013676229E-1,6.506278718E-1,6.889204626E-1
8.597262875E0,2.329826731E-1,1.552698880E-1,4.061054993E-1,4.932659938E-1
8.607343875E0,2.030072875E-1,2.004200408E-1,-1.050879139E-1,3.040125346E-1
8.617424875E0,1.053022143E-1,2.980764359E-1,-6.012691855E-1,6.793104971E-1
8.627505875E0,1.315611096E-1,3.853098768E-1,-7.943582797E-1,8.926237187E-1
8.637586875E0,2.096296978E-1,4.102698863E-1,-6.141862696E-1,7.677830186E-1
8.647667875E0,2.019751809E-1,3.785180435E-1,-3.849163592E-1,5.763943845E-1
8.657748875E0,1.079042344E-1,2.269582137E-1,-1.658030623E-1,3.010714368E-1
8.667829875E0,-2.738024510E-2,3.300343931E-2,8.217384517E-2,9.269005156E-2
8.677910875E0,-9.313759379E-2,-1.369338968E-1,2.226268888E-1,2.774675388E-1
8.687991875E0,-1.534682147E-1,-2.856315145E-1,2.065072846E-1,3.844256932E-1
8.698072875E0,-1.226813818E-1,-3.157379508E-1,-2.103535831E-2,3.393871850E-1
8.708153875E0,-5.496426567E-2,-1.824454075E-1,-2.040081847E-1,2.791536076E-1
8.718234875E0,9.029847823E-2,6.153405100E-2,-2.578622103E-1,2.800592332E-1
8.728315875E0,2.783439834E-1,2.429538569E-1,-1.341591007E-1,3.930656612E-1
8.738396875E0,4.296250471E-1,4.470751852E-1,-1.785154939E-3,6.200460379E-1
8.748477875E0,4.879941465E-1,5.464149937E-1,-8.612948656E-3,7.326539533E-1
8.758558875E0,4.360688981E-1,5.346331465E-1,-1.946310049E-1,7.168472036E-1
8.768639875E0,2.846615345E-1,4.194763273E-1,-4.448497349E-1,6.744507877E-1
8.778720875E0,8.766935080E-2,2.044791779E-1,-5.960517150E-1,6.362195346E-1
8.788801875E0,-6.773786915E-2,1.222418904E-2,-5.942355698E-1,5.982087948E-1
8.798881833E0,-2.182786068E-1,-1.472232422E-1,-4.562348485E-1,5.267546585E-1
8.808962833E0,-3.000467283E-1,-2.174836779E-1,-2.258416879E-1,4.339719545E-1
8.819043833E0,-2.248719272E-1,-1.457523751E-1,-1.732237637E-2,2.685352923E-1
8.829124833E0,-8.755094469E-2,-1.605353057E-2,9.297774553E-2,1.287157524E-1
8.839205833E0,-2.683835439E-2,1.164326817E-1,1.786798006E-1,2.149496168E-1
8.849286833E0,-9.231949523E-3,2.151754895E-1,1.423674220E-1,2.581747529E-1
8.859367833E0,1.398690529E-2,2.861785215E-1,-1.393449962E-2,2.868587631E-1
8.869448833E0,1.777568291E-2,2.619175467E-1,-1.757661331E-1,3.159280135E-1
8.879529833E0,-3.738950886E-2,1.998747879E-1,-2.826035339E-1,3.481560908E-1
8.889610833E0,-1.048209154E-1,1.670116818E-1,-4.003079849E-1,4.462362703E-1
8.899691833E0,-2.126573130E-1,8.857683867E-2,-5.073494536E-1,5.572005538E-1
8.909772833E0,-3.031924573E-1,3.456756949E-2,-5.475952542E-1,6.268820825E-1
8.919853833E0,-2.962889421E-1,-1.354449034E-2,-5.334987867E-1,6.104027734E-1
8.929934833E0,-2.464975619E-1,-4.727181494E-3,-5.756338227E-1,6.262089844E-1
8.940015833E0,-2.118994407E-1,1.253526092E-2,-7.085831344E-1,7.396949129E-1
8.950096833E0,-1.911546890E-1,-2.913112074E-2,-6.707639283E-1,6.980780650E-1
8.960177833E0,-1.932713080E-1,-1.805769297E-1,-3.996033955E-1,4.792125830E-1
8.970258833E0,-2.276671156E-1,-3.028720298E-1,-1.094674784E-1,3.943943595E-1
8.980339833E0,-2.132676892E-1,-3.146451062E-1,1.066573066E-1,3.947916300E-1
8.990420833E0,-1.722832391E-1,-2.650399598E-1,3.245467812E-1,4.530544205E-1
9.000501833E0,-6.237488061E-2,-1.243647221E-1,4.428096414E-1,4.641525485E-1
9.010582833E0,4.173704160E-2,-5.455159843E-3,3.949519354E-1,3.971885833E-1
9.020663833E0,9.567740500E-2,1.218735158E-1,1.270494711E-1,2.003718738E-1
9.030744833E0,8.935084557E-2,1.785213411E-1,-2.187303042E-1,2.961357608E-1
9.040825833E0,1.300958705E-1,2.458301023E-1,-4.584193683E-1,5.361955724E-1
9.050906833E0,1.124728011E-1,2.941380438E-1,-5.823932040E-1,6.620794241E-1
9.060987833E0,2.039706163E-2,3.339195755E-1,-5.730920380E-1,6.635908431E-1
9.071068833E0,-5.317253262E-2,3.170524049E-1,-4.722386777E-1,5.712783161E-1
9.081149833E0,-1.646579582E-1,2.283270469E-1,-3.301887596E-1,4.339010262E-1
9.091230833E0,-2.846072285E-1,1.305645248E-1,-1.340415716E-1,3.406104998E-1
9.101311833E0,-4.106950519E-1,-8.455950916E-3,1.299602151E-2,4.109876219E-1
9.111392833E0,-4.351178484E-1,-5.018051237E-2,6.712778986E-2,4.431159736E-1
9.121473833E0,-3.687170137E-1,3.770460069E-2,6.124315202E-2,3.756655384E-1
9.131554833E0,-3.091420723E-1,1.785429758E-1,-4.180817664E-2,3.594361399E-1
9.141635833E0,-2.349978429E-1,2.759470636E-1,-1.974745059E-1,4.127553132E-1
9.151716833E0,-1.992938671E-1,3.816632608E-1,-4.849698204E-1,6.485218707E-1
9.161797833E0,-1.904458786E-1,4.810682657E-1,-7.463982475E-1,9.081886659E-1
9.171878833E0,-1.980636860E-1,4.630527020E-1,-8.023642874E-1,9.473307121E-1
9.181958833E0,-1.644756713E-1,3.399018618E-1,-6.012808800E-1,7.100170553E-1
9.192040833E0,-1.488137580E-1,3.171424520E-1,-2.058056188E-1,4.063013932E-1
9.202120833E0,-2.409916044E-1,2.242404279E-1,2.427471578E-1,4.090072194E-1
9.212201833E0,-3.302744213E-1,-4.694144726E-3,5.992191517E-1,6.842271700E-1
9.222282833E0,-3.170156040E-1,-1.669938478E-1,8.050791496E-1,8.812140917E-1
9.232363833E0,-1.710232372E-1,-1.266521528E-1,8.455067986E-1,8.718781234E-1
9.242444833E0,6.199342288E-2,6.219098568E-2,7.204693544E-1,7.258009326E-1
9.252525833E0,2.726248949E-1,2.243295979E-1,4.725608593E-1,5.898829270E-1
9.262606833E0,4.397902854E-1,3.045440412E-1,2.666213393E-1,5.977035274E-1
9.272687833E0,4.695395664E-1,3.333263755E-1,4.253790915E-2,5.773935839E-1
9.282768833E0,3.898957019E-1,2.534841076E-1,-2.960562229E-1,5.512913370E-1
9.292849833E0,2.828001830E-1,1.291369271E-1,-6.313156879E-1,7.037128585E-1
9.302930833E0,1.608569391E-1,1.885054618E-2,-8.561580867E-1,8.713420495E-1
9.313011833E0,1.428275979E-1,8.895895422E-2,-9.474056411E-1,9.622322313E-1
9.323092833E0,8.551410366E-2,1.560788503E-1,-9.354819989E-1,9.522603844E-1
9.333173833E0,2.439498570E-2,1.481921259E-1,-8.449688548E-1,8.582123205E-1
9.343254833E0,-2.564840946E-2,1.234025627E-1,-6.949725705E-1,7.063093566E-1
9.353335833E0,-1.279059055E-1,9.125106275E-2,-5.628564870E-1,5.843749671E-1
9.363416833E0,-1.429683330E-1,1.146294004E-1,-5.658362281E-1,5.947692668E-1
9.373497833E0,-5.289745767E-2,1.511215809E-1,-6.206491971E-1,6.409690313E-1
9.383578833E0,-1.575934254E-2,2.094262147E-1,-8.081635559E-1,8.350066043E-1
9.393659833E0,-1.297387518E-3,2.483403119E-1,-9.341114116E-1,9.665602532E-1
9.403740833E0,1.100788779E-1,1.880888477E-1,-9.411163759E-1,9.660200862E-1
9.413821833E0,2.225285824E-1,9.332594723E-2,-8.586390603E-1,8.919023143E-1
9.423902833E0,3.429572513E-1,3.192170441E-2,-5.585476738E-1,6.562119896E-1
9.433983833E0,4.074279202E-1,-4.081561178E-2,-3.417539674E-1,5.333471651E-1
9.444064833E0,3.494592089E-1,-2.104562017E-1,-3.568912393E-1,5.420192877E-1
9.454145833E0,2.401679144E-1,-4.332093903E-1,-4.793003601E-1,6.892603559E-1
9.464226833E0,9.868400674E-2,-4.403941566E-1,-7.233584636E-1,8.526036672E-1
9.474307833E0,2.183624413E-2,-3.735467407E-1,-1.015495298E0,1.082240587E0
9.484388833E0,-4.362395637E-2,-2.537995648E-1,-1.335066099E0,1.359675975E0
9.494469833E0,-3.123144060E-4,-8.388123214E-2,-1.487834548E0,1.490197235E0
9.504550833E0,1.100834095E-1,4.971536636E-2,-1.439124902E0,1.444185050E0
9.514631833E0,2.134431788E-1,2.240506858E-2,-1.317331493E0,1.334699307E0
9.524712833E0,2.676525323E-1,-1.389076245E-1,-1.210113439E0,1.247119778E0
9.534793833E0,2.916400402E-1,-4.702804452E-1,-1.068476919E0,1.203270766E0
9.544874833E0,2.892974994E-1,-7.974748456E-1,-6.219542956E-1,1.051896534E0
9.554955833E0,2.282627641E-1,-1.060872907E0,8.969628811E-4,1.085152533E0
9.565036833E0,2.421366720E-1,-1.202800619E0,4.078280890E-1,1.292935902E0
9.575117833E0,3.909593835E-1,-1.231101435E0,6.384194702E-1,1.440846766E0
9.585198833E0,5.631677782E-1,-1.195353605E0,6.914314967E-1,1.491343589E0
9.595279833E0,5.639972788E-1,-1.154142429E0,7.339308143E-1,1.479456697E0
9.605360833E0,4.442610299E-1,-1.026231663E0,7.807295895E-1,1.363839426E0
9.615441833E0,4.095524329E-1,-7.897027266E-1,4.518967992E-1,9.977847006E-1
9.625522833E0,5.270578959E-1,-5.227007335E-1,-1.803333932E-1,7.638888762E-1
9.635603833E0,7.176471227E-1,-3.015648848E-1,-6.615393609E-1,1.021564045E0
9.645684833E0,7.069649906E-1,-1.859318098E-1,-9.506023139E-1,1.199172588E0
9.655765833E0,5.661079044E-1,-1.138999602E-1,-9.064529121E-1,1.074759621E0
9.665846833E0,3.233638164E-1,-2.332223359E-1,-5.503785288E-1,6.796126402E-1
9.675927833E0,-4.826701105E-2,-4.212743461E-1,-3.611532748E-2,4.255656188E-1
9.686008833E0,-3.371726009E-1,-5.574250084E-1,5.991285199E-1,8.850779548E-1
9.696089833E0,-3.515376748E-1,-4.980082342E-1,1.690946354E0,1.797467805E0
9.706170833E0,7.857241714E-4,-1.843597859E-1,2.564828521E0,2.571445992E0
9.716251833E0,1.878999095E-1,2.134724879E-1,3.104697849E0,3.117695561E0
9.726332833E0,2.802566808E-1,7.581110975E-1,3.690425135E0,3.777898083E0
9.736413833E0,3.180497206E-1,1.311597129E0,4.336941830E0,4.542081801E0
9.746494833E0,1.225654607E-1,1.378945944E0,5.118163755E0,5.302085857E0
9.756575833E0,-3.110684375E-1,1.304414994E0,6.250084133E0,6.392324594E0
9.766656833E0,-9.225676192E-1,1.645889172E0,7.930829435E0,8.152186069E0
9.776737833E0,-1.440878775E0,2.371353218E0,9.399724851E0,9.800728290E0
9.786818833E0,-1.688625887E0,3.475210177E0,9.932369360E0,1.065741546E1
9.796899833E0,-1.545944177E0,4.705510251E0,1.031240446E1,1.144016853E1
9.806980333E0,-6.710516844E-1,5.626400231E0,1.191272073E1,1.319164907E1
9.817061333E0,4.686929993E-1,5.826445173E0,1.461582421E1,1.574132948E1
9.827142333E0,1.174257436E0,5.347668139E0,1.738876332E1,1.823034626E1
9.837223333E0,1.554008949E0,4.623622335E0,1.920354259E1,1.981335094E1
9.847304333E0,1.499717113E0,4.042780982E0,1.862925597E1,1.912177835E1
9.857385333E0,1.032977815E0,4.057281492E0,1.530122079E1,1.586366710E1
9.867466333E0,5.680398975E-1,4.791436547E0,1.104727551E1,1.205499190E1
9.877547333E0,4.343987140E-1,5.620531965E0,7.548582330E0,9.421261965E0
9.887628333E0,3.591568892E-1,6.251165868E0,4.942719219E0,7.977251510E0
9.897709333E0,2.808515619E-1,6.201308414E0,3.220152876E0,6.993174401E0
9.907790333E0,1.964251500E-1,5.228803600E0,2.539559779E0,5.816213012E0
9.917871333E0,2.834695065E-1,3.570996925E0,2.440360011E0,4.334481628E0
9.927952333E0,3.805247348E-1,1.507837873E0,2.430558908E0,2.885479289E0
9.938033333E0,2.159909020E-1,-6.605935737E-1,2.350314644E0,2.450921228E0
9.948114333E0,-3.511821641E-1,-2.555804513E0,1.168868934E0,2.832264148E0
9.958195333E0,-8.388782488E-1,-3.852175785E0,-1.486081553E0,4.213242620E0
9.968276333E0,-9.046094312E-1,-4.598219984E0,-4.590485287E0,6.560068628E0
9.978357333E0,-6.703159585E-1,-4.806694856E0,-7.201862907E0,8.684495855E0
9.988438333E0,-2.614546665E-1,-4.613474492E0,-8.938163189E0,1.006197131E1
9.998519333E0,2.082249773E-1,-4.212058167E0,-9.482082884E0,1.037760509E1
1.000860033E1,3.357949968E-1,-4.138475636E0,-9.303937519E0,1.018837535E1
1.001868133E1,3.261031638E-1,-4.206252467E0,-9.529620747E0,1.042173568E1
1.002876233E1,1.097504836E-1,-4.484846565E0,-1.013175591E1,1.108054022E1
1.003884333E1,-1.471162382E-1,-4.935041825E0,-1.083294582E1,1.190499879E1
1.004892433E1,-4.742150366E-1,-5.249181147E0,-1.147908771E1,1.263124053E1
1.005900533E1,-6.745445918E-1,-5.342444236E0,-1.208192395E1,1.322760776E1
1.006908633E1,-5.435600907E-1,-5.386870796E0,-1.252514757E1,1.364526131E1
1.007916733E1,-2.342793663E-1,-5.159018251E0,-1.272968201E1,1.373736365E1
1.008924833E1,4.614523190E-1,-4.662673257E0,-1.244644171E1,1.329914927E1
1.009932933E1,1.035545400E0,-4.282439933E0,-1.165935971E1,1.246404087E1
1.010941033E1,1.244497698E0,-4.054468689E0,-1.067387700E1,1.148560582E1
1.011949133E1,1.261246609E0,-3.941974692E0,-9.691607916E0,1.053836664E1
1.012957233E1,1.158524186E0,-4.053026181E0,-8.881149913E0,9.830769212E0
1.013965333E1,1.109385648E0,-4.257867009E0,-8.255882000E0,9.355199388E0
1.014973433E1,9.998428863E-1,-4.371445665E0,-7.703135349E0,8.913333675E0
1.015981533E1,8.038200979E-1,-4.446085373E0,-7.320830356E0,8.602811110E0
1.016989633E1,6.582255976E-1,-4.601680658E0,-7.377179389E0,8.719604438E0
1.017997733E1,7.130362277E-1,-4.554131393E0,-7.645694057E0,8.927775256E0
1.019005833E1,9.551564178E-1,-4.345965545E0,-7.823613135E0,9.000481253E0
1.020013933E1,1.154956654E0,-4.090751247E0,-7.832951138E0,8.911974762E0
1.021022033E1,1.227079428E0,-3.942476675E0,-7.671448703E0,8.712058968E0
1.022030133E1,9.322140632E-1,-4.130499449E0,-7.731823543E0,8.815392451E0
1.023038233E1,5.941759282E-1,-4.334505295E0,-7.698434188E0,8.854765391E0
1.024046333E1,3.899574631E-1,-4.337239746E0,-7.394460250E0,8.581477601E0
1.025054433E1,3.753093108E-1,-4.212403153E0,-6.658251361E0,7.887807591E0
1.026062533E1,7.530188305E-1,-4.279963637E0,-5.517851350E0,7.023660699E0
1.027070633E1,1.026083582E0,-4.459628109E0,-4.390659615E0,6.341846911E0
1.028078733E1,1.013113946E0,-4.548128641E0,-3.622157723E0,5.901855689E0
1.029086833E1,7.174828890E-1,-4.374912479E0,-3.137816479E0,5.431439326E0
1.030094933E1,2.658891948E-1,-3.813523643E0,-2.218817196E0,4.420046311E0
1.031103033E1,-4.858988699E-1,-2.306706110E0,-1.358219318E0,2.720615832E0
1.032111133E1,-1.090437965E0,-2.888963073E-1,-5.287379837E-1,1.245824982E0
1.033119233E1,-1.078654509E0,2.027443675E0,1.118709764E0,2.554512662E0
1.034127333E1,-7.920200513E-1,4.411462255E0,2.860379544E0,5.316960233E0
1.035135333E1,-3.678104760E-1,5.970263874E0,4.338573203E0,7.389354012E0
1.036143433E1,3.332392520E-1,5.887518171E0,5.940135511E0,8.370133123E0
1.037151533E1,1.364993172E0,4.773896654E0,8.246703626E0,9.626080008E0
1.038159633E1,2.482139536E0,3.976258087E0,1.107661216E1,1.202759253E1
1.039167733E1,3.024219404E0,3.650681026E0,1.381843005E1,1.460898299E1
1.040175833E1,2.767666678E0,3.936618057E0,1.523840298E1,1.598017103E1
1.041183933E1,2.109099164E0,5.023112002E0,1.327613004E1,1.435045582E1
1.042192033E1,1.166536407E0,6.761795610E0,9.033333056E0,1.134388792E1
1.043200133E1,1.643827005E0,8.064906090E0,4.511110504E0,9.385893428E0
1.044208233E1,3.186095476E0,7.869087515E0,2.808245770E0,8.942034836E0
1.045216333E1,3.210057659E0,6.355649180E0,5.092515528E0,8.753996863E0
1.046224433E1,1.194239199E0,5.049774136E0,8.370207930E0,9.848188000E0
1.047232533E1,-1.169704720E0,4.287252191E0,8.965335200E0,1.000629680E1
1.048240633E1,-2.349946562E0,3.717373783E0,7.690175580E0,8.858889160E0
1.049248733E1,-2.135484140E0,3.732735296E0,5.949474099E0,7.340970464E0
1.050256833E1,-1.309182521E0,3.908187433E0,4.667054576E0,6.226498719E0
1.051264933E1,-4.065281068E-1,3.519445826E0,4.356753951E0,5.615431329E0
1.052273033E1,3.149976933E-1,2.925318722E0,4.342063991E0,5.245019816E0
1.053281133E1,5.362174496E-1,2.297993174E0,3.508000193E0,4.227808786E0
1.054289233E1,6.281066629E-1,1.711186491E0,2.305759445E0,2.939252253E0
1.055297333E1,6.609751777E-1,1.164614207E0,1.271132058E0,1.846345349E0
1.056305433E1,5.603579718E-1,5.413492584E-1,3.502482176E-2,7.799274417E-1
1.057313533E1,3.616066533E-1,1.219144464E-3,-1.035200999E0,1.096540910E0
1.058321633E1,1.184545027E-1,-5.077841941E-1,-1.834401358E0,1.907067015E0
1.059329733E1,-7.988846093E-2,-1.007165647E0,-2.445137186E0,2.645649384E0
1.060337833E1,-3.172368114E-1,-1.317461302E0,-2.751244773E0,3.066869948E0
1.061345933E1,-7.064557712E-1,-1.477827331E0,-2.964828942E0,3.387220695E0
1.062354033E1,-1.135384123E0,-1.697184164E0,-3.141076886E0,3.746451013E0
1.063362133E1,-1.384293515E0,-1.978445469E0,-3.441048405E0,4.203728004E0
1.064370233E1,-1.609905115E0,-2.243721072E0,-3.797592319E0,4.695507017E0
1.065378333E1,-1.642187885E0,-2.225466065E0,-3.799205566E0,4.699302415E0
1.066386433E1,-1.479083897E0,-2.024751909E0,-3.316683975E0,4.157848248E0
1.067394533E1,-1.477425919E0,-1.927337004E0,-2.785345150E0,3.695343404E0
1.068402633E1,-1.358403506E0,-1.779882212E0,-2.658392742E0,3.475671553E0
1.069410733E1,-1.169292711E0,-1.667910956E0,-2.677359356E0,3.364138154E0
1.070418833E1,-9.509644027E-1,-1.586157233E0,-2.576109554E0,3.171209312E0
1.071426933E1,-7.013774644E-1,-1.558463358E0,-2.405759697E0,2.951002898E0
1.072435033E1,-4.384270070E-1,-1.579765349E0,-2.117510676E0,2.678008264E0
1.073443133E1,-2.874973610E-1,-1.525389460E0,-1.632835556E0,2.252913600E0
1.074451233E1,-2.896448971E-1,-1.505241124E0,-8.532023191E-1,1.754308754E0
1.075459333E1,-3.949007723E-1,-1.339529863E0,-2.395534086E-1,1.416923678E0
1.076467433E1,-4.785725279E-1,-1.157594040E0,2.571149361E-1,1.278735202E0
1.077475533E1,-4.878507435E-1,-9.267711094E-1,9.825327891E-1,1.436061878E0
1.078483633E1,-4.056440078E-1,-6.792052612E-1,1.722077515E0,1.895103643E0
1.079491733E1,-3.640424571E-1,-5.264792043E-1,2.081545622E0,2.177737230E0
1.080499833E1,-1.925124856E-1,-3.326419589E-1,1.921148896E0,1.959215355E0
1.081507933E1,7.376832649E-2,-1.082541811E-1,1.361472709E0,1.367760458E0
1.082516033E1,3.206728546E-1,1.863624573E-1,7.377888072E-1,8.257689563E-1
1.083524133E1,5.004376792E-1,4.905015787E-1,3.218313342E-1,7.711063981E-1
1.084532233E1,5.492645612E-1,6.162938985E-1,2.403913146E-1,8.598242330E-1
1.085540333E1,4.860291166E-1,5.724956220E-1,2.936682200E-1,8.063600702E-1
1.086548333E1,3.011612807E-1,5.264283335E-1,3.165203083E-1,6.841125732E-1
1.087556433E1,2.631641731E-2,4.472959176E-1,3.248239392E-1,5.534227888E-1
1.088564533E1,-1.716352945E-1,2.619596466E-1,5.481215036E-1,6.312833860E-1
1.089572633E1,-1.911071804E-1,4.057032108E-2,7.906528991E-1,8.144322638E-1
1.090580733E1,-7.286515094E-2,-1.730775833E-1,1.028038745E0,1.045049684E0
1.091588833E1,1.532382364E-1,-2.567182025E-1,1.193044832E0,1.229935837E0
1.092596933E1,3.813089926E-1,-2.493258601E-1,1.152932348E0,1.239682593E0
1.093605033E1,3.204316570E-1,-3.520304489E-1,1.010212339E0,1.116750130E0
1.094613133E1,2.218119331E-2,-4.755791920E-1,6.151890671E-1,7.778979120E-1
1.095621233E1,-1.368590525E-1,-5.174949574E-1,1.879470527E-2,5.356161612E-1
1.096629333E1,-2.143680073E-1,-4.235579762E-1,-5.297314256E-1,7.113159530E-1
1.097637433E1,-2.284209678E-1,-1.640661469E-1,-8.859718698E-1,9.295375158E-1
1.098645533E1,-7.964331642E-2,3.342736244E-2,-7.779463148E-1,7.827265903E-1
1.099653633E1,1.769549451E-1,1.918909997E-2,-1.340392327E-1,2.228178405E-1
1.100661733E1,2.695790072E-1,-1.425299746E-1,6.548489767E-1,7.223675083E-1
1.101669833E1,2.381961968E-1,-4.372498164E-1,1.356348794E0,1.444855315E0
1.102677933E1,1.150935962E-1,-7.596141243E-1,1.886317032E0,2.036774926E0
1.103686033E1,-2.498544484E-2,-9.559276655E-1,1.919638560E0,2.144629146E0
1.104694133E1,-1.180448321E-1,-1.028997981E0,1.585832713E0,1.894105810E0
1.105702233E1,-1.306878280E-1,-9.384143776E-1,9.526780754E-1,1.343613176E0
1.106710333E1,-5.304272443E-2,-7.192712599E-1,1.840329266E-1,7.443337921E-1
1.107718433E1,1.370181698E-1,-4.218567288E-1,-3.534179932E-1,5.671343372E-1
1.108726533E1,4.066753104E-1,6.252486169E-2,-7.490078598E-1,8.545799790E-1
1.109734633E1,6.421726517E-1,6.361756012E-1,-9.948353308E-1,1.344173518E0
1.110742733E1,6.928664766E-1,8.588176927E-1,-1.139612975E0,1.586300576E0
1.111750833E1,6.311578131E-1,8.566711798E-1,-1.054917811E0,1.498364870E0
1.112758933E1,4.209962379E-1,6.391000861E-1,-6.591016567E-1,1.010000864E0
1.113767033E1,2.044611246E-1,3.032032746E-1,-1.931966829E-1,4.135958601E-1
1.114775133E1,4.230080456E-2,-4.844271988E-2,1.684483427E-1,1.803077905E-1
1.115783233E1,-7.021775097E-4,-2.929571986E-1,4.361204267E-1,5.253812328E-1
1.116791333E1,6.944789194E-2,-2.649458197E-1,6.674199057E-1,7.214351166E-1
1.117799433E1,2.448245274E-1,-8.754831344E-2,6.653926760E-1,7.143886685E-1
1.118807533E1,4.326390675E-1,2.374244374E-1,2.714716047E-1,5.632439599E-1
1.119815633E1,5.951836959E-1,4.435653940E-1,-1.798679549E-1,7.637711514E-1
1.120823733E1,6.924234769E-1,5.881299073E-1,-4.790962923E-1,1.027073666E0
1.121831833E1,5.445766291E-1,6.307584482E-1,-6.800545692E-1,1.075590137E0
1.122839933E1,3.737056388E-1,5.671232003E-1,-8.040342522E-1,1.052499742E0
1.123848033E1,3.532532479E-1,5.139658704E-1,-6.569621605E-1,9.058410751E-1
1.124856133E1,3.521853270E-1,4.167436311E-1,-1.711556035E-1,5.718426350E-1
1.125864233E1,2.224899908E-1,1.759856960E-1,3.091036999E-1,4.195448230E-1
1.126872333E1,5.227409880E-2,-9.806628495E-2,6.526738125E-1,6.620669779E-1
1.127880433E1,-4.688699506E-2,-3.342233384E-1,7.916077495E-1,8.605500911E-1
1.128888533E1,8.787488043E-3,-3.606609392E-1,7.554748803E-1,8.371952149E-1
1.129896633E1,7.466945551E-2,-2.166612670E-1,6.059832108E-1,6.478682613E-1
1.130904733E1,1.326462067E-1,-1.567726225E-2,2.857487512E-1,3.154253343E-1
1.131912833E1,2.207608961E-1,2.196047553E-1,-2.226040846E-1,3.827717339E-1
1.132920933E1,2.932282902E-1,4.347203109E-1,-5.844555169E-1,7.852087812E-1
1.133929033E1,3.809895153E-1,6.110264343E-1,-8.456594110E-1,1.110696247E0
1.134937033E1,4.563306697E-1,6.889388287E-1,-8.480029750E-1,1.184053814E0
1.135945133E1,4.383744552E-1,6.484135312E-1,-4.909942067E-1,9.239521532E-1
1.136953233E1,2.582109236E-1,5.285453179E-1,-1.476059425E-1,6.064821089E-1
1.137961333E1,1.014062145E-1,3.310529780E-1,5.982871056E-2,3.513670008E-1
1.138969433E1,1.183286414E-2,1.327771112E-1,2.217767036E-1,2.587560322E-1
1.139977533E1,-1.045812526E-1,2.500737190E-2,4.055991304E-1,4.196108455E-1
1.140985633E1,-5.356685422E-2,5.854641616E-2,5.274282074E-1,5.333644201E-1
1.141993733E1,5.281577937E-2,8.632741481E-2,4.480323744E-1,4.593200819E-1
1.143001833E1,1.109990104E-1,1.232943892E-1,1.744861776E-1,2.407648498E-1
1.144009933E1,2.366947780E-1,1.739736691E-1,1.363161385E-2,2.940698495E-1
1.145018033E1,3.255369341E-1,2.133485270E-1,2.652998686E-2,3.901227109E-1
1.146026133E1,3.013191555E-1,2.171775761E-1,-6.124958396E-3,3.714792702E-1
1.147034233E1,3.098292663E-1,2.742917168E-1,-1.917711318E-1,4.560770627E-1
1.148042333E1,3.245901237E-1,2.873380244E-1,-2.787601590E-1,5.153921952E-1
1.149050433E1,2.783719039E-1,2.473845845E-1,-2.579107422E-1,4.529988968E-1
1.150058533E1,1.901475061E-1,1.550842389E-1,-1.335843194E-1,2.793778188E-1
1.151066633E1,6.886865214E-2,2.814089477E-2,-9.745846689E-2,1.226089474E-1
1.152074733E1,-5.478475615E-2,-7.791794926E-2,-1.474229246E-1,1.755166517E-1
1.153082833E1,-9.316536807E-2,-9.926876485E-2,-1.037348682E-1,1.711578113E-1
1.154090933E1,-1.077967827E-1,-9.166007549E-2,-1.011562461E-1,1.739376380E-1
1.155099033E1,-1.082156626E-1,-9.063447386E-2,-2.739169103E-1,3.081488459E-1
1.156107133E1,-6.670971850E-2,-5.583623171E-2,-4.831489974E-1,4.909183486E-1
1.157115233E1,1.982827373E-2,7.095508486E-2,-7.102835047E-1,7.140941406E-1
1.158123333E1,1.078467673E-1,2.037704954E-1,-8.639939404E-1,8.942252898E-1
1.159131433E1,1.910170602E-1,3.335181642E-1,-6.703090149E-1,7.726810847E-1
1.160139533E1,2.802105609E-1,3.503403112E-1,-4.628240758E-1,6.445637418E-1
1.161147633E1,2.405668773E-1,3.209223846E-1,-3.595423669E-1,5.386411727E-1
1.162155733E1,2.104127131E-1,3.360964939E-1,-1.390596521E-1,4.202046524E-1
1.163163833E1,1.712038431E-1,2.733067533E-1,5.833357751E-2,3.277348678E-1
1.164171933E1,7.912810363E-2,1.834844577E-1,1.431895405E-1,2.458272717E-1
1.165180033E1,-4.416533545E-2,1.308291113E-1,1.378966409E-1,1.951469108E-1
1.166188133E1,-9.571366687E-2,7.026131272E-2,6.903515160E-2,1.373448588E-1
1.167196233E1,-1.179294227E-1,3.480058104E-2,4.148891866E-2,1.297680991E-1
1.168204333E1,-1.786222786E-1,1.538840979E-2,-2.102892637E-2,1.805129838E-1
1.169212433E1,-1.299445007E-1,6.343410373E-2,-1.118122119E-1,1.827879359E-1
1.170220533E1,-3.218015134E-3,1.480456531E-1,-4.342960954E-2,1.543178603E-1
1.171228633E1,1.249133371E-1,2.970721766E-1,1.301707149E-2,3.225285477E-1
1.172236733E1,2.268686783E-1,4.203051701E-1,-1.407331252E-1,4.979273499E-1
1.173244833E1,2.588180108E-1,4.403915253E-1,-4.075269574E-1,6.534597763E-1
1.174252933E1,2.834360312E-1,3.996533892E-1,-4.266730803E-1,6.496989555E-1
1.175261033E1,2.342329540E-1,3.600516593E-1,-1.434871638E-1,4.528695621E-1
1.176269133E1,1.150957889E-1,2.763429201E-1,7.198799551E-2,3.078875145E-1
1.177277233E1,-4.497988913E-3,1.079053947E-1,1.839072114E-1,2.132736939E-1
1.178285333E1,-7.715539925E-2,-4.955515265E-4,2.308767253E-1,2.434281485E-1
1.179293333E1,-8.154695056E-2,-3.267307162E-2,1.745668691E-1,1.954252454E-1
1.180301500E1,-1.488182165E-2,2.828999877E-2,1.243422103E-1,1.283852714E-1
1.181309600E1,3.781533234E-2,9.077539176E-2,1.412161052E-1,1.720818395E-1
1.182317700E1,3.532017924E-2,1.128854683E-1,8.705159247E-2,1.468626017E-1
1.183325800E1,2.357019939E-2,1.155301639E-1,-1.020274812E-1,1.559242765E-1
1.184333900E1,1.779088452E-2,9.421764761E-2,-2.858253497E-1,3.014790394E-1
1.185342000E1,-5.350553155E-2,8.745709687E-2,-4.061277187E-1,4.188690841E-1
1.186350100E1,-7.223613672E-2,1.071546122E-1,-4.081917858E-1,4.281596716E-1
1.187358200E1,-3.997924067E-2,1.410506290E-1,-3.627630132E-1,3.912679688E-1
1.188366300E1,8.105629608E-3,1.572129178E-1,-2.500064760E-1,2.954400799E-1
1.189374400E1,4.218232535E-2,2.015020680E-1,-1.374855816E-1,2.475575027E-1
1.190382500E1,6.805171388E-2,1.667508960E-1,-6.885096431E-3,1.802340191E-1
1.191390600E1,6.131536514E-3,9.433926970E-2,1.106965631E-1,1.455720531E-1
1.192398700E1,-1.475486398E-2,-1.627864838E-3,1.601002729E-1,1.607869812E-1
1.193406800E1,5.514589481E-2,-6.484182090E-2,1.411003304E-1,1.647872406E-1
1.194414900E1,1.101065791E-1,-6.014153659E-3,1.784330481E-1,2.097569581E-1
1.195423000E1,1.142260064E-1,6.003424019E-2,7.663068473E-2,1.500798200E-1
1.196431100E1,6.992268585E-2,7.430115402E-2,-1.143662757E-1,1.532628086E-1
1.197439200E1,2.312142558E-2,1.329864416E-1,-2.702214700E-1,3.020589956E-1
1.198447300E1,-1.102171371E-2,1.870842960E-1,-3.229604316E-1,3.733971778E-1
1.199455400E1,-3.261650438E-2,2.282679901E-1,-3.571157724E-1,4.250903275E-1
1.200463500E1,7.895276025E-3,2.062196016E-1,-3.110864908E-1,3.733144308E-1
1.201471600E1,5.911973566E-2,1.971672347E-1,-2.222351253E-1,3.029166759E-1
1.202479700E1,8.304113343E-2,1.376390710E-1,-1.832874066E-1,2.437921597E-1
1.203487800E1,3.806386641E-3,1.088093743E-1,-2.468700296E-1,2.698124905E-1
1.204495900E1,-3.413451008E-2,8.189376354E-2,-2.272666544E-1,2.439710751E-1
1.205504000E1,4.655552646E-2,7.804132551E-2,-1.382772946E-1,1.654644244E-1
1.206512100E1,9.018562697E-2,7.964404732E-2,5.501411319E-2,1.322995625E-1
1.207520200E1,1.041380337E-1,9.998914182E-2,2.911650270E-1,3.249917407E-1
1.208528300E1,5.149255447E-2,7.473618686E-2,3.251964068E-1,3.376235830E-1
1.209536400E1,4.142306440E-2,-3.197257519E-3,2.265111941E-1,2.302898473E-1
1.210544500E1,6.185527784E-2,-1.128424913E-2,1.601757020E-1,1.720745919E-1
1.211552600E1,6.808147073E-2,4.085361868E-2,1.191814578E-1,1.432072788E-1
1.212560700E1,1.067559783E-1,6.117123127E-2,-2.011617601E-2,1.246732488E-1
1.213568800E1,1.184581572E-1,7.256920874E-2,-2.044186592E-1,2.471550390E-1
1.214576900E1,1.401479651E-1,8.577192932E-2,-3.203081346E-1,3.599938570E-1
1.215585000E1,1.143773123E-1,9.249798149E-2,-3.018239164E-1,3.357614074E-1
1.216593100E1,5.385818718E-2,6.118146390E-2,-1.833330148E-1,2.006361637E-1
1.217601200E1,-2.617147945E-2,3.248332947E-2,-7.812406361E-2,8.856343684E-2
1.218609300E1,-8.932382047E-2,1.037325293E-2,-4.828572214E-2,1.020679198E-1
1.219617400E1,-1.167802256E-1,-2.938167393E-2,-1.101404929E-1,1.631926225E-1
1.220625500E1,-8.540874414E-2,-1.897743076E-2,-2.556741822E-1,2.702296873E-1
1.221633600E1,2.009541839E-3,6.159369260E-2,-2.794881374E-1,2.862017473E-1
1.222641700E1,9.979625680E-2,1.617863175E-1,-1.756199527E-1,2.587981321E-1
1.223649800E1,1.821634255E-1,2.691490906E-1,-1.765987766E-1,3.698808923E-1
1.224657800E1,2.116407014E-1,3.209986907E-1,-1.915863597E-1,4.295780246E-1
1.225665900E1,1.998152194E-1,2.953580654E-1,-1.732974386E-1,3.964776298E-1
1.226674000E1,2.076328006E-1,2.138622048E-1,-1.975183600E-1,3.575778588E-1
1.227682100E1,1.329896575E-1,1.249883276E-1,-1.685799050E-1,2.484502273E-1
1.228690200E1,3.372206211E-2,9.054091841E-2,-1.732863289E-1,1.984010765E-1
1.229698300E1,1.174135521E-2,1.219612241E-2,-2.671031499E-1,2.676391180E-1
1.230706400E1,-1.187269829E-2,-3.590628952E-2,-3.361377168E-1,3.382584622E-1
1.231714500E1,1.013249382E-3,-1.263524830E-2,-4.510208863E-1,4.511989761E-1
1.232722600E1,8.891064160E-2,6.877436578E-2,-5.464503694E-1,5.578915860E-1
1.233730700E1,2.113020015E-1,1.104816779E-1,-3.953062767E-1,4.616511555E-1
1.234738800E1,2.267806046E-1,1.193080500E-1,-5.438202918E-2,2.619565966E-1
1.235746900E1,1.594359561E-1,5.420836687E-2,5.017027974E-2,1.757140521E-1
1.236755000E1,9.598862305E-2,-1.193942964E-2,6.958186626E-4,9.673081153E-2
1.237763100E1,1.030564221E-2,-5.274890184E-2,-1.065608275E-1,1.193476555E-1
1.238771200E1,-3.239218600E-2,-4.805300295E-2,-2.616050130E-1,2.679468747E-1
1.239779300E1,2.490329146E-3,-5.802776814E-3,-4.076134962E-1,4.076624047E-1
1.240787400E1,9.371259436E-2,7.363866448E-2,-4.430756897E-1,4.588254243E-1
1.241795500E1,1.575482556E-1,1.220857698E-1,-3.387017208E-1,3.929952210E-1
1.242803600E1,1.335151029E-1,7.157401264E-2,-2.063149112E-1,2.559589119E-1
1.243811700E1,1.214223301E-1,-7.032153904E-3,-5.284830451E-2,1.326113748E-1
1.244819800E1,7.159506261E-2,-1.084173185E-1,5.975328147E-2,1.430056732E-1
1.245827900E1,2.490124494E-2,-1.230496833E-1,5.247232854E-2,1.360685188E-1
1.246836000E1,5.771603388E-2,-9.369724542E-2,-9.442083836E-3,1.104511988E-1
1.247844100E1,1.291537379E-1,-6.342182457E-3,-1.433649570E-1,1.930658493E-1
1.248852200E1,1.648455808E-1,6.388521641E-2,-3.656369197E-1,4.061351295E-1
1.249860300E1,2.780224597E-1,1.809762946E-1,-4.892265934E-1,5.910935349E-1
1.250868400E1,4.260450163E-1,3.170842722E-1,-4.231401926E-1,6.790466951E-1
1.251876500E1,4.230135273E-1,3.216120636E-1,-1.863975406E-1,5.631330277E-1
1.252884600E1,2.350676440E-1,2.128243241E-1,-9.861329198E-3,3.172510615E-1
1.253892700E1,1.105329142E-1,4.140296459E-2,4.653214216E-3,1.181244386E-1
1.254900800E1,6.219003551E-2,-1.177743253E-1,3.839866519E-3,1.332408976E-1
1.255908900E1,1.348309457E-2,-1.233522767E-1,-4.567669451E-2,1.322268446E-1
1.256917000E1,-1.072255097E-1,-6.927254856E-2,-1.517106879E-1,1.982728643E-1
1.257925100E1,-3.037526205E-2,-4.200084239E-2,-1.722449398E-1,1.798750861E-1
1.258933200E1,-1.263217852E-3,2.126252264E-2,-2.225473666E-1,2.235643553E-1
1.259941300E1,-3.215573922E-2,1.099373022E-1,-3.390689260E-1,3.578937531E-1
1.260949400E1,2.271160886E-2,1.398268068E-1,-3.536594832E-1,3.809755676E-1
1.261957500E1,4.541978247E-2,9.110722125E-2,-2.667850614E-1,2.855481595E-1
1.262965600E1,4.350481935E-2,4.235196769E-2,-1.602452838E-1,1.713619254E-1
1.263973700E1,1.237570502E-2,-1.195258588E-2,-7.640673637E-2,7.831993199E-2
1.264981800E1,-3.090260781E-2,-2.969099164E-2,-1.016731399E-1,1.103356404E-1
1.265989900E1,-9.810312241E-3,-1.532321334E-2,-1.644389069E-1,1.654424287E-1
1.266998000E1,4.749846764E-2,3.068443358E-2,-1.827395225E-1,1.912887136E-1
1.268006000E1,9.746409483E-2,6.014124423E-2,-1.270249128E-1,1.710308379E-1
1.269014100E1,6.484788738E-2,5.038604200E-2,-1.829009056E-2,8.413399514E-2
1.270022200E1,9.129988700E-3,5.508077145E-3,1.216080523E-1,1.220746246E-1
1.271030300E1,-9.859640814E-2,-9.719534218E-2,5.477963984E-2,1.488925625E-1
1.272038400E1,-1.702530127E-1,-1.346347716E-1,-1.659352094E-1,2.732162217E-1
1.273046500E1,-1.344804052E-1,-2.651127577E-2,-3.710397470E-1,3.955481272E-1
1.274054600E1,-7.519935943E-2,4.602518857E-2,-4.825169134E-1,4.905056915E-1
1.275062700E1,-5.426859319E-2,6.209713787E-2,-5.486284572E-1,5.547921402E-1
1.276070800E1,-4.316999316E-2,1.024332780E-1,-5.317832136E-1,5.432767352E-1
1.277078900E1,-3.800105167E-3,1.588477993E-1,-4.994025028E-1,5.240705333E-1
1.278087000E1,6.507600188E-2,1.663465610E-1,-4.584813488E-1,4.920479769E-1
1.279095100E1,1.408361093E-1,2.242801890E-1,-2.855131084E-1,3.894279752E-1
1.280103096E1,2.076529735E-1,2.674180225E-1,-1.798106521E-1,3.833588746E-1
1.281111196E1,2.196220046E-1,2.663903743E-1,-2.302668607E-1,4.149945585E-1
1.282119296E1,2.740963467E-1,2.759222129E-1,-2.760341871E-1,4.769242574E-1
1.283127396E1,3.298472822E-1,2.273912001E-1,-3.597388333E-1,5.384403547E-1
1.284135496E1,2.835205235E-1,1.023400149E-1,-3.842567933E-1,4.883755205E-1
1.285143596E1,2.161413033E-1,9.662816226E-3,-2.668371016E-1,3.435294337E-1
1.286151696E1,1.650051367E-1,-1.602224797E-2,-9.141770840E-2,1.893161508E-1
1.287159796E1,1.830487671E-1,-3.058620036E-2,-2.165574789E-2,1.868457604E-1
1.288167896E1,1.144789077E-1,2.374612749E-2,-9.802389264E-2,1.525712371E-1
1.289175996E1,7.386750989E-2,3.814489603E-2,-5.949892759E-2,1.022328934E-1
1.290184096E1,4.623685777E-2,4.502677649E-2,-8.694868147E-2,1.082835667E-1
1.291192196E1,6.435036242E-2,9.001759261E-2,-1.854824513E-1,2.159811933E-1
1.292200296E1,4.964863501E-2,1.306019470E-1,-4.316461372E-1,4.536962016E-1
1.293208396E1,6.876823534E-2,1.735117391E-1,-6.779466480E-1,7.031692907E-1
1.294216496E1,8.973663390E-2,2.189454818E-1,-6.623725891E-1,7.033684911E-1
1.295224596E1,1.595845485E-1,3.116633186E-1,-6.067702460E-1,7.005507717E-1
1.296232696E1,1.991929295E-1,4.121714008E-1,-5.806255907E-1,7.393843137E-1
1.297240796E1,2.395036342E-1,3.814217708E-1,-4.756382489E-1,6.550391605E-1
1.298248896E1,2.011104508E-1,3.073311165E-1,-3.656597239E-1,5.182710316E-1
1.299256996E1,1.203274389E-1,2.127044562E-1,-3.043446511E-1,3.903172362E-1
1.300265096E1,2.800026923E-2,1.094803423E-1,-2.875420922E-1,3.089505061E-1
1.301273196E1,-5.391790643E-3,5.813155621E-2,-2.868614763E-1,2.927419612E-1
1.302281296E1,1.261185944E-2,5.309242576E-2,-3.577344078E-1,3.618725897E-1
1.303289396E1,-5.015441917E-2,8.621953368E-2,-4.898200858E-1,4.998729740E-1
1.304297496E1,-1.136526961E-1,1.029054406E-1,-5.835404277E-1,6.033455857E-1
1.305305596E1,-1.859387534E-1,1.057530347E-1,-6.659779823E-1,6.994880966E-1
1.306313696E1,-2.625141089E-1,8.643734246E-2,-7.272059315E-1,7.779547149E-1
1.307321796E1,-3.127179370E-1,5.570700824E-2,-7.487166685E-1,8.133095527E-1
1.308329796E1,-2.642864730E-1,-3.532332212E-2,-5.625670499E-1,6.225566340E-1
1.309337896E1,-2.709944536E-1,-8.473989576E-2,-3.305091870E-1,4.357237273E-1
1.310345996E1,-3.266675663E-1,-8.439023226E-2,-1.968921232E-1,3.906403952E-1
1.311354096E1,-2.967920950E-1,-9.413403243E-2,-1.363132149E-1,3.398941839E-1
1.312362196E1,-2.347336219E-1,-9.305872947E-2,-9.047513723E-2,2.682266780E-1
1.313370296E1,-1.253974865E-1,-8.189844131E-2,-5.360727310E-2,1.590774153E-1
1.314378396E1,1.255901523E-2,-8.290299296E-2,1.263700247E-2,8.479580731E-2
1.315386496E1,1.027341538E-1,-1.525678897E-1,1.667403710E-1,2.482611903E-1
1.316394596E1,1.330169933E-1,-2.440946487E-1,3.392899507E-1,4.386267076E-1
1.317402696E1,1.222579794E-1,-3.155270125E-1,4.149488282E-1,5.354314514E-1
1.318410796E1,7.869029336E-2,-3.566054566E-1,4.108505148E-1,5.496887842E-1
1.319418896E1,3.987586373E-2,-3.967784594E-1,4.107440954E-1,5.724805170E-1
1.320426996E1,2.202002943E-2,-3.937821999E-1,4.207948744E-1,5.767301180E-1
1.321435096E1,3.175392587E-2,-3.245010267E-1,5.114571226E-1,6.065456424E-1
1.322443196E1,4.486719319E-2,-2.192078756E-1,4.908415943E-1,5.394354720E-1
1.323451296E1,5.945375785E-3,-1.380916455E-1,2.927490377E-1,3.237385506E-1
1.324459396E1,-5.789675396E-2,-1.524247791E-1,3.390157163E-2,1.665372750E-1
1.325467496E1,-1.499644900E-1,-1.735118853E-1,-2.261819959E-1,3.221087050E-1
1.326475596E1,-1.993084851E-1,-2.163854246E-1,-4.227028209E-1,5.149992223E-1
1.327483696E1,-1.846642249E-1,-2.194699770E-1,-6.263993490E-1,6.889441858E-1
1.328491796E1,-1.502326945E-1,-2.197649691E-1,-7.733790547E-1,8.179129943E-1
1.329499896E1,-1.579067265E-1,-2.675411063E-1,-8.482737011E-1,9.033720439E-1
1.330507996E1,-1.255709296E-1,-3.516571042E-1,-9.636252326E-1,1.033442967E0
1.331516096E1,-9.808115881E-2,-4.321264860E-1,-1.111689597E0,1.196748500E0
1.332524196E1,-8.128748037E-2,-5.102903107E-1,-1.310168070E0,1.408383551E0
1.333532296E1,-8.471921124E-3,-6.090512449E-1,-1.318081107E0,1.452016872E0
1.334540396E1,9.991100840E-2,-6.681296115E-1,-1.375123619E0,1.532104551E0
1.335548496E1,1.624961330E-1,-6.431473826E-1,-1.511169031E0,1.650356140E0
1.336556596E1,2.597731900E-1,-6.689666404E-1,-1.594457940E0,1.748512110E0
1.337564696E1,3.133635062E-1,-7.570644459E-1,-1.720183602E0,1.905354268E0
1.338572796E1,3.252860885E-1,-8.507710469E-1,-1.864502825E0,2.075088720E0
1.339580896E1,4.245460095E-1,-9.300968595E-1,-1.988159156E0,2.235642260E0
1.340588996E1,5.971675830E-1,-9.706807753E-1,-1.991971541E0,2.294946821E0
1.341597096E1,8.109621064E-1,-8.813378052E-1,-1.897803887E0,2.244120197E0
1.342605196E1,9.567831132E-1,-8.046539108E-1,-1.829118399E0,2.215530627E0
1.343613296E1,9.628895067E-1,-8.393181056E-1,-1.812909917E0,2.217713564E0
1.344621396E1,9.896977479E-1,-9.189836414E-1,-1.834299032E0,2.277868632E0
1.345629496E1,9.567198171E-1,-1.036432569E0,-1.844740405E0,2.322191302E0
1.346637496E1,7.609041663E-1,-1.154145206E0,-1.496699511E0,2.037433615E0
1.347645596E1,4.890956888E-1,-1.207600598E0,-9.470565623E-1,1.610723418E0
1.348653696E1,2.515995499E-1,-1.155560086E0,-5.593393868E-1,1.308236216E0
1.349661796E1,3.051446964E-1,-9.404418996E-1,-5.861833692E-2,9.904445273E-1
1.350669896E1,5.223427378E-1,-5.994185418E-1,2.593702072E-1,8.363118009E-1
1.351677996E1,5.817978112E-1,-2.509534326E-1,2.982378191E-1,7.002943062E-1
1.352686096E1,6.221074196E-1,1.678802857E-1,2.191466260E-1,6.806075782E-1
1.353694196E1,7.393782265E-1,5.430730176E-1,2.920081955E-1,9.627446445E-1
1.354702296E1,6.293594288E-1,7.689389715E-1,5.735896361E-1,1.147329727E0
1.355710396E1,2.049685168E-1,6.890399855E-1,1.585005916E0,1.740411431E0
1.356718496E1,-2.620213348E-1,4.296221235E-1,3.335796184E0,3.373539170E0
1.357726596E1,-8.512352427E-1,1.666210878E-1,4.703213173E0,4.782528429E0
1.358734696E1,-1.214471003E0,1.198033091E-1,5.901163818E0,6.026029129E0
1.359742796E1,-1.187753979E0,6.248562688E-1,7.491662609E0,7.610927244E0
1.360750896E1,-5.493046877E-1,1.444124857E0,8.645251014E0,8.782231911E0
1.361758996E1,2.525396543E-1,2.162239245E0,1.023117728E1,1.046021240E1
1.362767096E1,7.729196097E-1,2.540855522E0,1.260774651E1,1.288443338E1
1.363775196E1,9.330508728E-1,2.726733829E0,1.505464605E1,1.532801451E1
1.364783296E1,4.726488965E-1,2.530970803E0,1.715448644E1,1.734663123E1
1.365791396E1,-1.216277501E-1,2.107866864E0,1.825722687E1,1.837890718E1
1.366799496E1,-3.922896981E-1,1.664338015E0,1.792872094E1,1.801007903E1
1.367807596E1,-1.916954103E-1,1.372256729E0,1.723541190E1,1.729101672E1
1.368815696E1,2.196097255E-1,1.321399694E0,1.674046147E1,1.679396843E1
1.369823796E1,4.275749402E-1,1.209199812E0,1.648737059E1,1.653718154E1
1.370831896E1,5.394302022E-1,1.060109553E0,1.569872036E1,1.574371742E1
1.371839996E1,8.788765660E-1,8.669242725E-1,1.313040456E1,1.318830943E1
1.372848096E1,1.109052356E0,9.050378859E-1,1.047307542E1,1.057044935E1
1.373856196E1,6.855000812E-1,8.694792134E-1,8.591631462E0,8.662680627E0
1.374864296E1,5.908726899E-1,7.970409822E-1,5.901902906E0,5.984719106E0
1.375872396E1,7.765024180E-1,4.907553479E-1,3.026015961E0,3.162367691E0
1.376880496E1,7.499767435E-1,1.456041482E-1,3.442209077E-1,8.379461301E-1
1.377888596E1,5.819584635E-1,-2.250719020E-1,-1.828095721E0,1.931648772E0
1.378896696E1,4.417659134E-1,-5.734665522E-1,-3.339215051E0,3.416778917E0
1.379904796E1,5.167152312E-1,-9.699378866E-1,-4.224767091E0,4.365367236E0
1.380912900E1,6.136908643E-1,-1.609246718E0,-4.670438944E0,4.977880212E0
1.381920900E1,4.135893506E-1,-2.339398185E0,-5.129064134E0,5.652533849E0
1.382929000E1,-1.510036133E-1,-2.944730016E0,-5.674010015E0,6.394421523E0
1.383937100E1,-8.467105941E-1,-3.403680604E0,-6.369011237E0,7.270919104E0
1.384945200E1,-1.380593397E0,-3.813826821E0,-7.244126582E0,8.302329979E0
1.385953300E1,-3.505969455E0,-4.699335884E0,-8.653983831E0,1.045308642E1
1.386961400E1,-4.046924027E0,-4.798681540E0,-1.049637424E1,1.223024165E1
1.387969500E1,-2.381868412E0,-4.601467820E0,-1.139701151E1,1.251953173E1
1.388977600E1,-2.327714863E0,-4.707427261E0,-1.191230558E1,1.301849270E1
1.389985700E1,-2.292465801E0,-4.590827056E0,-1.215321086E1,1.319210471E1
1.390993800E1,-2.042180120E0,-4.378039570E0,-1.245881442E1,1.336262649E1
1.392001900E1,-1.994672955E0,-4.408867553E0,-1.270427585E1,1.359468493E1
1.393010000E1,-1.987269210E0,-4.555710726E0,-1.272136726E1,1.365785211E1
1.394018100E1,-1.818594288E0,-4.498804454E0,-1.241453462E1,1.332918589E1
1.395026200E1,-1.852221040E0,-4.410417065E0,-1.209108069E1,1.300295096E1
1.396034300E1,-1.995526063E0,-4.404553185E0,-1.172742247E1,1.268521386E1
1.397042400E1,-1.858852075E0,-4.362952292E0,-1.124921729E1,1.220801267E1
1.398050500E1,-1.781981655E0,-4.418762503E0,-1.086097737E1,1.186009065E1
1.399058600E1,-1.880077176E0,-4.453355801E0,-1.064919122E1,1.169497079E1
1.400066700E1,-2.034472320E0,-4.387103046E0,-1.048411497E1,1.154566661E1
1.401074800E1,-2.090766974E0,-4.351693770E0,-1.032528822E1,1.139825083E1
1.402082900E1,-2.196895107E0,-4.443011199E0,-1.005805643E1,1.121299228E1
1.403091000E1,-2.478146473E0,-4.568743585E0,-9.547581055E0,1.087064542E1
1.404099100E1,-2.805140898E0,-4.747910751E0,-8.871064636E0,1.044544205E1
1.405107200E1,-3.101261441E0,-5.028068687E0,-8.094784192E0,1.002121891E1
1.406115300E1,-3.419807809E0,-5.373843784E0,-7.284316249E0,9.676494494E0
1.407123400E1,-3.759098637E0,-5.601475890E0,-6.371350708E0,9.279087485E0
1.408131500E1,-4.276665223E0,-5.779485015E0,-5.372185514E0,8.975115022E0
1.409139600E1,-4.633169084E0,-5.843572837E0,-4.519503597E0,8.720063763E0
1.410147700E1,-4.554046901E0,-5.456525168E0,-4.009874899E0,8.160398690E0
1.411155800E1,-3.895619135E0,-4.580465498E0,-3.835964087E0,7.132400235E0
1.412163900E1,-2.663021106E0,-3.403225690E0,-3.783878260E0,5.743810686E0
1.413172000E1,-1.027814797E0,-2.270004014E0,-3.872277635E0,4.604764442E0
1.414180100E1,3.627910799E-1,-1.759848189E0,-3.788110474E0,4.192667884E0
1.415188200E1,6.534582165E-1,-1.435928522E0,-3.773241005E0,4.089773349E0
1.416196300E1,-2.668216065E-1,-7.867396501E-1,-3.622345419E0,3.716387948E0
1.417204400E1,-1.013107295E0,1.911957657E-1,-3.081833482E0,3.249713806E0
1.418212400E1,-7.258017227E-1,1.347106393E0,-1.877830968E0,2.422340380E0
1.419220500E1,9.403346032E-1,2.795064099E0,1.275064310E0,3.212849433E0
1.420228600E1,3.043446219E0,3.555591559E0,6.904168879E0,8.341003784E0
1.421236700E1,3.796926614E0,3.108390951E0,1.329923706E1,1.417562882E1
1.422244800E1,3.750974808E0,2.237399063E0,1.835604481E1,1.886849617E1
1.423252900E1,4.018055153E0,1.911546013E0,2.104005947E1,2.150541508E1
1.424261000E1,4.631046252E0,2.795083980E0,2.153131914E1,2.220037810E1
1.425269100E1,5.684482963E0,4.622867459E0,2.021899111E1,2.150562372E1
1.426277200E1,6.712415289E0,6.328385367E0,1.786050498E1,2.010230381E1
1.427285300E1,7.090185181E0,7.314638155E0,1.524517406E1,1.833548443E1
1.428293400E1,6.596463833E0,7.674486331E0,1.213046753E1,1.579744657E1
1.429301500E1,5.585235833E0,7.694344060E0,9.709089922E0,1.358912127E1
1.430309600E1,4.599179512E0,7.541035913E0,7.813151296E0,1.179258275E1
1.431317700E1,3.497250964E0,7.186068993E0,5.809458427E0,9.880291447E0
1.432325800E1,2.312848902E0,6.534205019E0,3.703015360E0,7.858589443E0
1.433333900E1,1.042362669E0,5.640278013E0,1.665275323E0,5.972637432E0
1.434342000E1,-1.103425142E-1,4.703868061E0,1.550874549E-1,4.707717315E0
1.435350100E1,-1.026052446E0,3.772148160E0,-5.107273901E-1,3.942426643E0
1.436358200E1,-1.732295817E0,2.941799099E0,-3.979895639E-1,3.437066544E0
1.437366300E1,-2.106841554E0,2.078414731E0,1.335451430E-1,2.962502900E0
1.438374400E1,-2.219041729E0,1.372415189E0,6.670971394E-1,2.693081551E0
1.439382500E1,-2.207805573E0,8.681903408E-1,1.036600238E0,2.588957313E0
1.440390600E1,-2.093689412E0,6.831886768E-1,1.337902583E0,2.576871251E0
1.441398700E1,-1.724136320E0,7.465461820E-1,1.533218297E0,2.425022803E0
1.442406800E1,-9.877169305E-1,9.661974227E-1,1.330167301E0,1.917933066E0
1.443414900E1,-3.641986509E-1,1.318602093E0,7.140841949E-1,1.543135890E0
1.444423000E1,2.545292974E-2,1.549877160E0,1.049692154E-1,1.553636251E0
1.445431100E1,3.622972825E-1,1.600765332E0,-4.059242356E-1,1.690705017E0
1.446439200E1,6.114051877E-1,1.460010718E0,-9.129591089E-1,1.827277192E0
1.447447300E1,6.975802825E-1,1.180919314E0,-1.249093317E0,1.855107219E0
1.448455400E1,6.594416723E-1,8.097731481E-1,-1.199977291E0,1.590767541E0
1.449463500E1,4.285580765E-1,2.158569825E-1,-1.095225007E0,1.195731608E0
1.450471600E1,7.337729394E-2,-5.624543448E-1,-1.010991772E0,1.159242633E0
1.451479700E1,-3.718411079E-1,-1.243433213E0,-9.484885454E-1,1.607489498E0
1.452487800E1,-8.248740211E-1,-1.739813290E0,-1.004963878E0,2.171939186E0
1.453495900E1,-1.064619072E0,-1.953276130E0,-1.400477146E0,2.628695046E0
1.454504000E1,-9.735017645E-1,-1.845812200E0,-1.816706514E0,2.766794340E0
1.455512100E1,-7.869831866E-1,-1.692618366E0,-2.270168613E0,2.939041510E0
1.456520200E1,-5.679719236E-1,-1.432728049E0,-2.661773602E0,3.075766649E0
1.457528300E1,-2.495308051E-1,-1.003669304E0,-2.846035155E0,3.028123808E0
1.458536400E1,-6.031446800E-2,-7.365573835E-1,-2.783469363E0,2.879905608E0
1.459544500E1,-7.676166236E-2,-6.619416493E-1,-2.410182531E0,2.500607713E0
1.460552600E1,-7.948485687E-2,-7.052180618E-1,-1.850711582E0,1.982115969E0
1.461560700E1,-9.986839682E-2,-8.709193826E-1,-1.359407473E0,1.617548436E0
1.462568800E1,-1.217410764E-1,-1.250874672E0,-9.071311891E-1,1.549966234E0
1.463576900E1,-2.074649124E-1,-1.514660111E0,-7.440821654E-1,1.700263277E0
1.464585000E1,-2.770099412E-1,-1.569073716E0,-4.792418879E-1,1.663850840E0
1.465593100E1,-1.422532551E-1,-1.528522106E0,-1.946503007E-1,1.547418675E0
1.466601200E1,1.211981624E-2,-1.606661957E0,9.523301661E-2,1.609527527E0
1.467609300E1,1.496627006E-1,-1.535330019E0,3.437227249E-1,1.580437440E0
1.468617400E1,2.346399933E-1,-1.265788872E0,5.885199165E-1,1.415497470E0
1.469625500E1,3.404664105E-1,-1.003027865E0,8.358407664E-1,1.349300582E0
1.470633600E1,3.899579747E-1,-8.939857712E-1,1.100192217E0,1.470272320E0
1.471641700E1,3.098058043E-1,-9.049364367E-1,1.245245265E0,1.570199147E0
1.472649800E1,3.857539728E-2,-9.486981681E-1,1.134338787E0,1.479270347E0
1.473657900E1,-2.174914254E-1,-1.030941595E0,9.664418364E-1,1.429738758E0
1.474666000E1,-3.897824121E-1,-1.158852361E0,7.612186003E-1,1.440250979E0
1.475674100E1,-5.576596279E-1,-1.325406791E0,4.654319340E-1,1.511394822E0
1.476682200E1,-7.090326391E-1,-1.438244604E0,1.596476984E-1,1.611447242E0
1.477690300E1,-7.062959960E-1,-1.430177785E0,-3.542009354E-2,1.595467679E0
1.478698400E1,-6.340707497E-1,-1.403554536E0,-1.787797880E-1,1.550475173E0
1.479706500E1,-5.102353469E-1,-1.343218871E0,-2.471056724E-1,1.457956878E0
1.480714646E1,-3.710262984E-1,-1.250812399E0,-1.902110946E-1,1.318473523E0
1.481722746E1,-3.602574813E-1,-1.171812130E0,-8.589852154E-2,1.228945758E0
1.482730846E1,-3.919447124E-1,-1.146338443E0,1.473556817E-2,1.211581454E0
1.483738946E1,-4.488093232E-1,-1.192399884E0,9.055816770E-2,1.277281517E0
1.484747046E1,-4.925320244E-1,-1.173959228E0,6.491578817E-3,1.273110444E0
1.485755146E1,-4.542663833E-1,-1.108941698E0,-9.465180337E-2,1.202110062E0
1.486763246E1,-4.003195332E-1,-9.851523417E-1,-1.746475607E-1,1.077628246E0
1.487771346E1,-3.837957403E-1,-8.321441567E-1,-3.068314719E-1,9.663894763E-1
1.488779446E1,-3.603706250E-1,-7.155495071E-1,-5.194625455E-1,9.548399974E-1
1.489787546E1,-3.130650423E-1,-6.637490237E-1,-7.186380064E-1,1.027138292E0
1.490795646E1,-2.652326256E-1,-6.296363676E-1,-8.227219534E-1,1.069421205E0
1.491803746E1,-2.386921138E-1,-5.554322773E-1,-8.142499226E-1,1.014140955E0
1.492811846E1,-1.179067647E-1,-4.517801473E-1,-6.817648798E-1,8.263235795E-1
1.493819946E1,1.037529945E-2,-4.329281393E-1,-5.168108332E-1,6.742609717E-1
1.494828046E1,1.233167548E-1,-4.407277402E-1,-4.160241312E-1,6.184852793E-1
1.495836146E1,1.737712093E-1,-3.905349487E-1,-3.185919768E-1,5.331180235E-1
1.496844246E1,2.914828232E-1,-2.811595640E-1,-1.513651174E-1,4.323474707E-1
1.497852346E1,4.746800365E-1,-1.745803177E-1,7.902570426E-2,5.119028094E-1
1.498860446E1,5.846256709E-1,-1.271254849E-1,3.499084944E-1,6.930974090E-1
1.499868546E1,6.162329413E-1,-1.121358553E-1,6.235201800E-1,8.837957359E-1
1.500876646E1,6.534041297E-1,-1.292234659E-3,8.260817635E-1,1.053256714E0
1.501884746E1,6.275389713E-1,9.946376950E-2,9.092595756E-1,1.109257039E0
1.502892846E1,6.768334843E-1,2.114107597E-1,8.662977433E-1,1.119495357E0
1.503900946E1,7.146148297E-1,3.734645873E-1,6.650816041E-1,1.045219447E0
1.504909046E1,7.038802189E-1,5.352257618E-1,3.975597936E-1,9.695193490E-1
1.505917146E1,7.105115461E-1,6.954488263E-1,1.195650351E-1,1.001384804E0
1.506925246E1,7.267438553E-1,8.279926336E-1,-2.468635976E-2,1.101969985E0
1.507933346E1,6.734698735E-1,8.750406463E-1,-1.492332226E-1,1.114238914E0
1.508941446E1,6.188991255E-1,9.248216477E-1,-2.021019924E-1,1.131006818E0
1.509949546E1,6.359127688E-1,9.494163524E-1,-1.605341363E-1,1.153927064E0
1.510957646E1,6.044741906E-1,8.692520490E-1,2.515238285E-2,1.059066010E0
1.511965846E1,5.009895833E-1,6.882196212E-1,2.485885262E-1,8.868106139E-1
1.512973946E1,4.984271872E-1,6.105646504E-1,3.960149592E-1,8.820695558E-1
1.513982046E1,5.377672541E-1,6.415611792E-1,4.331623203E-1,9.425624446E-1
1.514990146E1,6.066454080E-1,7.567869955E-1,4.458262199E-1,1.067476569E0
1.515998246E1,6.571511717E-1,9.061364315E-1,4.189401376E-1,1.195174353E0
1.517006346E1,7.736462724E-1,1.091246854E0,4.168912733E-1,1.401123329E0
1.518014446E1,9.067997982E-1,1.274009765E0,4.178420305E-1,1.618634832E0
1.519022546E1,9.383111742E-1,1.351281305E0,4.003588557E-1,1.693126173E0
1.520030646E1,8.884315011E-1,1.330539477E0,4.291599011E-1,1.656449230E0
1.521038746E1,7.912133548E-1,1.230227422E0,4.518681479E-1,1.530902644E0
1.522046846E1,7.499957469E-1,1.081034838E0,5.504235524E-1,1.426217385E0
1.523054946E1,6.545134927E-1,8.741134241E-1,6.557763451E-1,1.273775807E0
1.524063046E1,5.256869066E-1,6.568212426E-1,6.453057361E-1,1.060273720E0
1.525071146E1,4.585845521E-1,4.549145472E-1,5.856910336E-1,8.719409519E-1
1.526079246E1,3.884954399E-1,3.157930608E-1,5.610233849E-1,7.519316475E-1
1.527087346E1,3.503321251E-1,2.320963083E-1,4.614265913E-1,6.241120039E-1
1.528095446E1,3.038322888E-1,2.097001567E-1,2.732614374E-1,4.593038522E-1
1.529103546E1,3.829733294E-1,2.558703563E-1,1.856713164E-1,4.966004913E-1
1.530111646E1,4.842219615E-1,3.208425701E-1,6.900533080E-2,5.849552106E-1
1.531119746E1,5.595903786E-1,3.566848326E-1,-3.288883388E-2,6.644148831E-1
1.532127846E1,6.175323388E-1,3.788413945E-1,6.315577626E-3,7.245045743E-1
1.533135946E1,6.481225591E-1,3.549142957E-1,7.914849579E-2,7.431631673E-1
1.534144046E1,6.421606649E-1,2.444258934E-1,1.120987254E-1,6.961899606E-1
1.535152146E1,6.306927402E-1,1.272152397E-1,1.319079226E-1,6.567775497E-1
1.536160246E1,5.784283532E-1,-5.108741552E-2,1.973347574E-1,6.132946195E-1
1.537168346E1,4.635989781E-1,-2.127448019E-1,2.306644714E-1,5.598128809E-1
1.538176446E1,3.749132350E-1,-2.890813717E-1,2.390984952E-1,5.303735134E-1
1.539184546E1,3.915650088E-1,-2.753392455E-1,2.086169600E-2,4.791347061E-1
1.540192646E1,2.640754616E-1,-3.686184150E-1,-3.004363722E-1,5.439461361E-1
1.541200746E1,-8.999098778E-2,-5.126473233E-1,-5.514953470E-1,7.583223416E-1
1.542208846E1,-5.374347668E-1,-6.612452459E-1,-5.337730211E-1,1.005482492E0
1.543216946E1,-6.639422742E-1,-7.481997746E-1,-3.674618357E-1,1.065669014E0
1.544225046E1,-4.452619636E-1,-7.202755192E-1,-2.516548061E-1,8.833941257E-1
1.545233146E1,-1.102584605E-1,-5.368278989E-1,-1.595465416E-1,5.707856166E-1
1.546241246E1,1.524013902E-1,-2.350355574E-1,-6.233950496E-2,2.869740596E-1
1.547249346E1,4.246189535E-1,8.313425034E-2,-7.874152958E-2,4.397872073E-1
1.548257446E1,7.045188810E-1,3.280469245E-1,-1.525140953E-1,7.919736028E-1
1.549265546E1,9.092456885E-1,4.848835739E-1,-2.254557717E-1,1.054831791E0
1.550273746E1,9.909733911E-1,5.352105591E-1,-3.535080403E-1,1.180443365E0
1.551281846E1,9.398370051E-1,4.554358265E-1,-3.314032263E-1,1.095693154E0
1.552289946E1,8.767551962E-1,2.641672629E-1,-2.541679394E-1,9.503080333E-1
1.553298046E1,7.945893909E-1,1.366652173E-1,-2.638848424E-1,8.483424378E-1
1.554306146E1,6.938997526E-1,-1.028759122E-2,-1.872804701E-1,7.188022508E-1
1.555314246E1,6.024248877E-1,-1.483821604E-1,-1.232476115E-1,6.325527524E-1
1.556322346E1,5.028696093E-1,-1.206344908E-1,-1.812777185E-1,5.479891747E-1
1.557330446E1,4.812008514E-1,4.134858549E-3,-2.458894515E-1,5.404007575E-1
1.558338546E1,5.834651448E-1,1.765832815E-1,-3.056368858E-1,6.819289819E-1
1.559346646E1,7.474856834E-1,3.302858233E-1,-3.721489638E-1,8.979523502E-1
1.560354746E1,7.405549056E-1,3.450126207E-1,-4.323945808E-1,9.243486086E-1
1.561362846E1,6.272028295E-1,2.321654516E-1,-4.334248602E-1,7.969575244E-1
1.562370946E1,5.554205829E-1,1.370528877E-1,-3.294122493E-1,6.601423694E-1
1.563379046E1,5.713967840E-1,4.575621665E-2,-1.803211141E-1,6.009189799E-1
1.564387146E1,6.148979489E-1,4.182805717E-2,-2.138619125E-2,6.166899084E-1
1.565395246E1,6.653112535E-1,9.338500410E-2,1.314489162E-1,6.845718667E-1
1.566403346E1,6.328783563E-1,-6.383639216E-2,3.906314278E-1,7.464603212E-1
1.567411446E1,3.842533580E-1,-2.955720735E-1,7.305587250E-1,8.767722306E-1
1.568419546E1,2.036439031E-1,-3.857159659E-1,9.364637464E-1,1.033059531E0
1.569427646E1,1.559724310E-1,-3.562954080E-1,7.869270533E-1,8.777972455E-1
1.570435746E1,1.150720346E-1,-2.862194520E-1,2.120978075E-1,3.743642983E-1
1.571443846E1,2.447724140E-1,-1.337331310E-1,-4.029146737E-1,4.900390997E-1
1.572451946E1,3.652886450E-1,1.113710395E-1,-8.273067552E-1,9.111946936E-1
1.573460046E1,4.357888164E-1,2.838057214E-1,-1.004817113E0,1.131421676E0
1.574468146E1,4.636407857E-1,2.944979399E-1,-1.094174262E0,1.224299445E0
1.575476246E1,3.962701171E-1,2.155771932E-1,-1.078378594E0,1.168932814E0
1.576484346E1,3.070000910E-1,1.360752332E-1,-9.400130063E-1,9.981933565E-1
1.577492446E1,2.175900972E-1,4.349042058E-2,-6.415231723E-1,6.788142954E-1
1.578500546E1,2.302919307E-1,-6.271898925E-2,-4.034508634E-1,4.687650201E-1
1.579508646E1,2.808764856E-1,-2.340848002E-1,-1.257379407E-1,3.866488376E-1
1.580516763E1,3.311863676E-1,-2.573081866E-1,1.006288272E-1,4.312981264E-1
1.581524863E1,3.858149301E-1,-2.107041237E-1,1.781278235E-1,4.743194171E-1
1.582532963E1,3.826948558E-1,-2.086108205E-1,2.321987808E-2,4.364779374E-1
1.583541162E1,2.735336253E-1,-1.888296899E-1,-2.905651027E-1,4.414808885E-1
1.584549262E1,1.101324530E-1,-2.204350600E-1,-6.500057280E-1,6.951461856E-1
1.585557362E1,9.047199436E-2,-2.789580873E-1,-8.906730312E-1,9.377106402E-1
1.586565462E1,1.478997651E-1,-3.198245698E-1,-1.113900429E0,1.168304867E0
1.587573562E1,1.283212405E-1,-3.106307003E-1,-1.316740340E0,1.358956547E0
1.588581662E1,1.529521979E-1,-2.579619053E-1,-1.434740660E0,1.465748778E0
1.589589762E1,2.068728818E-1,-2.595508862E-1,-1.615652343E0,1.649392478E0
1.590597862E1,8.522433758E-2,-2.513197607E-1,-1.672963243E0,1.693880403E0
1.591605963E1,-1.428825617E-2,-2.605685940E-1,-1.473431686E0,1.496362617E0
1.592614063E1,-8.185217522E-2,-3.350252840E-1,-1.168890569E0,1.218707053E0
1.593622163E1,-1.242909741E-1,-4.184524798E-1,-9.795214731E-1,1.072386610E0
1.594630263E1,-2.264962837E-1,-5.432987201E-1,-8.478924626E-1,1.032180069E0
1.595638363E1,-2.851584017E-1,-6.044629347E-1,-7.138087910E-1,9.778618224E-1
1.596646463E1,-2.249224325E-1,-5.147654772E-1,-5.907319182E-1,8.151918770E-1
1.597654563E1,-9.473936543E-2,-3.717232865E-1,-3.892052919E-1,5.464746182E-1
1.598662663E1,-2.435599208E-2,-2.484753826E-1,-3.309325254E-1,4.145474237E-1
1.599670763E1,-5.479001865E-2,-1.418943822E-1,-3.462545693E-1,3.781906776E-1
1.600678863E1,-1.104840168E-1,-6.193370819E-2,-4.662020123E-1,4.831012507E-1
1.601686963E1,-1.340246147E-1,-9.087450206E-3,-6.710065877E-1,6.843208457E-1
1.602695063E1,-1.718623857E-1,2.509449542E-2,-9.572125912E-1,9.728424117E-1
1.603703163E1,-2.574376293E-1,-1.963787377E-3,-1.105389222E0,1.134972828E0
1.604711263E1,-3.474889165E-1,-9.539264560E-2,-9.723849463E-1,1.037005684E0
1.605719363E1,-3.202681542E-1,-1.374063519E-1,-6.674614209E-1,7.529654338E-1
1.606727463E1,-3.255316716E-1,-1.483099473E-1,-3.130681121E-1,4.753718045E-1
1.607735563E1,-3.800388312E-1,-2.207952484E-1,8.396777093E-2,4.474713862E-1
1.608743663E1,-4.731648767E-1,-3.478613842E-1,3.395530754E-1,6.783721944E-1
1.609751763E1,-5.165848383E-1,-3.810007712E-1,4.210889894E-1,7.676831507E-1
1.610759863E1,-5.005790357E-1,-3.136414316E-1,4.233565396E-1,7.267606746E-1
1.611767963E1,-4.453330804E-1,-1.916082868E-1,2.763896978E-1,5.580560483E-1
1.612776163E1,-3.675948599E-1,-4.998901606E-2,-5.527606845E-2,3.750737614E-1
1.613784263E1,-3.137939709E-1,1.150278881E-1,-4.038414574E-1,5.242003375E-1
1.614792363E1,-2.948383941E-1,2.151503465E-1,-6.981785989E-1,7.878278404E-1
1.615800463E1,-3.245044620E-1,2.205028877E-1,-9.070697933E-1,9.882814778E-1
1.616808563E1,-3.996265651E-1,1.349049130E-1,-9.408088124E-1,1.031029558E0
1.617816663E1,-3.964782049E-1,1.109681663E-1,-9.837145114E-1,1.066397272E0
1.618824763E1,-3.466093491E-1,1.046183825E-1,-1.098833908E0,1.156943821E0
1.619832863E1,-3.360825337E-1,4.981886208E-2,-1.120477377E0,1.170855645E0
1.620840963E1,-3.228625638E-1,8.625987947E-2,-1.143877934E0,1.191695318E0
1.621849063E1,-2.375202587E-1,1.584165671E-1,-1.185985488E0,1.219866083E0
1.622857163E1,-1.268824600E-1,1.263323101E-1,-1.249784458E0,1.262545129E0
1.623865263E1,-5.432969660E-2,6.589110374E-2,-1.269008934E0,1.271879329E0
1.624873363E1,-6.100721687E-2,-7.220171124E-2,-1.268237101E0,1.271754816E0
1.625881463E1,-1.462685381E-1,-2.879405800E-1,-1.246674324E0,1.287828068E0
1.626889563E1,-2.091327576E-1,-5.000398493E-1,-1.179392753E0,1.297976743E0
1.627897663E1,-2.799675360E-1,-6.221526624E-1,-1.128087528E0,1.318346399E0
1.628905763E1,-3.665772982E-1,-6.195901202E-1,-1.248009828E0,1.440763466E0
1.629913863E1,-4.067943744E-1,-6.304400674E-1,-1.342577432E0,1.538002114E0
1.630921963E1,-3.232713573E-1,-5.891071232E-1,-1.301484370E0,1.464722888E0
