"Time (s)","Linear Acceleration x (m/s^2)","Linear Acceleration y (m/s^2)","Linear Acceleration z (m/s^2)","Absolute acceleration (m/s^2)"
-1.816375006E-3,-5.780289884E-1,-8.779041740E-1,-4.891429782E-1,1.159350725E0
8.263625001E-3,-4.413804357E-1,-9.120785183E-1,-1.068192744E0,1.472324574E0
1.834462500E-2,-2.154272121E-1,-7.315191302E-1,-1.581985829E0,1.756191415E0
2.842562500E-2,1.785125703E-2,-3.686616844E-1,-1.608162060E0,1.649974338E0
3.850662500E-2,2.422589153E-1,-1.347695500E-2,-1.075102984E0,1.102142203E0
4.858762500E-2,3.463025165E-1,1.791072321E-1,-4.043039721E-1,5.616640770E-1
5.866862500E-2,2.944871226E-1,1.639743456E-1,-1.058696866E-1,3.532968185E-1
6.874962500E-2,1.778076884E-1,-5.651333928E-4,-8.852041304E-2,1.986246635E-1
7.883062500E-2,1.293687692E-1,-1.156608492E-1,-2.824427354E-1,3.314930004E-1
8.891062500E-2,2.234577781E-1,-7.152343422E-2,-5.544423437E-1,6.020426004E-1
9.899162500E-2,1.664418706E-1,-4.705049783E-2,-5.154472625E-1,5.436934119E-1
1.090726250E-1,1.855010162E-1,-7.718997091E-2,4.049372256E-2,2.049601429E-1
1.191536250E-1,2.616884089E-1,-1.511543253E-1,-2.602654159E-2,3.033246352E-1
1.292346250E-1,5.578536093E-2,-3.665672117E-1,-2.045344341E-1,4.234593982E-1
1.393156250E-1,-1.639475215E-1,-5.637701145E-1,-5.273855227E-1,7.892091113E-1
1.493966250E-1,-5.500354435E-1,-7.128524789E-1,-1.019617585E0,1.360263822E0
1.594776250E-1,-7.982558875E-1,-7.607923383E-1,-1.589985990E0,1.934960695E0
1.695586250E-1,-6.199850265E-1,-7.288098228E-1,-1.718998371E0,1.967358786E0
1.796386250E-1,-3.175565080E-1,-6.070219687E-1,-1.389755107E0,1.549431206E0
1.897196250E-1,-9.543489173E-2,-3.513686903E-1,-7.661869794E-1,8.482984513E-1
1.998006250E-1,4.358420261E-1,-2.295451681E-1,-6.158427858E-1,7.886137158E-1
2.098816250E-1,7.033932189E-1,-2.192267329E-1,-8.183885819E-1,1.101173125E0
2.199626250E-1,4.473282965E-1,-1.021023256E-1,-5.239192933E-1,6.964329944E-1
2.300436250E-1,8.140394229E-1,6.434568465E-3,1.377861870E0,1.600376493E0
2.401246250E-1,1.121172026E0,-1.815575078E-1,2.485922685E0,2.733093748E0
2.502056250E-1,9.579920981E-1,-3.346417066E-1,2.408183953E0,2.613251592E0
2.602856250E-1,1.042541009E0,-5.006291024E-1,1.507228008E0,1.899804601E0
2.703666250E-1,1.285621312E0,-8.218366119E-1,7.191572392E-1,1.686838673E0
2.804476250E-1,1.604914224E0,-1.100812825E0,1.591489309E-1,1.952656377E0
2.905286250E-1,1.836088865E0,-1.391474773E0,-8.865378803E-1,2.468476003E0
3.006096250E-1,2.178018980E0,-1.475842493E0,-3.357264821E0,4.265337597E0
3.106906250E-1,2.989576990E0,-1.640000734E0,-5.539201289E0,6.504607898E0
3.207716250E-1,2.336026973E0,-1.872087540E0,-7.190236888E0,7.788532614E0
3.308526250E-1,-2.565973113E0,-2.527930251E0,-8.698578206E0,9.414877173E0
3.409326250E-1,-2.414844370E0,-1.972962243E0,-6.965919569E0,7.632043552E0
3.510136250E-1,-1.551999115E0,-2.006512835E0,-4.722541729E0,5.360708478E0
3.610946250E-1,-6.784363523E-1,-2.252944324E0,-5.018521938E0,5.542706600E0
3.711756250E-1,1.165293800E0,-1.893002446E0,-5.049699292E0,5.517320984E0
3.812566250E-1,1.897519420E0,-1.741853091E0,-6.168313746E0,6.684513939E0
3.913376250E-1,1.554178226E0,-1.540700979E0,-7.640373091E0,7.947611618E0
4.014186250E-1,1.101499654E0,-1.468489912E0,-7.967411955E0,8.176149300E0
4.114996250E-1,3.393338048E-1,-1.844826652E0,-6.214499148E0,6.491419911E0
4.215796250E-1,4.631719851E-1,-2.233442544E0,-4.602224157E0,5.136463869E0
4.316606250E-1,7.309691995E-1,-2.547333944E0,-5.679197080E0,6.267097069E0
4.417416250E-1,2.400340497E-1,-3.361157312E0,-3.991542124E0,5.223734617E0
4.518226250E-1,-2.290447927E-1,-4.524671951E0,-2.901505351E-1,4.539747252E0
4.619036250E-1,-2.234098309E-1,-6.190551876E0,5.068577027E-1,6.215283519E0
4.719846250E-1,-1.284062006E0,-7.693482766E0,-2.867765747E0,8.310389442E0
4.820656250E-1,-2.032922516E0,-7.216265768E0,-5.491885035E0,9.293442141E0
4.921466250E-1,-1.779645692E0,-5.902282975E0,-5.838679302E0,8.490833829E0
5.022266250E-1,-1.096189798E0,-5.385686735E0,-5.472340132E0,7.755885520E0
5.123076250E-1,-6.142628682E-1,-5.690718434E0,-4.678741406E0,7.392713731E0
5.223886250E-1,-6.653359580E-1,-6.755915065E0,-3.166367263E0,7.490723726E0
5.324696250E-1,-8.052855563E-1,-7.864381092E0,-1.315760639E0,8.014249861E0
5.425506250E-1,-1.209212383E0,-8.572274839E0,2.055401552E-1,8.659580663E0
5.526316250E-1,-1.036541766E0,-9.217342594E0,1.085350522E0,9.338726309E0
5.627126250E-1,1.233004704E0,-9.150742807E0,2.119092933E0,9.473486654E0
5.727936250E-1,5.140294297E0,-7.679735377E0,4.063457906E0,1.009517960E1
5.828746250E-1,7.542141037E0,-5.980840902E0,5.883390037E0,1.128133980E1
5.929546250E-1,8.085064951E0,-4.872041584E0,6.051408609E0,1.121269863E1
6.030356250E-1,7.701001115E0,-4.701061397E0,5.054464188E0,1.034180858E1
6.131166250E-1,7.193040043E0,-4.064886673E0,3.990500150E0,9.175359403E0
6.231976250E-1,8.100886931E0,-3.409970453E0,4.840280094E0,1.003397125E1
6.332786250E-1,9.005179297E0,-2.639839527E0,6.627615459E0,1.148857230E1
6.433596250E-1,9.009994479E0,-2.231095764E0,8.032183902E0,1.227492432E1
6.534406250E-1,7.997221060E0,-2.291858275E0,7.825271990E0,1.142116635E1
6.635216250E-1,6.420324063E0,-1.958575169E0,6.267601222E0,9.183648667E0
6.736016250E-1,6.200653526E0,-1.879382234E0,4.668897618E0,7.986162201E0
6.836826250E-1,6.304916983E0,-1.141037942E0,3.930383171E0,7.516771755E0
6.937641250E-1,6.348709120E0,-1.058790421E-1,3.674728870E0,7.336276312E0
7.038451250E-1,6.644861822E0,8.192925614E-1,3.301931450E0,7.465130958E0
7.139261250E-1,6.753969696E0,1.660200525E0,2.404626507E0,7.358980981E0
7.240071250E-1,6.150594928E0,2.130313740E0,1.517759428E0,6.683685232E0
7.340881250E-1,5.744088310E0,2.396828660E0,1.074953295E0,6.316238020E0
7.441691250E-1,5.683901750E0,2.797803227E0,5.755139182E-1,6.361262317E0
7.542491250E-1,5.202432073E0,2.992894993E0,6.580269384E-1,6.037857183E0
7.643301250E-1,4.533042533E0,2.696970917E0,1.009191999E0,5.370344050E0
7.744111250E-1,3.912268497E0,2.147725579E0,1.542836967E0,4.722172790E0
7.844921250E-1,3.516235996E0,1.725605140E0,2.116271651E0,4.451992182E0
7.945731250E-1,3.206382099E0,1.454549857E0,2.406296471E0,4.264605979E0
8.046541250E-1,3.371126815E0,1.428979983E0,2.526497684E0,4.448558232E0
8.147351250E-1,3.386362905E0,1.307096527E0,2.253802257E0,4.272654873E0
8.248161250E-1,3.123720888E0,1.171395516E0,1.539216371E0,3.674096716E0
8.348961250E-1,3.028299007E0,1.166118988E0,1.033789482E0,3.405752349E0
8.449771250E-1,2.767994122E0,1.240629473E0,6.401958543E-1,3.100129623E0
8.550581250E-1,3.028321811E0,1.441427536E0,5.097122769E-1,3.392381602E0
8.651391250E-1,3.015372275E0,1.195736890E0,6.265636557E-1,3.303761293E0
8.752201250E-1,2.475909620E0,1.093705316E0,3.303255844E-1,2.726799361E0
8.853011250E-1,2.376929415E0,1.085133297E0,1.366155159E-1,2.616480751E0
8.953821250E-1,2.243235753E0,1.103072555E0,-3.245087743E-2,2.499985753E0
9.054631250E-1,1.947762205E0,1.321461382E0,1.107532811E-1,2.356332761E0
9.155441250E-1,1.733615241E0,1.475464763E0,3.706128637E-1,2.306463086E0
9.256241250E-1,1.369273480E0,1.616349331E0,4.627334074E-1,2.168321293E0
9.357051250E-1,1.198046832E0,1.853874341E0,6.955608004E-1,2.314297109E0
9.457861250E-1,1.106915053E0,1.865446565E0,4.836822269E-1,2.222408675E0
9.558671250E-1,1.130901501E0,1.404226965E0,-2.741829586E-1,1.823723628E0
9.659481250E-1,1.157596379E0,1.128326679E0,-9.459192058E-1,1.872942502E0
9.760291250E-1,1.305139464E0,1.149898227E0,-1.027661526E0,2.020332440E0
9.861101250E-1,1.450431371E0,1.088658584E0,-7.086936468E-1,1.947094081E0
9.961911250E-1,1.587467009E0,9.994979006E-1,-4.157001954E-1,1.921419843E0
1.006271125E0,1.615698244E0,9.765762305E-1,-1.912665536E-1,1.897568139E0
1.016352125E0,1.637688745E0,1.060534061E0,-2.664342284E-2,1.951273121E0
1.026433125E0,1.663859420E0,1.322654214E0,2.650244647E-1,2.141980464E0
1.036514125E0,1.659385423E0,1.691989498E0,6.578222128E-1,2.459495580E0
1.046595125E0,1.628875237E0,1.878154904E0,7.536389277E-1,2.597820627E0
1.056676125E0,1.274304172E0,1.701064961E0,6.938000576E-1,2.235806710E0
1.066757125E0,8.155465427E-1,1.152245300E0,2.597426748E-1,1.435357674E0
1.076838125E0,6.375154907E-1,6.730344021E-1,-3.925289223E-1,1.006717568E0
1.086918125E0,5.561269265E-1,3.671338069E-1,-6.707142270E-1,9.454744655E-1
1.096999125E0,5.746362877E-1,4.057149053E-2,-7.378624821E-1,9.361057373E-1
1.107080125E0,4.896651345E-1,-1.716988099E-1,-6.702569016E-1,8.476418698E-1
1.117161125E0,4.758510876E-1,-3.003241056E-1,-3.715970597E-1,6.743242549E-1
1.127242125E0,4.855188739E-1,-3.094159412E-1,3.114738688E-2,5.765734657E-1
1.137323125E0,4.043799859E-1,-8.866016150E-2,2.665750732E-1,4.923881263E-1
1.147404125E0,2.738023049E-1,3.864670408E-1,1.798567721E-1,5.066289907E-1
1.157485125E0,-2.594731182E-2,8.491858667E-1,-8.454313695E-2,8.537783326E-1
1.167566125E0,-2.213492721E-1,1.400035681E0,-2.545228654E-1,1.440096281E0
1.177646125E0,-5.960385588E-1,2.035956636E0,-5.704035614E-1,2.196757067E0
1.187727125E0,-7.670058820E-1,2.635280453E0,-1.111591364E0,2.961188351E0
1.197808125E0,-1.031005915E0,2.842018118E0,-1.639608970E0,3.439237961E0
1.207889125E0,-1.194330342E0,3.038890361E0,-1.961008195E0,3.808783629E0
1.217970125E0,-1.367136322E0,3.264103473E0,-2.188944941E0,4.161119219E0
1.228051125E0,-1.409038639E0,3.309958507E0,-2.495551879E0,4.378241016E0
1.238132125E0,-1.270806660E0,3.301574770E0,-2.707673661E0,4.454979481E0
1.248213125E0,-9.939053312E-1,3.533456631E0,-2.692806530E0,4.552402726E0
1.258293125E0,-6.242621917E-1,3.628701342E0,-2.419909374E0,4.406034282E0
1.268374125E0,-3.172734296E-1,3.170803546E0,-1.921092178E0,3.720920949E0
1.278455125E0,7.226690769E-2,2.415631551E0,-1.179543099E0,2.689204384E0
1.288536125E0,2.571693152E-1,1.860753590E0,-6.337077838E-1,1.982454422E0
1.298617125E0,3.467591840E-1,1.483183672E0,-2.215685427E-2,1.523340626E0
1.308698125E0,3.991379571E-1,1.011499311E0,4.907813680E-1,1.193024860E0
1.318779125E0,3.850979152E-1,3.811144996E-1,9.515413767E-1,1.094979296E0
1.328860125E0,1.507859507E-1,-3.418533701E-1,1.192140267E0,1.249319233E0
1.338940125E0,2.417481610E-1,-1.044289327E0,7.269796443E-1,1.295176349E0
1.349021125E0,1.719788915E-1,-1.697844899E0,2.606782293E-1,1.726327657E0
1.359102125E0,4.443220237E-1,-2.900538222E0,1.333328891E-1,2.937400500E0
1.369183125E0,1.197848612E0,-4.713593150E0,-4.158196248E-2,4.863592370E0
1.379264125E0,2.398847996E0,-6.653921497E0,9.173535839E-2,7.073723092E0
1.389345125E0,4.383346503E0,-9.114179583E0,8.373387500E-1,1.014806052E1
1.399426125E0,6.374917510E0,-1.226558031E1,1.604022231E0,1.391606701E1
1.409507125E0,7.852945107E0,-1.510101914E1,2.322004765E0,1.717851077E1
1.419588125E0,8.145586556E0,-1.663968822E1,2.506758653E0,1.869528398E1
1.429668125E0,7.383454036E0,-1.693635021E1,2.261932079E0,1.861374999E1
1.439749125E0,6.399178777E0,-1.620153296E1,2.030146843E0,1.753740732E1
1.449830125E0,5.849484957E0,-1.531815082E1,2.327935596E0,1.656144628E1
1.459911125E0,5.886144075E0,-1.486696797E1,2.553535209E0,1.619240472E1
1.469992125E0,5.967221568E0,-1.426151100E1,2.613941039E0,1.567900243E1
1.480073125E0,5.933673168E0,-1.348192630E1,2.466654940E0,1.493503266E1
1.490154125E0,5.574237805E0,-1.287574311E1,1.787325425E0,1.414395348E1
1.500235125E0,4.674473815E0,-1.226025116E1,1.036451134E0,1.316201713E1
1.510315125E0,3.315171593E0,-1.103606991E1,3.830557752E-1,1.152961115E1
1.520396125E0,1.500716549E0,-8.839149363E0,-1.348834976E-1,8.966655183E0
1.530477125E0,-2.719531229E-1,-5.906890581E0,-7.137924919E-1,5.956073754E0
1.540558125E0,-2.189502180E0,-2.999681271E0,-1.092367400E0,3.871081769E0
1.550639125E0,-3.857144749E0,5.210570812E-2,-1.052891093E0,3.998607291E0
1.560720125E0,-5.308792925E0,3.207255088E0,-6.416623360E-1,6.235503033E0
1.570801125E0,-6.314756677E0,5.740074196E0,-3.361727270E-1,8.540352204E0
1.580882125E0,-7.058923042E0,7.677373686E0,-3.755474386E-1,1.043606713E1
1.590963125E0,-7.354034940E0,9.545311750E0,-6.320308024E-1,1.206624503E1
1.601043125E0,-6.837896537E0,1.068309221E1,-1.397884490E0,1.276085300E1
1.611124125E0,-5.999341493E0,1.106170761E1,-2.213358235E0,1.277702736E1
1.621205125E0,-5.105248425E0,1.122534428E1,-2.186438824E0,1.252407403E1
1.631286125E0,-4.065191021E0,1.077053147E1,-1.786691587E0,1.164999541E1
1.641367125E0,-3.409060627E0,9.540017096E0,-1.662338852E0,1.026630367E1
1.651448125E0,-3.114870835E0,8.027054724E0,-1.853970235E0,8.807566832E0
1.661529125E0,-2.985612870E0,6.407808098E0,-1.865673437E0,7.311267072E0
1.671610125E0,-3.116212479E0,5.058737918E0,-1.181485471E0,6.057847592E0
1.681691125E0,-3.431986390E0,4.341299175E0,1.431533609E-1,5.535874095E0
1.691771125E0,-3.477570114E0,3.963390119E0,1.480181712E0,5.476576762E0
1.701852125E0,-3.506035821E0,4.021448877E0,2.744561405E0,5.999746291E0
1.711933125E0,-3.381816695E0,4.674979892E0,3.019646589E0,6.512325750E0
1.722014125E0,-3.054843904E0,5.194383380E0,2.178364989E0,6.407726898E0
1.732095125E0,-2.746925142E0,5.959831272E0,8.559369157E-1,6.617991729E0
1.742176125E0,-2.369735001E0,7.209678880E0,-2.899247595E-1,7.594680368E0
1.752257125E0,-2.080322092E0,8.916650698E0,-1.376643310E0,9.259025137E0
1.762338125E0,-1.789311140E0,1.099309287E1,-1.883464175E0,1.129589140E1
1.772418125E0,-1.666416261E0,1.303065106E1,-2.061653395E0,1.329756462E1
1.782499125E0,-1.445118445E0,1.500392028E1,-2.077016954E0,1.521578097E1
1.792580125E0,-1.788195783E0,1.638273349E1,-1.753268902E0,1.657303692E1
1.802661125E0,-2.476727353E0,1.675350661E1,-1.922041765E0,1.704430716E1
1.812742125E0,-3.002175109E0,1.604866686E1,-2.406309920E0,1.650342664E1
1.822823125E0,-3.219488340E0,1.525326544E1,-2.623506500E0,1.580854193E1
1.832904125E0,-2.800981189E0,1.449507452E1,-1.811888555E0,1.487399144E1
1.842985125E0,-1.755500200E0,1.364390821E1,-4.162523188E-2,1.375644375E1
1.853066125E0,-4.771079466E-1,1.284170998E1,1.167443383E0,1.290349066E1
1.863146125E0,9.838565987E-1,1.206731994E1,1.124606096E0,1.215947874E1
1.873227125E0,1.909697708E0,1.076348441E1,1.764333004E-1,1.093300831E1
1.883308125E0,2.975911170E0,8.804936720E0,-1.622986506E0,9.434884373E0
1.893389125E0,4.887714169E0,5.785173186E0,-3.581818367E0,8.377792156E0
1.903470125E0,7.484557073E0,9.599338853E-1,-3.841794931E0,8.467553125E0
1.913551125E0,9.607134361E0,-5.275029933E0,-2.770863351E0,1.130489518E1
1.923632125E0,1.274766804E1,-1.129614938E1,-1.172292479E0,1.707279418E1
1.933713125E0,1.531227905E1,-1.616613158E1,3.175452082E0,2.249206962E1
1.943794125E0,1.359418933E1,-1.732456089E1,9.187140555E0,2.386097117E1
1.953874125E0,1.122130970E1,-1.751113853E1,1.283157325E1,2.443781978E1
1.963955125E0,5.918130099E0,-1.722646332E1,1.061519551E1,2.108216493E1
1.974036125E0,8.134266347E-2,-1.637793059E1,4.202400321E0,1.690867811E1
1.984117125E0,-1.902762618E0,-1.461984592E1,-2.511063373E0,1.495546186E1
1.994198125E0,1.550593883E-1,-1.095923164E1,-6.486837895E0,1.273608525E1
2.004279125E0,3.615842146E0,-7.308910807E0,-7.552696431E0,1.111475213E1
2.014360125E0,5.975918716E0,-5.589655159E0,-6.268867144E0,1.030798451E1
2.024441125E0,6.253332846E0,-5.806624281E0,-3.602876530E0,9.262924836E0
2.034522125E0,4.464659345E0,-7.239640013E0,-7.653448342E-1,8.539983800E0
2.044602125E0,1.783229451E0,-8.965430510E0,3.890667129E-1,9.149329178E0
2.054683125E0,-7.752045554E-1,-1.024391018E1,5.611936851E-1,1.028851672E1
2.064764125E0,-2.015964713E0,-9.891540592E0,9.877221930E-1,1.014309046E1
2.074845125E0,-1.706787046E0,-8.219111785E0,1.670756503E0,8.559109057E0
2.084926125E0,-6.677148977E-1,-6.147032804E0,2.099215470E0,6.529820907E0
2.095007125E0,5.124125576E-1,-3.956955843E0,2.096240845E0,4.507137878E0
2.105088125E0,1.468148727E0,-1.797469175E0,2.231699051E0,3.219757253E0
2.115169125E0,1.633118853E0,-1.359027404E-1,2.189178244E0,2.734602006E0
2.125250125E0,7.978265557E-1,1.252794020E0,1.387568394E0,2.032576227E0
2.135331125E0,-6.928991479E-1,2.254538421E0,4.772193360E-1,2.406406245E0
2.145411125E0,-1.775291563E0,2.678125926E0,-6.280401508E-1,3.273904861E0
2.155492125E0,-2.234000661E0,3.123738137E0,-1.348214294E0,4.070157329E0
2.165573125E0,-2.305187588E0,3.880264347E0,-1.376371999E0,4.718552861E0
2.175654125E0,-2.174987929E0,4.501412312E0,-8.502640933E-1,5.071117660E0
2.185735125E0,-2.019428896E0,4.981345925E0,-7.444674969E-3,5.375123786E0
2.195816125E0,-1.920659484E0,5.281755400E0,8.990007088E-1,5.691579327E0
2.205897125E0,-1.836726211E0,5.310789165E0,1.783957429E0,5.895807734E0
2.215978125E0,-1.831256726E0,5.152014456E0,2.297915406E0,5.931034426E0
2.226059125E0,-2.049461365E0,4.911859369E0,2.201907633E0,5.759778778E0
2.236139125E0,-2.430726723E0,4.522211443E0,1.688716811E0,5.404682525E0
2.246220125E0,-2.776895338E0,3.988303936E0,1.140515858E0,4.991842588E0
2.256301125E0,-2.823012036E0,3.587077938E0,7.295261067E-1,4.622632738E0
2.266382125E0,-2.565434585E0,3.173192718E0,3.564825189E-1,4.096057424E0
2.276463125E0,-2.261167117E0,2.837160836E0,-3.790925324E-2,3.628194517E0
2.286544125E0,-1.882364607E0,2.588172945E0,-2.643665068E-1,3.211203101E0
2.296625125E0,-1.428916833E0,2.025317627E0,-1.090394622E-1,2.481049055E0
2.306706125E0,-1.185925262E0,1.241093157E0,5.213668375E-1,1.794032979E0
2.316787125E0,-1.236422401E0,4.414308679E-1,1.162987804E0,1.753893440E0
2.326868125E0,-1.181527863E0,-3.719869959E-1,1.631124076E0,2.048157261E0
2.336948125E0,-8.745695069E-1,-1.032480875E0,2.155442149E0,2.544959614E0
2.347029125E0,-4.632085302E-1,-1.445738688E0,2.275004114E0,2.735025817E0
2.357110125E0,-1.088845110E-1,-1.790433805E0,2.033982908E0,2.711935751E0
2.367191125E0,1.481052947E-1,-2.106663507E0,1.906510245E0,2.845126996E0
2.377272125E0,6.144838929E-3,-2.448965358E0,1.392918889E0,2.817391012E0
2.387353125E0,-5.024883708E-1,-2.604455686E0,6.345660820E-1,2.727335347E0
2.397434125E0,-1.059745272E0,-2.511666806E0,-3.172180273E-2,2.726267862E0
2.407515125E0,-1.378538685E0,-2.380549427E0,-4.294097234E-1,2.784201356E0
2.417596125E0,-1.450966684E0,-2.071553900E0,-4.867638923E-1,2.575573522E0
2.427676125E0,-1.398388228E0,-1.591519130E0,-4.291865060E-1,2.161625276E0
2.437757125E0,-1.246704730E0,-1.134179742E0,-3.088639641E-1,1.713485722E0
2.447838125E0,-1.226730933E0,-9.228637075E-1,-4.925507355E-1,1.612188709E0
2.457919125E0,-1.237056532E0,-9.145612460E-1,-6.323250635E-1,1.663299769E0
2.468000125E0,-1.304787754E0,-9.870813382E-1,-6.960825182E-1,1.778013364E0
2.478081125E0,-1.317237938E0,-1.044494564E0,-8.812153061E-1,1.898058243E0
2.488162125E0,-1.054269062E0,-8.548214132E-1,-8.003108914E-1,1.575658728E0
2.498243125E0,-6.846066266E-1,-6.204837209E-1,-7.081435700E-1,1.164110646E0
2.508324125E0,-4.387893882E-1,-5.707847267E-1,-7.291644564E-1,1.024700998E0
2.518405125E0,-3.918605125E-1,-5.880234879E-1,-6.677426720E-1,9.722173417E-1
2.528485125E0,-3.576543009E-1,-6.057762194E-1,-4.422464083E-1,8.309412209E-1
2.538566125E0,-3.461171597E-1,-6.272290689E-1,-1.013193834E-1,7.235184936E-1
2.548647125E0,-5.385218373E-1,-8.084746277E-1,7.734565303E-2,9.744841420E-1
2.558728125E0,-6.536856732E-1,-1.082554091E0,1.766687970E-1,1.276886911E0
2.568809125E0,-6.215216017E-1,-1.169388751E0,3.030737588E-1,1.358533348E0
2.578890125E0,-5.445146486E-1,-9.330594975E-1,1.934103987E-1,1.097498889E0
2.588971125E0,-4.954515392E-1,-4.422015309E-1,-2.446099345E-1,7.077064658E-1
2.599052125E0,-6.397631603E-1,1.757240331E-1,-6.675859666E-1,9.411943795E-1
2.609133125E0,-8.058074203E-1,6.859965098E-1,-7.130610783E-1,1.276077157E0
2.619214125E0,-1.010068497E0,9.572096676E-1,-8.000647236E-1,1.605176713E0
2.629294125E0,-1.102900355E0,1.010514640E0,-1.041147033E0,1.822502722E0
2.639375125E0,-1.031891183E0,8.985527390E-1,-1.401859720E0,1.958930094E0
2.649456125E0,-7.268840423E-1,6.617691565E-1,-1.636825696E0,1.909318513E0
2.659537125E0,-3.363865158E-1,2.892781305E-1,-1.502764243E0,1.566888029E0
2.669618125E0,1.479880580E-1,-3.168688023E-1,-1.141377080E0,1.193753719E0
2.679699125E0,7.317740688E-1,-1.039496364E0,-3.446291164E-1,1.317123839E0
2.689780125E0,1.045358198E0,-1.651422100E0,4.645530975E-1,2.008924661E0
2.699860917E0,8.130477351E-1,-2.058991157E0,8.961900254E-1,2.388231096E0
2.709941917E0,5.362823537E-1,-2.359666681E0,1.216037107E0,2.708204544E0
2.720021917E0,3.330515563E-1,-2.343958721E0,1.347982598E0,2.724357338E0
2.730102917E0,1.549208093E-1,-2.039622840E0,9.874110480E-1,2.271352541E0
2.740183917E0,4.275893390E-2,-1.672027103E0,6.720697577E-1,1.802548396E0
2.750264917E0,6.886324346E-2,-1.241111283E0,5.989971037E-1,1.379817703E0
2.760345917E0,1.612322938E-1,-8.873442113E-1,5.596861267E-1,1.061425533E0
2.770426917E0,1.854005903E-1,-6.004412198E-1,5.091346085E-1,8.087775262E-1
2.780507917E0,1.629010892E-1,-3.803713185E-1,4.744670516E-1,6.295538800E-1
2.790588917E0,1.764344698E-1,-6.631268799E-2,3.512514536E-1,3.986277441E-1
2.800669917E0,1.168589437E-1,3.265453595E-1,1.206694280E-1,3.672179127E-1
2.810750917E0,8.284072012E-2,7.064418840E-1,-2.408569723E-1,7.509559252E-1
2.820830917E0,1.101130110E-1,1.002039101E0,-6.454222418E-1,1.196986677E0
2.830911917E0,1.416850519E-1,1.226707252E0,-7.960551417E-1,1.469213778E0
2.840992917E0,1.841551334E-1,1.414256110E0,-6.878956854E-1,1.583424747E0
2.851073917E0,3.161174351E-1,1.589631649E0,-5.643475270E-1,1.716201370E0
2.861154917E0,4.598162681E-1,1.706716880E0,-5.693194145E-1,1.856997066E0
2.871235917E0,6.372585055E-1,1.750421308E0,-7.821183032E-1,2.020342100E0
2.881316917E0,7.498533672E-1,1.671771580E0,-9.309575696E-1,2.055184246E0
2.891397917E0,9.303534061E-1,1.467389758E0,-7.890694731E-1,1.908250716E0
2.901478917E0,1.010956689E0,1.078006711E0,-5.354125804E-1,1.571877389E0
2.911558917E0,1.070627232E0,6.922033292E-1,-1.649763391E-1,1.285536974E0
2.921639917E0,1.181063887E0,3.528005272E-1,2.035667199E-1,1.249327630E0
2.931720917E0,1.200978626E0,1.744516790E-2,5.604432680E-1,1.325424706E0
2.941801917E0,1.013589398E0,-2.719352889E-1,7.506204488E-1,1.290249328E0
2.951882917E0,8.992421257E-1,-4.201206905E-1,8.929562227E-1,1.335106217E0
2.961963917E0,7.595568216E-1,-3.871067262E-1,9.338399546E-1,1.264450570E0
2.972044917E0,6.216996494E-1,-3.350232375E-1,7.840694460E-1,1.055232638E0
2.982125917E0,5.732668698E-1,-4.076129115E-1,5.444832198E-1,8.895196267E-1
2.992206917E0,5.002012324E-1,-4.221683854E-1,2.709973955E-1,7.084257244E-1
3.002287917E0,4.991083878E-1,-3.234685546E-1,2.107604762E-1,6.310000531E-1
3.012367917E0,6.023240232E-1,-2.060102713E-1,1.643797038E-1,6.574611379E-1
3.022448917E0,6.804048175E-1,-8.468990207E-2,2.479897714E-1,7.291241471E-1
3.032529917E0,6.833316413E-1,1.643014973E-1,2.382803236E-1,7.421014935E-1
3.042610917E0,8.149425253E-1,4.509226531E-1,1.773155721E-1,9.481051475E-1
3.052691917E0,9.846562055E-1,6.788722622E-1,2.044350314E-1,1.213346230E0
3.062772917E0,1.055951014E0,7.607467300E-1,2.278151232E-1,1.321237246E0
3.072853917E0,1.004248763E0,6.583134520E-1,1.547845691E-1,1.210723107E0
3.082934917E0,7.309396711E-1,6.110930926E-1,-1.309911523E-1,9.616996686E-1
3.093015917E0,4.150698656E-1,4.979681808E-1,-5.187801754E-1,8.302940279E-1
3.103095917E0,3.077494848E-1,2.409602487E-1,-6.631612323E-1,7.697755562E-1
3.113176917E0,1.657492679E-1,-6.129811585E-2,-7.321006358E-1,7.531278907E-1
3.123257917E0,-2.249950111E-2,-1.400033927E-1,-8.032517485E-1,8.156718391E-1
3.133338917E0,-7.177194089E-2,-9.563764393E-2,-8.517534522E-1,8.601056410E-1
3.143419917E0,-2.343856394E-3,-7.490224779E-2,-7.768073503E-1,7.804136723E-1
3.153500917E0,7.502854764E-2,-7.295395553E-2,-8.368015371E-1,8.433198533E-1
3.163581917E0,6.456583232E-2,-4.712855816E-2,-8.825939333E-1,8.862064651E-1
3.173662917E0,8.547927618E-2,1.156351215E-1,-9.440119171E-1,9.549014020E-1
3.183743917E0,1.085328010E-1,2.287489235E-1,-9.982361446E-1,1.029845056E0
3.193824917E0,1.833160579E-1,2.865720391E-1,-1.053667091E0,1.107222945E0
3.203904917E0,2.325917137E-1,3.349975097E-1,-1.080130274E0,1.154557770E0
3.213985917E0,3.234065741E-1,4.713744593E-1,-9.530183834E-1,1.111318916E0
3.224066917E0,4.751991230E-1,5.845461488E-1,-8.078945839E-1,1.104627569E0
3.234147917E0,5.600632721E-1,5.647948390E-1,-6.219981498E-1,1.009725595E0
3.244228917E0,5.169418108E-1,2.868293166E-1,-3.750966183E-1,7.001409613E-1
3.254309917E0,3.220529437E-1,1.442063713E-1,-1.246437804E-1,3.742320778E-1
3.264390917E0,2.266702384E-1,2.006279093E-1,-1.411590949E-2,3.030350043E-1
3.274471917E0,2.138449556E-1,2.723872787E-1,-1.246936280E-1,3.680665639E-1
3.284552917E0,1.890855056E-1,3.814758575E-1,-2.421122964E-1,4.897913049E-1
3.294633917E0,1.357372642E-1,3.008673120E-1,-2.299984735E-1,4.022996919E-1
3.304713917E0,1.196714544E-1,2.035491782E-1,-2.872305818E-1,3.718264811E-1
3.314794917E0,2.320593247E-1,2.030223441E-1,-4.771415681E-1,5.680965396E-1
3.324875917E0,3.457183796E-1,4.054611361E-1,-6.808807808E-1,8.645915617E-1
3.334956917E0,3.469673449E-1,6.176437283E-1,-8.365434556E-1,1.096209408E0
3.345037917E0,1.885232958E-1,7.352066767E-1,-8.341006351E-1,1.127738338E0
3.355118917E0,-9.296605110E-2,7.245097804E-1,-7.766464788E-1,1.066178626E0
3.365199917E0,-3.592321721E-1,7.577979791E-1,-7.998137319E-1,1.158882020E0
3.375280917E0,-4.899639273E-1,7.678879344E-1,-8.141692311E-1,1.221715215E0
3.385361917E0,-6.034867421E-1,7.821978253E-1,-7.925131908E-1,1.266533396E0
3.395441917E0,-7.179120746E-1,7.784737337E-1,-6.151319106E-1,1.224665819E0
3.405522917E0,-8.013328385E-1,8.443823791E-1,-6.022380692E-1,1.310651217E0
3.415603917E0,-1.061578374E0,9.241512644E-1,-6.999415344E-1,1.571916777E0
3.425684917E0,-1.387791319E0,1.094728578E0,-9.197562048E-1,1.992572930E0
3.435765917E0,-1.748493481E0,1.397620781E0,-1.178453251E0,2.529688789E0
3.445846917E0,-2.103581732E0,1.515387213E0,-1.411683481E0,2.952000128E0
3.455927917E0,-2.229394809E0,1.640618784E0,-1.458122506E0,3.128570353E0
3.466008917E0,-2.105495233E0,1.886511160E0,-1.252285166E0,3.091965826E0
3.476089917E0,-1.813198185E0,2.179170735E0,-9.953569025E-1,3.004531263E0
3.486170917E0,-1.524487527E0,2.393227360E0,-8.371641375E-1,2.958452840E0
3.496250917E0,-1.348263557E0,2.611096369E0,-6.350334938E-1,3.006477408E0
3.506331917E0,-1.245685268E0,2.777868315E0,-3.721854358E-1,3.067051705E0
3.516412917E0,-1.222711850E0,2.768160768E0,-1.755088556E-1,3.031260738E0
3.526493917E0,-1.201644039E0,2.732846509E0,-5.878271677E-2,2.985942706E0
3.536574917E0,-1.055586732E0,2.520173335E0,-1.169291834E-1,2.734814330E0
3.546655917E0,-8.293000710E-1,2.203771725E0,-2.201546860E-1,2.364913637E0
3.556736917E0,-5.469254556E-1,1.727768025E0,-2.370135243E-1,1.827699432E0
3.566817917E0,-2.449930733E-1,1.179810829E0,-2.354252744E-1,1.227762297E0
3.576898917E0,-4.500338763E-2,9.150038803E-1,-3.258688366E-1,9.723414547E-1
3.586979917E0,6.209070593E-2,9.147296458E-1,-3.730419798E-1,9.898211452E-1
3.597059917E0,2.555338490E-1,8.025163150E-1,-1.254980586E-1,8.515161458E-1
3.607140917E0,4.698465818E-1,3.415463912E-1,6.018239401E-1,8.364220243E-1
3.617221917E0,5.513930207E-1,-3.370826268E-1,1.502923872E0,1.635982618E0
3.627302917E0,8.087014997E-1,-1.032949821E0,2.397565263E0,2.733002495E0
3.637383917E0,1.198160561E0,-1.556581432E0,3.014188798E0,3.597758829E0
3.647464917E0,1.593993672E0,-1.895374369E0,2.877492591E0,3.796475133E0
3.657545917E0,1.884478960E0,-2.308079621E0,2.346195281E0,3.792509035E0
3.667626917E0,1.998048552E0,-2.640017867E0,1.568515599E0,3.663623007E0
3.677707917E0,2.202761619E0,-2.947776123E0,6.128167056E-1,3.730561236E0
3.687788917E0,2.696362514E0,-3.508852133E0,9.688353941E-2,4.426262590E0
3.697869042E0,3.671957290E0,-4.389899477E0,1.295544183E-1,5.724619822E0
3.707950042E0,4.978697137E0,-5.633857770E0,9.599373937E-2,7.519108547E0
3.718031042E0,6.178327687E0,-7.576109852E0,8.682369724E-2,9.776334275E0
3.728112042E0,7.149435017E0,-1.007018239E1,4.455114935E-1,1.235805304E1
3.738193042E0,7.566148535E0,-1.235581455E1,1.139270109E0,1.453308959E1
3.748274042E0,7.269340945E0,-1.374256009E1,2.001669733E0,1.567507440E1
3.758355042E0,6.579013987E0,-1.425105150E1,2.576166272E0,1.590636749E1
3.768436042E0,6.033387491E0,-1.424903305E1,2.320029575E0,1.564670076E1
3.778517042E0,6.013346159E0,-1.374626606E1,1.899207219E0,1.512372806E1
3.788597042E0,6.336686075E0,-1.297708355E1,1.344424713E0,1.450399137E1
3.798678042E0,6.761650599E0,-1.209750093E1,4.469868922E-1,1.386611859E1
3.808759042E0,7.078933969E0,-1.121293415E1,-3.776340906E-1,1.326588881E1
3.818840042E0,6.942124325E0,-1.026769548E1,-8.387759225E-1,1.242264890E1
3.828921042E0,6.070357681E0,-8.921976342E0,-7.517133665E-1,1.081739235E1
3.839002042E0,4.621515291E0,-7.432020425E0,-3.261759616E-2,8.751822386E0
3.849083042E0,2.591678935E0,-5.704134285E0,9.231098753E-1,6.332936088E0
3.859164042E0,-8.658089161E-2,-3.722404143E0,2.014061152E0,4.233229403E0
3.869245042E0,-3.221077321E0,-1.413601221E0,2.965231231E0,4.600674274E0
3.879326042E0,-5.734129332E0,1.416466942E0,3.224694409E0,6.729433247E0
3.889406042E0,-7.241393593E0,3.961181041E0,2.714928301E0,8.689048975E0
3.899487042E0,-8.103248622E0,5.529817092E0,1.396872922E0,9.909226471E0
3.909568042E0,-8.844304853E0,6.557026702E0,-7.549967243E-1,1.103568519E1
3.919649042E0,-9.594368135E0,7.419390439E0,-2.596481838E0,1.240326458E1
3.929730042E0,-9.947033007E0,7.991205445E0,-3.791076182E0,1.331071331E1
3.939811042E0,-9.716147511E0,8.433755470E0,-4.413259689E0,1.360178719E1
3.949892042E0,-9.175412795E0,8.690569274E0,-4.436271406E0,1.339383060E1
3.959973042E0,-8.442778893E0,8.601585762E0,-3.873564023E0,1.265986932E1
3.970054042E0,-7.606693713E0,8.227568028E0,-2.921989317E0,1.157983966E1
3.980134042E0,-6.692653454E0,7.601565705E0,-2.006496171E0,1.032479725E1
3.990215042E0,-5.688261434E0,6.977920979E0,-9.735276385E-1,9.055134201E0
4.000296042E0,-4.795105967E0,6.603317354E0,-7.440998532E-2,8.161028009E0
4.010377042E0,-4.128686228E0,6.402131621E0,3.609269875E-1,7.626506903E0
4.020458042E0,-3.598332074E0,6.483095677E0,3.599705292E-1,7.423483148E0
4.030539042E0,-3.169012544E0,6.605747457E0,2.677861047E-1,7.331456156E0
4.040620042E0,-2.914002313E0,6.812648259E0,3.960985744E-1,7.420274918E0
4.050701042E0,-2.933521196E0,7.116571911E0,6.100600357E-1,7.721613537E0
4.060782042E0,-2.999571051E0,7.542509412E0,9.211678688E-1,8.169175292E0
4.070863042E0,-3.154128748E0,7.948386285E0,1.272844707E0,8.645548354E0
4.080943042E0,-3.503498130E0,8.383538412E0,1.466725515E0,9.203776355E0
4.091024042E0,-4.070604081E0,9.143287023E0,1.545847698E0,1.012714966E1
4.101105042E0,-4.407994856E0,1.033266156E1,1.573903223E0,1.134334540E1
4.111186042E0,-4.620701066E0,1.176697186E1,1.225998424E0,1.270100694E1
4.121267042E0,-4.890149242E0,1.317273372E1,6.886054643E-1,1.406800095E1
4.131348042E0,-4.838142936E0,1.388500411E1,3.722571373E-1,1.470848536E1
4.141429042E0,-4.614465010E0,1.374381958E1,1.662778562E-1,1.449874175E1
4.151510042E0,-4.587760777E0,1.312201965E1,-3.590425030E-1,1.390553344E1
4.161591042E0,-4.303867639E0,1.186509048E1,-1.121337064E0,1.267126851E1
4.171671042E0,-3.716728250E0,9.233904832E0,-2.331059178E0,1.022315530E1
4.181752042E0,-2.927783908E0,5.432671452E0,-3.658542023E0,7.174313029E0
4.191833042E0,-1.849796492E0,1.012540700E0,-3.893819363E0,4.428184161E0
4.201914042E0,-7.133363360E-1,-3.094144210E0,-2.918620736E0,4.312878867E0
4.211995042E0,2.902303496E-1,-6.024081062E0,-1.288497119E0,6.167172052E0
4.222076042E0,1.882215795E0,-7.712197949E0,3.466165119E-1,7.946123363E0
4.232157042E0,3.991986512E0,-9.066199086E0,2.072945684E0,1.012072260E1
4.242238042E0,5.512384204E0,-1.015790465E1,3.889868399E0,1.219428074E1
4.252319042E0,4.965975350E0,-9.966210705E0,5.270556813E0,1.231929528E1
4.262399042E0,2.750565326E0,-8.172176185E0,5.165085906E0,1.005127781E1
4.272480042E0,6.026295403E-1,-5.901895305E0,3.866375456E0,7.081270346E0
4.282561042E0,-3.445474747E-1,-4.415224353E0,1.760112337E0,4.765596971E0
4.292642042E0,6.282076004E-1,-4.783206006E0,-1.235114525E0,4.979880759E0
4.302723042E0,2.578871194E0,-6.639694052E0,-3.895810339E0,8.118709993E0
4.312804042E0,5.326394799E0,-8.245130140E0,-5.529038243E0,1.126600712E1
4.322885042E0,8.577758358E0,-9.538886830E0,-5.678687788E0,1.402910530E1
4.332966042E0,1.100497558E1,-9.891542931E0,-4.080215149E0,1.534927571E1
4.343047042E0,1.109308844E1,-8.536007484E0,-1.711833193E0,1.410143283E1
4.353128042E0,1.061452893E1,-6.642006626E0,5.546165907E-1,1.253363778E1
4.363208042E0,1.047004657E1,-5.698375363E0,3.490790083E0,1.242090867E1
4.373289042E0,7.546640469E0,-3.835388721E0,4.909122287E0,9.785779001E0
4.383370042E0,5.502198939E0,-2.788429556E0,5.297196727E0,8.130794901E0
4.393451042E0,3.821120638E0,-3.131802617E0,5.156785784E0,7.141539763E0
4.403532042E0,2.490224481E0,-3.943857495E0,3.921110657E0,6.093466886E0
4.413613042E0,1.502330088E0,-4.394965505E0,2.113146899E0,5.102754874E0
4.423694042E0,9.180868247E-1,-4.309492076E0,7.843694081E-1,4.475471008E0
4.433775042E0,9.852654853E-1,-4.015034482E0,-3.925903181E-1,4.152755365E0
4.443856042E0,1.217628281E0,-3.164518958E0,-1.111539470E0,3.568237500E0
4.453936042E0,1.384570673E0,-1.788182627E0,-1.262814978E0,2.590238353E0
4.464017042E0,1.219085407E0,-3.343765354E-1,-7.708711839E-1,1.480614493E0
4.474098042E0,6.285710049E-1,1.045740021E0,-1.182329663E-1,1.225827367E0
4.484179042E0,9.126304954E-2,2.417529557E0,2.478049994E-1,2.431909830E0
4.494260042E0,-2.785710016E-1,3.557919627E0,4.222712233E-1,3.593703781E0
4.504341042E0,-5.174399936E-1,4.355372254E0,4.122756274E-1,4.405335720E0
4.514422042E0,-7.366298890E-1,4.750818864E0,-4.570424952E-2,4.807805356E0
4.524503042E0,-9.859554568E-1,4.714193074E0,-9.343944899E-1,4.905998121E0
4.534584042E0,-1.081019781E0,4.678585870E0,-1.764919479E0,5.115927118E0
4.544665042E0,-1.167284338E0,4.769615908E0,-2.152456415E0,5.361423062E0
4.554745042E0,-1.080454063E0,4.838466872E0,-2.255195648E0,5.446471341E0
4.564826042E0,-7.042851385E-1,4.818600372E0,-2.178523302E0,5.334874964E0
4.574907042E0,-6.089889720E-1,4.538190129E0,-2.163521247E0,5.064273038E0
4.584988042E0,-5.962902814E-1,4.034351928E0,-2.103472681E0,4.588698606E0
4.595069042E0,-5.341764790E-1,3.149899165E0,-1.969029990E0,3.752903991E0
4.605150042E0,-4.710028687E-1,1.998484755E0,-1.678506403E0,2.652012210E0
4.615231042E0,-4.650901642E-1,1.024954339E0,-1.262150150E0,1.691113023E0
4.625312042E0,-5.575282118E-1,2.783993858E-1,-1.064450599E0,1.233450041E0
4.635393042E0,-7.066301644E-1,-2.523962331E-1,-8.602143732E-1,1.141489735E0
4.645473042E0,-8.563235629E-1,-6.325997365E-1,-6.305134499E-1,1.237343801E0
4.655554042E0,-6.766362870E-1,-9.513829172E-1,-4.770006502E-1,1.261148580E0
4.665635042E0,-3.021800119E-1,-1.346342454E0,-7.009723985E-1,1.547679898E0
4.675716042E0,6.977862507E-2,-1.780342680E0,-7.756430966E-1,1.943221894E0
4.685797042E0,4.365232998E-1,-2.156229184E0,-4.749033270E-1,2.250646586E0
4.695878042E0,8.821890137E-1,-2.616352431E0,-1.255800658E-1,2.763933402E0
4.705958500E0,1.333240598E0,-3.186275278E0,1.955519414E-1,3.459497247E0
4.716039500E0,1.374507615E0,-3.519700472E0,4.200574674E-1,3.801843089E0
4.726120500E0,1.014425842E0,-3.392705380E0,6.543653389E-1,3.601069783E0
4.736200500E0,3.160241720E-1,-2.846060883E0,7.661442947E-1,2.964272408E0
4.746281500E0,-3.500815719E-1,-2.101235536E0,6.368055656E-1,2.223346400E0
4.756362500E0,-7.151571590E-1,-1.176438739E0,5.130159903E-1,1.469232206E0
4.766443500E0,-7.983428648E-1,-1.463213092E-1,3.346121051E-1,8.779103122E-1
4.776524500E0,-8.266515747E-1,7.773060447E-1,2.166234794E-1,1.155198357E0
4.786605500E0,-6.823814687E-1,1.532879158E0,-5.194315553E-2,1.678708156E0
4.796686500E0,-4.678939041E-1,2.037605551E0,-3.404302309E-1,2.118172285E0
4.806767500E0,-2.090049228E-1,2.412172923E0,-5.928380853E-1,2.492733091E0
4.816848500E0,3.111537337E-2,2.750043755E0,-8.219852042E-1,2.870430019E0
4.826928500E0,2.626896715E-1,2.958899281E0,-9.007483685E-1,3.104100263E0
4.837009500E0,5.189284024E-1,2.939510499E0,-8.650020003E-1,3.107770442E0
4.847090500E0,7.735135406E-1,2.658897357E0,-7.511672366E-1,2.869200336E0
4.857171500E0,1.027866837E0,2.202905168E0,-5.777440828E-1,2.498617545E0
4.867252500E0,1.130277895E0,1.589439860E0,-3.724588662E-1,1.985591296E0
4.877333500E0,1.121834808E0,1.028075582E0,-1.651061473E-1,1.530592297E0
4.887414500E0,1.198505546E0,3.859583330E-1,1.096101505E-1,1.263880439E0
4.897495500E0,1.168097101E0,-5.506451619E-1,3.073742397E-1,1.327456160E0
4.907576500E0,9.489381963E-1,-1.274349196E0,4.739418255E-1,1.658032095E0
4.917657500E0,5.329570422E-1,-1.547931646E0,6.077618607E-1,1.746284647E0
4.927737500E0,1.882522774E-1,-1.538065054E0,7.102144345E-1,1.704549082E0
4.937818500E0,-1.052229846E-1,-1.546014928E0,8.653925943E-1,1.774862918E0
4.947899500E0,-5.066197211E-1,-1.656707983E0,9.478476906E-1,1.974781033E0
4.957980500E0,-9.403644240E-1,-1.543531616E0,8.977393913E-1,2.018095913E0
4.968061500E0,-1.270231587E0,-1.233857812E0,6.154182049E-1,1.874735435E0
4.978142500E0,-1.467223113E0,-9.561805576E-1,2.507215905E-1,1.769148450E0
4.988223500E0,-1.556490215E0,-7.092473781E-1,-1.814576666E-1,1.720064103E0
4.998304500E0,-1.468069789E0,-4.063230157E-1,-6.105171418E-1,1.641054076E0
5.008385500E0,-1.299946552E0,-1.121694767E-1,-9.740701139E-1,1.628267673E0
5.018465500E0,-1.029041542E0,2.406895226E-1,-1.172529437E0,1.578506643E0
5.028546500E0,-7.256289375E-1,5.729517049E-1,-1.190756305E0,1.507551521E0
5.038627500E0,-4.367267829E-1,7.949231207E-1,-1.094262555E0,1.421282375E0
5.048708500E0,-2.016593581E-1,8.511312354E-1,-8.819986868E-1,1.242180567E0
5.058789500E0,-3.862202883E-2,8.036313790E-1,-5.599755639E-1,9.802487881E-1
5.068870500E0,8.510973215E-2,6.974786872E-1,-1.975848721E-1,7.299040808E-1
5.078951500E0,1.721671718E-1,4.251960737E-1,1.134967947E-1,4.725619097E-1
5.089032500E0,1.373288763E-1,3.828815281E-2,3.495032823E-1,3.774622461E-1
5.099113500E0,1.611492634E-3,-3.149006295E-1,3.559586084E-1,4.752594389E-1
5.109193500E0,-2.108453339E-1,-6.634040380E-1,3.137599108E-1,7.635482657E-1
5.119274500E0,-4.034520328E-1,-9.345312417E-1,3.230703592E-1,1.067940374E0
5.129355500E0,-4.950656229E-1,-1.016118611E0,4.038641884E-1,1.200288834E0
5.139436500E0,-4.152487904E-1,-8.430457056E-1,5.267177707E-1,1.077306470E0
5.149517500E0,-1.988503557E-1,-4.367764843E-1,5.450400940E-1,7.262119975E-1
5.159598500E0,-1.499752343E-2,-2.799763799E-2,4.258514734E-1,4.270342736E-1
5.169679500E0,1.031051230E-1,3.396179795E-1,4.336738785E-1,5.603963520E-1
5.179760500E0,1.325019997E-1,5.736644804E-1,3.996441798E-1,7.115920085E-1
5.189841500E0,9.560899258E-2,6.703008288E-1,2.517967473E-1,7.223890105E-1
5.199921500E0,2.774620771E-2,6.068579543E-1,6.224361062E-2,6.106723309E-1
5.210002500E0,1.690488517E-2,5.656918019E-1,-1.423797011E-2,5.661234050E-1
5.220083500E0,1.268793172E-1,6.393895233E-1,-4.425903708E-3,6.518718526E-1
5.230164500E0,2.164744484E-1,6.423973310E-1,-4.478967190E-2,6.793685542E-1
5.240245500E0,2.413180983E-1,5.098415369E-1,-1.757895950E-1,5.908255233E-1
5.250326500E0,3.341420621E-1,3.524958873E-1,-1.873656933E-1,5.205863725E-1
5.260407500E0,3.842532849E-1,1.603207129E-1,-1.563384667E-2,4.166506152E-1
5.270488500E0,3.818851626E-1,4.058844745E-2,1.864600327E-1,4.269087060E-1
5.280569500E0,3.454874146E-1,-4.600823164E-2,3.334906822E-1,4.823840235E-1
5.290650500E0,2.321368003E-1,-1.172863752E-1,4.724936163E-1,5.393457197E-1
5.300730500E0,1.683337373E-1,-6.479708970E-2,5.769984897E-1,6.045346699E-1
5.310811500E0,1.051668513E-1,8.125349343E-2,6.886481490E-1,7.013547390E-1
5.320892500E0,9.496404469E-2,1.879447138E-1,6.909328754E-1,7.223085377E-1
5.330973500E0,9.059442043E-2,1.984521604E-1,5.864418161E-1,6.257032944E-1
5.341054500E0,1.008089215E-1,2.154751593E-1,4.710750818E-1,5.277345125E-1
5.351135500E0,-9.912784696E-3,1.857321274E-1,2.235811543E-1,2.908319429E-1
5.361216500E0,-1.069227701E-1,1.666631877E-1,-4.028804675E-3,1.980538517E-1
5.371297500E0,-6.543794453E-2,2.277344316E-1,-5.842362463E-2,2.440459298E-1
5.381378500E0,1.866957486E-2,3.428269315E-1,-1.334625511E-1,3.683627431E-1
5.391458500E0,5.084095538E-2,4.340844262E-1,-1.959827350E-1,4.789815489E-1
5.401539500E0,1.025437903E-1,4.821824527E-1,-3.458863409E-1,6.022063661E-1
5.411620500E0,1.521860665E-1,5.259810215E-1,-3.569608942E-1,6.536342355E-1
5.421701500E0,2.497234708E-1,5.008876956E-1,-2.698548496E-1,6.213468719E-1
5.431782500E0,3.755415183E-1,4.892938364E-1,-3.884524629E-2,6.180200995E-1
5.441863500E0,4.683684057E-1,5.458030826E-1,1.848567262E-1,7.425913934E-1
5.451944500E0,5.873551512E-1,4.937061453E-1,1.374541529E-1,7.795033519E-1
5.462025500E0,5.690469342E-1,3.699492413E-1,-1.298532841E-1,6.910417715E-1
5.472106500E0,5.039153838E-1,2.236507362E-1,-3.279739074E-1,6.414961027E-1
5.482187500E0,4.904293656E-1,3.308705449E-2,-4.548538093E-1,6.697071775E-1
5.492267500E0,4.557869518E-1,-8.033898890E-2,-5.270610023E-1,7.014195596E-1
5.502348500E0,4.450637430E-1,-8.773805559E-2,-5.752734880E-1,7.326112801E-1
5.512429500E0,4.326284695E-1,-8.400110006E-3,-4.710920388E-1,6.396605845E-1
5.522510500E0,3.369650978E-1,5.592452466E-2,-2.942162503E-1,4.508172929E-1
5.532591500E0,2.613807723E-1,9.695385218E-2,-8.856602132E-2,2.925130727E-1
5.542672500E0,2.305522048E-1,1.747305912E-1,4.051828086E-2,2.921075654E-1
5.552753500E0,2.375706178E-1,2.623236358E-1,1.743528610E-1,3.945280833E-1
5.562834500E0,3.631120920E-1,3.604141867E-1,2.897733897E-1,5.879773760E-1
5.572915500E0,4.282372105E-1,4.285646546E-1,2.076207407E-1,6.404382434E-1
5.582995500E0,3.908238012E-1,3.952659309E-1,2.950505018E-2,5.566407708E-1
5.593076500E0,4.293303475E-1,3.919745332E-1,2.791387662E-3,5.813573546E-1
5.603157500E0,3.554905388E-1,4.359181130E-1,1.580958474E-1,5.842879610E-1
5.613238500E0,2.333112136E-1,5.271370161E-1,2.843430805E-1,6.427740999E-1
5.623319500E0,1.264594871E-1,6.336703616E-1,2.034024131E-1,6.774235534E-1
5.633400500E0,7.863101721E-2,8.343830556E-1,-2.014424264E-2,8.383219613E-1
5.643481500E0,1.355296880E-2,9.246359986E-1,-1.576082627E-1,9.380702412E-1
5.653562500E0,-4.997615218E-3,9.016225272E-1,-3.010088146E-1,9.505548192E-1
5.663643500E0,-1.217922395E-1,9.137964302E-1,-3.497493039E-1,9.859928200E-1
5.673723500E0,-2.515843472E-1,9.923666364E-1,-2.444838540E-1,1.052548612E0
5.683804500E0,-4.548546132E-1,1.120941061E0,-8.545135573E-2,1.212725656E0
5.693885500E0,-6.535389081E-1,1.201101710E0,1.323258524E-1,1.373778932E0
5.703967375E0,-8.529377326E-1,1.433070695E0,2.531797600E-1,1.686800043E0
5.714048375E0,-1.035280229E0,2.006090813E0,2.889631118E-1,2.275896567E0
5.724129375E0,-1.218405083E0,2.572079653E0,2.638859387E-1,2.858275787E0
5.734210375E0,-1.308524417E0,2.965448747E0,1.631876028E-1,3.245420253E0
5.744291375E0,-1.462397990E0,3.204007545E0,-3.913015187E-2,3.522187303E0
5.754372375E0,-1.677411219E0,3.323197188E0,-2.701407784E-1,3.732334925E0
5.764453375E0,-1.885970584E0,3.308918288E0,-5.179989874E-1,3.843715420E0
5.774533375E0,-2.015862095E0,3.316360039E0,-4.760955012E-1,3.910065322E0
5.784614375E0,-2.055070892E0,3.490708807E0,-4.986597602E-1,4.081301986E0
5.794695375E0,-1.997020904E0,3.774733799E0,-5.667853043E-1,4.307894303E0
5.804776375E0,-1.743935869E0,3.742555987E0,-8.818640547E-1,4.222051852E0
5.814857375E0,-1.469164096E0,3.475809517E0,-1.256449699E0,3.977230291E0
5.824938375E0,-1.204852114E0,3.244739249E0,-1.403987960E0,3.735128325E0
5.835019375E0,-9.251373973E-1,3.065232067E0,-1.077578256E0,3.378269043E0
5.845100375E0,-7.004028797E-1,2.654328927E0,-8.383872288E-1,2.870351789E0
5.855181375E0,-6.526241112E-1,1.791319658E0,-6.989779133E-1,2.030594610E0
5.865261375E0,-7.700245070E-1,6.133559650E-1,-4.210099058E-1,1.070697260E0
5.875342375E0,-9.788434884E-1,-5.779358715E-1,-2.175054587E-2,1.136933390E0
5.885423375E0,-1.110330119E0,-1.380459788E0,6.988597995E-1,1.904444071E0
5.895504375E0,-6.055157259E-1,-1.722977986E0,1.725204606E0,2.512296433E0
5.905585375E0,7.009323451E-1,-1.760524127E0,2.562946887E0,3.187388916E0
5.915666375E0,2.517515483E0,-1.664811054E0,2.496531873E0,3.916905851E0
5.925747375E0,4.438971065E0,-1.591006329E0,1.494172930E0,4.946546068E0
5.935828375E0,5.862800821E0,-2.199175814E0,-1.351894531E-1,6.263152873E0
5.945909375E0,6.491428544E0,-3.373586739E0,-2.081592985E0,7.606100274E0
5.955990375E0,7.481897174E0,-4.477096666E0,-3.211983147E0,9.291932824E0
5.966070375E0,8.520021197E0,-6.138238592E0,-3.383695405E0,1.103259393E1
5.976151375E0,9.222637832E0,-8.297515930E0,-2.898072451E0,1.273988395E1
5.986232375E0,9.521501303E0,-1.051790369E1,-1.496988364E0,1.426626297E1
5.996313375E0,9.627676799E0,-1.266265888E1,7.823270488E-1,1.592630296E1
6.006394375E0,1.006443106E1,-1.487388756E1,2.386358635E0,1.811684331E1
6.016475375E0,1.016406294E1,-1.639024015E1,3.285039428E0,1.956373256E1
6.026556375E0,9.804757386E0,-1.695498529E1,4.160643016E0,2.002288051E1
6.036637375E0,9.199976948E0,-1.704976514E1,5.174567167E0,2.005268592E1
6.046718375E0,8.673555046E0,-1.673463063E1,5.988519466E0,1.977727951E1
6.056799375E0,8.196519313E0,-1.570288475E1,5.778468184E0,1.863207484E1
6.066879375E0,8.179413283E0,-1.380400146E1,5.158783193E0,1.685426658E1
6.076960375E0,7.679827763E0,-1.141744870E1,4.454044018E0,1.446293184E1
6.087041375E0,6.844891561E0,-9.383374867E0,3.637330663E0,1.217088488E1
6.097122375E0,5.102441761E0,-8.103996481E0,2.474563299E0,9.891063361E0
6.107203375E0,2.407975792E0,-6.972269645E0,1.398250526E0,7.507729081E0
6.117284375E0,-7.972842264E-1,-5.171887388E0,1.476837105E0,5.437382562E0
6.127365375E0,-3.826625499E0,-2.790954384E0,2.521456214E0,5.365652851E0
6.137446375E0,-6.428678564E0,-3.850637090E-1,3.438853945E0,7.300814927E0
6.147527375E0,-8.761627563E0,1.963509634E0,3.996854904E0,9.828343541E0
6.157607375E0,-1.071428126E1,4.280829610E0,4.049578078E0,1.222785376E1
6.167688375E0,-1.170668941E1,6.027079514E0,2.171244103E0,1.334490784E1
6.177769375E0,-1.165273832E1,7.376825048E0,-8.681074566E-1,1.381873615E1
6.187850375E0,-1.054840510E1,8.480260130E0,-3.654341968E0,1.401919674E1
6.197931375E0,-9.065340714E0,9.520912489E0,-5.431112584E0,1.422410492E1
6.208012375E0,-7.614529567E0,1.036242155E1,-6.010272862E0,1.419451375E1
6.218093375E0,-6.530917715E0,1.067126914E1,-6.010213805E0,1.387989702E1
6.228174375E0,-5.775567380E0,1.013283647E1,-6.146414169E0,1.318370057E1
6.238255375E0,-5.286658291E0,9.042689770E0,-6.146257464E0,1.214477151E1
6.248336375E0,-4.810333871E0,7.506520384E0,-5.296869868E0,1.037034188E1
6.258416375E0,-4.408412932E0,6.201165158E0,-3.814652740E0,8.511176735E0
6.268497375E0,-4.392982422E0,5.846982933E0,-2.231517348E0,7.646252262E0
6.278578375E0,-4.391628791E0,5.909979665E0,-9.112746723E-1,7.419210511E0
6.288659375E0,-4.541829436E0,5.694123852E0,4.173494026E-2,7.283749232E0
6.298740375E0,-4.702609740E0,5.519092129E0,8.628829694E-1,7.302019126E0
6.308821375E0,-4.726183375E0,5.506704218E0,8.612950118E-1,7.307696609E0
6.318902375E0,-4.441460517E0,5.567494796E0,-2.950094251E-1,7.128155469E0
6.328983375E0,-4.037550940E0,6.267954978E0,-2.219573826E0,7.779176381E0
6.339064375E0,-3.856158031E0,7.256968821E0,-4.039442514E0,9.156999894E0
6.349145375E0,-3.672475938E0,7.841962282E0,-4.203773248E0,9.625755111E0
6.359225375E0,-3.638973731E0,8.104474783E0,-2.690589266E0,9.282451827E0
6.369306375E0,-4.158194786E0,8.057014103E0,-6.707534033E-1,9.091532889E0
6.379387375E0,-5.172420069E0,8.139304892E0,1.027051077E0,9.698301264E0
6.389468375E0,-6.078792874E0,8.515095502E0,1.790447254E0,1.061434292E1
6.399549375E0,-6.580574609E0,9.279235371E0,2.535257982E0,1.165485754E1
6.409630375E0,-6.546761330E0,1.077594248E1,1.437706368E0,1.269046965E1
6.419711375E0,-5.434544899E0,1.248734532E1,-3.328310432E-1,1.362273276E1
6.429792375E0,-3.765893394E0,1.408315338E1,-2.313232772E0,1.476035935E1
6.439873375E0,-2.830115818E0,1.496160398E1,-4.244409642E0,1.580740847E1
6.449954375E0,-2.301059453E0,1.450773024E1,-5.450733501E0,1.566778883E1
6.460034375E0,-1.697102011E0,1.304460836E1,-5.646987108E0,1.431539123E1
6.470115375E0,-3.247259983E-1,1.118554111E1,-4.538796485E0,1.207569669E1
6.480196375E0,1.240201749E0,8.971663642E0,-3.124250938E0,9.580698973E0
6.490277375E0,2.583188778E0,5.406184734E0,-2.447612312E0,6.472287360E0
6.500358375E0,4.622126909E0,-3.411417639E-1,-1.390023494E0,4.838656857E0
6.510439375E0,7.839905816E0,-7.720758272E0,5.180182102E-1,1.101556056E1
6.520520375E0,9.888301234E0,-1.451648586E1,2.011125850E0,1.767912583E1
6.530601375E0,9.349368045E0,-1.801508548E1,3.940575453E0,2.067564081E1
6.540682375E0,8.513936584E0,-1.756240691E1,6.800074992E0,2.066800118E1
6.550763375E0,7.643358679E0,-1.428007124E1,8.261618119E0,1.818229084E1
6.560843375E0,5.618228747E0,-1.024162041E1,7.204684773E0,1.372453152E1
6.570924375E0,2.869374609E0,-7.291125916E0,3.655516673E0,8.646191643E0
6.581005375E0,1.099335307E0,-5.855865439E0,-1.323547084E0,6.103398646E0
6.591086375E0,6.364562675E-1,-5.125591473E0,-5.464031239E0,7.518803223E0
6.601167375E0,1.208427687E0,-4.564982071E0,-7.579888907E0,8.930513682E0
6.611248375E0,2.125546505E0,-4.350556487E0,-6.725154617E0,8.286917057E0
6.621329375E0,2.817118335E0,-4.784716927E0,-3.873544727E0,6.770082757E0
6.631410375E0,3.415555129E0,-5.641187255E0,-7.787625130E-1,6.640442872E0
6.641491375E0,3.614909222E0,-6.476432190E0,1.911489295E0,7.659342917E0
6.651572375E0,3.131735667E0,-6.867840713E0,4.000557945E0,8.542802129E0
6.661652375E0,2.203662090E0,-6.399581650E0,5.030200582E0,8.432893323E0
6.671733375E0,1.061590945E0,-5.542569870E0,4.318797335E0,7.106269522E0
6.681814375E0,6.783851892E-2,-4.684715506E0,2.640617207E0,5.378105676E0
6.691895375E0,-6.326655176E-1,-3.775299225E0,8.033466196E-1,3.911331702E0
6.701975375E0,-9.765075257E-1,-2.844879161E0,-1.066643890E0,3.191337270E0
6.712056375E0,-6.711562765E-1,-1.712686887E0,-2.379977130E0,3.007995722E0
6.722137375E0,2.402284697E-1,-4.865555853E-1,-3.119849154E0,3.166686723E0
6.732218375E0,8.519577393E-1,5.623249751E-1,-3.109226518E0,3.272511406E0
6.742299375E0,1.017647950E0,1.162497223E0,-2.490879369E0,2.931123876E0
6.752380375E0,5.596741399E-1,1.057463104E0,-1.343192120E0,1.798785265E0
6.762460375E0,-1.496068597E-1,4.939166451E-1,-1.048103173E-1,5.266128249E-1
6.772541375E0,-6.374736831E-1,-1.570480263E-1,1.038123949E0,1.228307011E0
6.782622375E0,-1.056142218E0,-7.666693747E-1,1.852544684E0,2.266084756E0
6.792703375E0,-1.469713442E0,-1.237323457E0,1.895222926E0,2.698684286E0
6.802784375E0,-1.666460554E0,-1.594410578E0,1.649580081E0,2.835551148E0
6.812865375E0,-1.469463181E0,-1.927727013E0,1.233645705E0,2.719804258E0
6.822946375E0,-1.253897682E0,-1.840100639E0,5.705992969E-1,2.298654676E0
6.833027375E0,-1.310415407E0,-1.615116153E0,-1.343130286E-1,2.084185384E0
6.843108375E0,-1.430422491E0,-1.314669256E0,-6.105253279E-1,2.036468741E0
6.853189375E0,-1.550811399E0,-9.815136194E-1,-8.395438081E-1,2.018221689E0
6.863269375E0,-1.713466321E0,-6.037928438E-1,-7.494294441E-1,1.965242255E0
6.873350375E0,-1.868570732E0,-7.868598104E-2,-4.742881268E-1,1.929429266E0
6.883431375E0,-1.909303899E0,5.268095720E-1,-4.087414241E-1,2.022384546E0
6.893512375E0,-1.949136593E0,9.685240299E-1,-7.174796730E-1,2.291713188E0
6.903593375E0,-1.711109308E0,1.103438006E0,-9.653379551E-1,2.253297110E0
6.913674375E0,-1.171331781E0,1.225833678E0,-7.869066612E-1,1.869199947E0
6.923755375E0,-5.914841625E-1,1.361786120E0,-3.269663590E-1,1.520270355E0
6.933836375E0,-1.268980283E-1,1.503565897E0,-1.990976930E-2,1.509042715E0
6.943917375E0,2.241661683E-1,1.703452964E0,3.730048500E-2,1.718544092E0
6.953998375E0,3.020244759E-1,1.807383714E0,-2.463285774E-1,1.848927376E0
6.964078375E0,3.474009159E-1,1.782316115E0,-2.274438981E-1,1.830046136E0
6.974159375E0,2.214618310E-1,1.679094633E0,3.506041668E-2,1.693999221E0
6.984240375E0,6.496841311E-3,1.415512676E0,1.179517883E-1,1.420433374E0
6.994321375E0,-7.176492423E-2,9.739695418E-1,2.021141253E-2,9.768190077E-1
7.004402375E0,-1.536057705E-1,4.638368136E-1,-2.382798851E-1,5.436144093E-1
7.014483375E0,-1.321309939E-1,-1.168536812E-1,-4.496299068E-1,4.829911339E-1
7.024564375E0,4.937038064E-2,-7.368082291E-1,-2.470654728E-1,7.786945157E-1
7.034645375E0,1.686942181E-1,-1.185301949E0,1.418001690E-1,1.205614257E0
7.044726375E0,3.366475940E-2,-1.482773783E0,2.944559131E-1,1.512103069E0
7.054806375E0,-2.056573918E-1,-1.484053738E0,5.495212539E-1,1.595833346E0
7.064887375E0,-1.100731622E0,-9.158166432E-1,1.939831334E-1,1.444977399E0
7.074968375E0,3.609603167E-1,-1.910927378E0,3.754696707E-1,1.980634562E0
7.085049375E0,5.573697522E-1,-2.449274676E0,8.363787834E-1,2.647477469E0
7.095130375E0,-5.764155954E-2,-1.705651517E0,1.158302431E0,2.062579494E0
7.105211375E0,-2.902651405E-1,-1.135096586E0,9.885869962E-1,1.532971741E0
7.115292375E0,-3.664254168E-1,-8.054890394E-1,8.954175351E-1,1.258909346E0
7.125373375E0,-3.849423793E-1,-4.230507302E-1,6.919753609E-1,8.977652565E-1
7.135454375E0,-4.575972497E-1,3.354629481E-1,3.389549053E-1,6.609243983E-1
7.145535375E0,-3.931261423E-1,1.000752128E0,-5.082399114E-1,1.189269017E0
7.155615375E0,-1.613433909E-1,1.140616357E0,-1.022460501E0,1.540280118E0
7.165696375E0,2.496290383E-1,1.176128837E0,-1.228339210E0,1.718839990E0
7.175777375E0,3.391464016E-1,1.330994682E0,-1.337934743E0,1.917455736E0
7.185858375E0,1.350955322E-1,1.586186469E0,-1.130545113E0,1.952529275E0
7.195939375E0,3.886138460E-1,1.515775468E0,-4.455169388E-1,1.626985351E0
7.206020375E0,5.687153971E-1,1.096393865E0,-1.795820260E-1,1.248105130E0
7.216101375E0,6.554924628E-1,3.898590106E-1,-5.780553740E-2,7.648541672E-1
7.226182375E0,5.233059204E-1,-1.241568536E-1,2.928297293E-1,6.123832631E-1
7.236263375E0,2.199573424E-1,-1.222453988E-1,5.942507726E-1,6.453364632E-1
7.246343375E0,-5.846511063E-1,-2.258615685E-1,7.898927611E-1,1.008345644E0
7.256424375E0,1.349654317E-2,-2.314099914E-1,3.228995840E-1,3.974882163E-1
7.266505375E0,6.277997571E-1,-5.469660938E-2,4.272498351E-2,6.316246340E-1
7.276586375E0,5.705031833E-1,-3.574514025E-1,2.034087720E-1,7.032926246E-1
7.286667375E0,3.595330113E-1,-8.530894679E-1,4.848247729E-1,1.045026644E0
7.296748375E0,2.643982279E-1,-1.002626161E0,6.723327363E-1,1.235798102E0
7.306829375E0,2.530780184E-1,-7.611905336E-1,5.971960151E-1,1.000051295E0
7.316910375E0,5.427280319E-1,-3.725313717E-1,3.559316747E-1,7.483453057E-1
7.326991375E0,4.219798127E-1,1.274394804E-1,6.743180852E-2,4.459314211E-1
7.337071375E0,1.871319509E-1,5.013484561E-1,-3.334568415E-1,6.305252625E-1
7.347152375E0,5.153354345E-1,5.297793728E-1,-6.306954445E-1,9.716035908E-1
7.357233375E0,6.096125776E-1,7.061629719E-1,-8.832955992E-1,1.284719718E0
7.367314375E0,7.309630600E-1,8.161052442E-1,-9.785256922E-1,1.468961298E0
7.377395375E0,9.474766847E-1,7.486605352E-1,-8.062842607E-1,1.451998269E0
7.387476375E0,1.028719799E0,6.397245687E-1,-6.001260914E-1,1.351910972E0
7.397557375E0,1.108018422E0,6.117842335E-1,-3.333229402E-1,1.308850242E0
7.407638375E0,1.171540527E0,7.953119606E-1,-2.717265433E-1,1.441826493E0
7.417719375E0,1.235689453E0,8.962232083E-1,-3.733265930E-1,1.571469760E0
7.427800375E0,1.319837902E0,8.697329825E-1,-4.953818842E-1,1.656445218E0
7.437880375E0,1.303519639E0,9.273420900E-1,-4.699986825E-1,1.667340866E0
7.447961375E0,1.186547552E0,7.793730354E-1,-3.723800019E-1,1.467645832E0
7.458042375E0,1.084364096E0,3.639646161E-1,-2.364438593E-1,1.167998901E0
7.468123375E0,5.944092321E-1,1.307911044E-1,-3.650475935E-1,7.097100773E-1
7.478204375E0,3.431054051E-1,-1.010966045E-1,-5.461756964E-1,6.528780390E-1
7.488285375E0,2.614076695E-1,-3.323475516E-1,-4.142272818E-1,5.919232262E-1
7.498366375E0,1.339784217E-1,-4.313806736E-1,-1.608645771E-1,4.794965226E-1
7.508447375E0,1.244148619E-1,-4.330436218E-1,8.157911025E-2,4.578875271E-1
7.518528375E0,2.412306824E-1,-2.997902548E-1,2.107827687E-1,4.387434497E-1
7.528608375E0,3.298405579E-1,-2.203581691E-2,3.251982341E-1,4.637178693E-1
7.538689375E0,4.502720042E-1,3.428000343E-1,3.156349667E-1,6.479831583E-1
7.548770375E0,5.470011771E-1,6.665346372E-1,1.608089554E-1,8.771192795E-1
7.558851375E0,6.618358147E-1,7.673570073E-1,-5.291730165E-2,1.014723442E0
7.568932375E0,6.382488777E-1,6.664896137E-1,-2.175849078E-1,9.481103454E-1
7.579013375E0,6.023898044E-1,5.133323246E-1,-4.485533613E-1,9.097162579E-1
7.589094375E0,5.719579706E-1,4.824046469E-1,-5.347612005E-1,9.196845682E-1
7.599175375E0,5.966598254E-1,2.793185681E-1,-3.729682318E-1,7.570515912E-1
7.609255375E0,4.358140326E-1,6.512394905E-2,-3.211793697E-1,5.452808334E-1
7.619336375E0,8.884288698E-2,-1.555002683E-1,-3.525463195E-1,3.954267308E-1
7.629417375E0,-6.623842835E-2,-2.618757391E-1,-2.212691653E-1,3.491797182E-1
7.639498375E0,-2.509858847E-2,-1.502664256E-1,2.983768366E-2,1.552424722E-1
7.649579375E0,7.362492353E-2,1.089084846E-1,3.057451323E-1,3.328089141E-1
7.659660375E0,1.452924916E-1,3.237439585E-1,3.841269851E-1,5.229470331E-1
7.669741375E0,2.246816003E-1,4.362794709E-1,4.448023725E-1,6.623222394E-1
7.679822375E0,1.764929420E-1,4.881489515E-1,5.737602651E-1,7.737182945E-1
7.689903375E0,-8.769961014E-2,4.028240418E-1,5.570279094E-1,6.929924402E-1
7.699983125E0,-2.690758543E-1,3.795480305E-1,3.556796231E-1,5.856334324E-1
7.710064125E0,-3.562369359E-1,3.497026724E-1,1.788318282E-1,5.302617621E-1
7.720145125E0,-4.729853672E-1,2.793472195E-1,1.326382399E-1,5.651043525E-1
7.730226125E0,-4.040402627E-1,4.389481401E-1,8.647571482E-2,6.028283776E-1
7.740307125E0,-3.312380424E-1,7.125329286E-1,3.431964755E-2,7.865110637E-1
7.750388125E0,-1.964369175E-1,9.467098224E-1,-1.200515234E-1,9.742993989E-1
7.760469125E0,-4.967706710E-2,1.189593805E0,-2.395505581E-1,1.214489894E0
7.770550125E0,2.186303169E-2,1.538221174E0,-1.391491145E-1,1.544656871E0
7.780631125E0,1.837089908E-1,1.699648765E0,-1.394736350E-1,1.715228210E0
7.790711125E0,3.793259825E-1,1.590357288E0,-2.895793352E-1,1.660415820E0
7.800792125E0,5.674468437E-1,1.364717329E0,-2.596603753E-1,1.500624143E0
7.810873125E0,5.033414796E-1,1.169552473E0,-4.985701516E-2,1.274241482E0
7.820954125E0,4.144597086E-1,9.006068659E-1,7.160851121E-2,9.939805611E-1
7.831035125E0,2.016733915E-1,6.784576946E-1,2.075791524E-1,7.376083681E-1
7.841116125E0,-3.438374765E-1,4.444047618E-1,-9.135755517E-2,5.692679558E-1
7.851197125E0,-8.808451773E-1,6.021187860E-1,-4.083245907E-1,1.142437845E0
7.861278125E0,-1.103082495E0,1.120379144E0,-2.924110687E-1,1.599232519E0
7.871358125E0,-1.218693789E0,1.705239288E0,1.259542146E-1,2.099742852E0
7.881439125E0,-1.276761757E0,2.341627436E0,4.226998973E-1,2.700373092E0
7.891520125E0,-1.213359521E0,2.791495251E0,4.999416161E-1,3.084579174E0
7.901601125E0,-9.444966513E-1,3.161997639E0,5.344062746E-1,3.343036503E0
7.911682125E0,-5.257952262E-1,3.733707395E0,4.654154887E-1,3.799163475E0
7.921763125E0,-7.507093996E-3,4.200531551E0,2.271274175E-1,4.206674284E0
7.931844125E0,3.136142421E-1,4.181455010E0,-1.367330450E-1,4.195427966E0
7.941925125E0,4.220153345E-1,3.947606730E0,-5.734623130E-1,4.011303387E0
7.952006125E0,4.291758348E-1,3.607068983E0,-9.324357457E-1,3.750276652E0
7.962086125E0,2.506726201E-1,3.236311072E0,-1.208588631E0,3.463702152E0
7.972167125E0,-1.703001559E-1,2.966566150E0,-1.386103520E0,3.278841234E0
7.982248125E0,-6.752274004E-1,2.583786364E0,-1.990192380E0,3.330577986E0
7.992329125E0,-8.347862211E-1,2.192462626E0,-2.341593668E0,3.314637432E0
8.002410125E0,-7.014423685E-1,1.762316299E0,-2.267052193E0,2.955893398E0
8.012491125E0,-5.665529506E-1,1.284362553E0,-1.855015863E0,2.326296040E0
8.022572125E0,-2.713496903E-1,7.400645435E-1,-1.432411860E0,1.634970923E0
8.032653125E0,3.257673874E-2,4.540216774E-1,-1.100098223E0,1.190551564E0
8.042733125E0,5.591663092E-1,3.669104433E-1,-8.741154706E-1,1.100621684E0
8.052814125E0,1.189742617E0,8.798422337E-2,-6.187868589E-1,1.343921833E0
8.062895125E0,1.602835831E0,-4.935237122E-1,-4.618123613E-1,1.739516891E0
8.072976125E0,1.820092345E0,-1.200762572E0,-5.121190274E-1,2.239828742E0
8.083057125E0,2.313842636E0,-2.281803403E0,-5.834679222E-1,3.301655544E0
8.093138125E0,2.676202192E0,-3.842014786E0,-5.359119326E-1,4.712784462E0
8.103219125E0,2.898451935E0,-5.696967938E0,-1.864104044E-1,6.394624003E0
8.113300125E0,2.984078853E0,-7.584467277E0,1.742755316E-1,8.152253826E0
8.123381125E0,3.100270630E0,-9.250135533E0,6.041447000E-1,9.774542249E0
8.133461125E0,3.298813422E0,-1.076841244E1,1.132900225E0,1.131920224E1
8.143542125E0,3.360350689E0,-1.215809212E1,1.550234279E0,1.270883106E1
8.153623125E0,3.858738115E0,-1.319750019E1,1.722812510E0,1.385755945E1
8.163704125E0,4.654668419E0,-1.431860322E1,1.858990070E0,1.517050363E1
8.173785125E0,5.329586209E0,-1.571788870E1,1.968730613E0,1.671324070E1
8.183866125E0,5.893070687E0,-1.760452558E1,1.897089942E0,1.866136525E1
8.193947125E0,5.901450917E0,-1.963163830E1,1.945473313E0,2.059158109E1
8.204028125E0,5.355405174E0,-2.056475101E1,2.571915931E0,2.140570251E1
8.214108125E0,4.618384107E0,-1.970183997E1,3.221750920E0,2.049076985E1
8.224189125E0,4.448399701E0,-1.753152660E1,3.785019636E0,1.847888141E1
8.234270125E0,4.669924681E0,-1.482749809E1,4.335889331E0,1.613886094E1
8.244351125E0,4.919046181E0,-1.212649143E1,4.496253313E0,1.383709158E1
8.254432125E0,4.877310218E0,-9.473049520E0,4.497723888E0,1.156530771E1
8.264513125E0,4.302928869E0,-6.849202713E0,4.429011503E0,9.221871694E0
8.274594125E0,3.117730123E0,-4.366017694E0,4.033446779E0,6.712007490E0
8.284675125E0,1.279576607E0,-2.038663897E0,3.516868665E0,4.261670093E0
8.294756125E0,-7.977300766E-1,1.503523797E-1,2.737199761E0,2.855037941E0
8.304836125E0,-2.747081555E0,2.363125309E0,1.779642769E0,4.037071547E0
8.314917125E0,-4.218346556E0,4.725923758E0,1.068589697E0,6.424226566E0
8.324998125E0,-5.240527267E0,6.991079553E0,4.358537936E-1,8.748044804E0
8.335079125E0,-6.094829448E0,9.044762608E0,1.410523832E-2,1.090664364E1
8.345160125E0,-6.435377135E0,1.073325781E1,-5.219692469E-1,1.252554805E1
8.355241125E0,-6.366173583E0,1.161687968E1,-1.188168254E0,1.330006780E1
8.365322125E0,-6.052557002E0,1.189271974E1,-2.066303247E0,1.350332693E1
8.375402125E0,-5.850179021E0,1.146744473E1,-3.340745267E0,1.329990459E1
8.385483125E0,-5.612592031E0,1.067634335E1,-4.819655210E0,1.298901740E1
8.395564125E0,-5.248742605E0,9.965430686E0,-6.607929638E0,1.305847778E1
8.405645125E0,-4.789212266E0,9.288894387E0,-7.233616211E0,1.271004786E1
8.415726125E0,-4.246555863E0,8.579847568E0,-7.073881974E0,1.190322759E1
8.425807125E0,-3.907026761E0,7.965073069E0,-6.908974121E0,1.124460628E1
8.435888125E0,-3.713681851E0,7.846369913E0,-6.507710116E0,1.084929697E1
8.445969125E0,-3.250099099E0,8.188478807E0,-5.480117514E0,1.037525987E1
8.456050125E0,-2.721299427E0,8.578368223E0,-4.462504062E0,1.004528817E1
8.466130125E0,-2.256033554E0,9.042107973E0,-3.953422663E0,1.012318896E1
8.476211125E0,-2.107751381E0,9.157523823E0,-3.730858047E0,1.011049753E1
8.486292125E0,-2.166850067E0,8.552124165E0,-3.407259099E0,9.457456398E0
8.496373125E0,-2.391421155E0,7.382906737E0,-3.202869092E0,8.395509362E0
8.506454125E0,-2.773148735E0,6.275616000E0,-2.806112705E0,7.412690376E0
8.516535125E0,-2.957346553E0,5.213697903E0,-2.064536803E0,6.339625909E0
8.526616125E0,-3.336175376E0,4.552961365E0,-7.603266075E-1,5.695403399E0
8.536697125E0,-3.915941133E0,4.948226711E0,2.568980044E-1,6.315499911E0
8.546777125E0,-4.217366855E0,6.101746119E0,7.321336725E-1,7.453422610E0
8.556858125E0,-4.200490328E0,7.384424674E0,9.179337738E-1,8.544966306E0
8.566939125E0,-4.292160929E0,8.475916818E0,9.587754057E-1,9.548982230E0
8.577020125E0,-4.373461200E0,9.367209654E0,3.694516432E-1,1.034448037E1
8.587101125E0,-4.247171282E0,9.904395111E0,-2.939490326E-1,1.078062672E1
8.597182125E0,-4.167117053E0,9.586573212E0,-6.354677957E-1,1.047239561E1
8.607263125E0,-4.165115258E0,8.856215047E0,-1.177546202E0,9.857349802E0
8.617344125E0,-3.779501034E0,8.482083877E0,-2.162295817E0,9.534458462E0
8.627424125E0,-3.048675968E0,8.384293288E0,-3.581758726E0,9.613521450E0
8.637505125E0,-1.977956935E0,8.002536179E0,-4.041304268E0,9.180688380E0
8.647586125E0,-6.449663052E-1,6.980968548E0,-4.200537106E0,8.172785044E0
8.657667125E0,1.349098247E0,5.134828904E0,-4.926499043E0,7.242715428E0
8.667748125E0,3.110223468E0,1.688481753E0,-5.166176412E0,6.262095446E0
8.677829125E0,3.603226778E0,-3.065759486E0,-4.724192398E0,6.685814703E0
8.687910125E0,4.212284455E0,-8.246482016E0,-2.877655728E0,9.696840128E0
8.697991125E0,3.478840421E0,-1.410087045E1,6.632847548E-2,1.452381760E1
8.708071500E0,1.226724502E0,-1.729130076E1,3.668267696E0,1.771863772E1
8.718152500E0,-7.150793910E-1,-1.737467621E1,6.392357415E0,1.852708680E1
8.728233500E0,-1.996704277E-1,-1.514569538E1,7.648403656E0,1.696850127E1
8.738314500E0,1.751395454E0,-1.171420659E1,7.760747380E0,1.416048099E1
8.748395500E0,3.395467897E0,-8.085845554E0,6.932945366E0,1.117925901E1
8.758476500E0,4.991509556E0,-4.977994301E0,5.562672012E0,8.979917306E0
8.768557500E0,6.156728657E0,-3.166791186E0,4.004696020E0,7.998216326E0
8.778638500E0,6.331832886E0,-3.222377157E0,2.884717410E0,7.667947364E0
8.788718500E0,5.864383078E0,-4.615010263E0,1.921914735E0,7.706040803E0
8.798799500E0,4.992414705E0,-6.297288120E0,1.289704569E0,8.139003632E0
8.808880500E0,3.596758880E0,-7.920064711E0,1.193084447E0,8.779951592E0
8.818961500E0,2.291246071E0,-8.529392529E0,1.262833105E0,8.921608203E0
8.829042500E0,1.191151211E0,-7.785651841E0,1.659081953E0,8.049084962E0
8.839123500E0,5.882620543E-1,-5.914320638E0,2.369569525E0,6.398445170E0
8.849204500E0,3.529461229E-1,-3.670317730E0,2.818313506E0,4.640979877E0
8.859285500E0,1.969587815E-1,-1.667693732E0,2.656300609E0,3.142598935E0
8.869365500E0,-8.816724122E-2,1.285311556E-1,2.063503892E0,2.069382042E0
8.879446500E0,-5.973085740E-1,1.562770709E0,9.059977064E-1,1.902593406E0
8.889527500E0,-9.906420001E-1,2.526629246E0,-9.943181446E-1,2.890310622E0
8.899608500E0,-1.125071242E0,3.144711515E0,-2.697203636E0,4.293006321E0
8.909689500E0,-1.179602083E0,3.107918496E0,-3.310599947E0,4.691555228E0
8.919770500E0,-1.654984809E0,2.018303307E0,-3.048271633E0,4.013039111E0
8.929851500E0,-2.649547659E0,6.926447940E-1,-2.750993342E0,3.881729509E0
8.939931500E0,-3.491906902E0,-3.825950146E-2,-2.266164440E0,4.162977164E0
8.950012500E0,-3.829973615E0,1.137061250E-1,-1.546148829E0,4.131852269E0
8.960093500E0,-3.193317957E0,9.121685654E-1,-1.224124099E0,3.539464773E0
8.970174500E0,-2.235030355E0,1.987077422E0,-7.485639100E-1,3.082885871E0
8.980255500E0,-1.501298639E0,3.007436433E0,-3.138704963E-1,3.375957078E0
8.990336500E0,-7.141300955E-1,3.965326717E0,-3.288304514E-1,4.042514964E0
9.000417500E0,-3.323732793E-2,4.610978608E0,-3.208029552E-1,4.622244366E0
9.010498500E0,5.741287494E-1,4.847953979E0,-6.256639154E-1,4.921761569E0
9.020579500E0,1.192513320E0,4.523845739E0,-1.110313747E0,4.808332862E0
9.030659500E0,1.582727256E0,3.343066027E0,-1.348654443E0,3.937002011E0
9.040740500E0,1.553190339E0,1.523570391E0,-1.300391671E0,2.534696326E0
9.050821500E0,1.174197209E0,-9.767422915E-2,-1.354709966E0,1.795415950E0
9.060902500E0,6.283955884E-1,-1.288541558E0,-1.087737647E0,1.799553709E0
9.070983500E0,1.352124766E-1,-1.969750367E0,-6.309882438E-1,2.072762670E0
9.081064500E0,1.054980960E-1,-2.218451160E0,-6.805281937E-2,2.222000582E0
9.091145500E0,4.686917567E-1,-2.076293069E0,6.988989758E-1,2.240340297E0
9.101226500E0,1.148220661E0,-1.419542577E0,1.482182629E0,2.351675395E0
9.111306500E0,1.693845696E0,-4.363589931E-1,2.165176009E0,2.783434850E0
9.121387500E0,1.959108727E0,3.618590337E-1,2.424157961E0,3.137768440E0
9.131468500E0,1.999539300E0,5.152069420E-1,2.007376469E0,2.879784001E0
9.141549500E0,1.569121663E0,-6.381768107E-2,1.228018198E0,1.993550647E0
9.151630500E0,7.032124668E-1,-8.715117055E-1,2.258756018E-1,1.142392320E0
9.161711500E0,-1.414435619E-1,-1.724585386E0,-4.095432235E-1,1.778180724E0
9.171792500E0,-7.295208442E-1,-2.222814937E0,-5.195587322E-1,2.396465769E0
9.181873500E0,-9.129117465E-1,-1.970200603E0,-4.408996484E-1,2.215737072E0
9.191953500E0,-6.037788105E-1,-1.468865011E0,-5.032637116E-1,1.665949470E0
9.202034500E0,-9.929946274E-2,-8.760064602E-1,-6.244808775E-1,1.080381446E0
9.212115500E0,3.417820340E-1,-2.362602568E-1,-4.541278043E-1,6.155208611E-1
9.222196500E0,7.605900246E-1,3.040341640E-1,-3.445059595E-1,8.886047009E-1
9.232277500E0,9.775281572E-1,6.428855735E-1,-2.394461122E-1,1.194235152E0
9.242358500E0,9.823304754E-1,8.143311989E-1,-1.794741449E-1,1.288533831E0
9.252439500E0,9.534990245E-1,9.080550492E-1,-2.482166433E-1,1.339901438E0
9.262520500E0,8.183947214E-1,9.423670954E-1,-3.076629460E-1,1.285489071E0
9.272600500E0,8.283417124E-1,8.690570444E-1,-4.302112305E-1,1.275339893E0
9.282681500E0,7.233812678E-1,4.569341755E-1,-5.529948655E-1,1.018760335E0
9.292762500E0,4.875958049E-1,2.707611680E-1,-6.649550119E-1,8.678861947E-1
9.302843500E0,4.322899157E-1,2.075504279E-1,-7.099168843E-1,8.566993253E-1
9.312924500E0,4.328989032E-1,5.007438540E-2,-6.774782860E-1,8.055344391E-1
9.323005500E0,5.142535535E-1,-2.583884597E-2,-5.031366809E-1,7.199103297E-1
9.333086500E0,6.890709758E-1,3.471725821E-2,-3.071223709E-1,7.552140414E-1
9.343167500E0,7.988813934E-1,4.673036277E-2,-1.934342261E-1,8.232933908E-1
9.353247500E0,8.672090319E-1,-2.529096186E-2,5.422941685E-2,8.692709401E-1
9.363328500E0,9.225961974E-1,-1.874734282E-2,2.811779827E-1,9.646741752E-1
9.373409500E0,8.366479746E-1,-4.052120447E-2,4.279337400E-1,9.406110180E-1
9.383490500E0,6.742225564E-1,-1.864840794E-1,5.813921607E-1,9.095983794E-1
9.393571500E0,4.756958440E-1,-3.198754406E-1,6.805159146E-1,8.897801658E-1
9.403652500E0,2.206227556E-1,-5.049205202E-1,5.537278140E-1,7.811745157E-1
9.413733500E0,-4.880787849E-2,-6.810544431E-1,1.928452653E-1,7.095115643E-1
9.423814500E0,-2.369014040E-1,-7.223854870E-1,-1.198264056E-1,7.696242164E-1
9.433894500E0,-1.976332578E-1,-4.621867293E-1,-3.634040143E-1,6.202724844E-1
9.443975500E0,1.309016168E-2,-9.086456180E-2,-5.869224572E-1,5.940586602E-1
9.454056500E0,2.145869672E-1,2.366467577E-1,-8.060101725E-1,8.670072968E-1
9.464137500E0,3.616076034E-1,5.545265436E-1,-9.454142256E-1,1.154152418E0
9.474218500E0,5.492883155E-1,7.994079351E-1,-9.967894703E-1,1.390812694E0
9.484299500E0,6.827974981E-1,9.135321361E-1,-9.694052052E-1,1.496829930E0
9.494380500E0,7.775264847E-1,9.358731776E-1,-8.783839381E-1,1.500654651E0
9.504460500E0,7.550000864E-1,8.032249975E-1,-7.457204090E-1,1.330899867E0
9.514541500E0,6.264192295E-1,6.453671318E-1,-6.161709608E-1,1.090213942E0
9.524622500E0,5.327906889E-1,5.162611949E-1,-5.270381981E-1,9.100334070E-1
9.534703500E0,5.025936207E-1,4.206446010E-1,-2.825744440E-1,7.137160110E-1
9.544784500E0,4.716144875E-1,3.016625333E-1,-1.377234171E-1,5.765312207E-1
9.554865500E0,5.072459579E-1,2.591035742E-1,-1.451425105E-3,5.695921616E-1
9.564946500E0,5.843464664E-1,2.109125769E-1,1.119607311E-1,6.312528124E-1
9.575027500E0,6.215941072E-1,2.285968959E-1,2.562283520E-1,7.101329054E-1
9.585107500E0,6.316586271E-1,2.003934360E-1,3.815167880E-1,7.646601924E-1
9.595188500E0,6.002017763E-1,1.589261520E-1,4.221911895E-1,7.508296042E-1
9.605269500E0,4.916154733E-1,1.375481468E-1,3.253903882E-1,6.053793613E-1
9.615350500E0,3.746135652E-1,8.912092209E-2,1.878849261E-1,4.284607420E-1
9.625431500E0,2.043520010E-1,-8.239370048E-2,-1.690912440E-2,2.209850236E-1
9.635512500E0,1.391198784E-2,-2.285086030E-1,-1.455295962E-1,2.712721667E-1
9.645593500E0,-1.405919150E-1,-2.421986890E-1,-1.324465974E-1,3.097876574E-1
9.655674500E0,-1.909118834E-1,-1.428036243E-1,-3.571727827E-2,2.410724918E-1
9.665754500E0,-1.814019719E-1,8.135991275E-2,1.906586990E-2,1.997238549E-1
9.675835500E0,-1.213197845E-1,2.286202848E-1,1.523711309E-2,2.592641401E-1
9.685916500E0,-6.461377949E-2,3.410751057E-1,-1.674584091E-2,3.475450926E-1
9.695997500E0,3.114490181E-2,4.311087781E-1,1.856783330E-3,4.322363140E-1
9.706078792E0,1.642781085E-1,4.271917284E-1,1.331513330E-2,4.578835687E-1
9.716159792E0,3.093460670E-1,3.669531280E-1,-4.500192583E-2,4.820526534E-1
9.726240792E0,3.158309215E-1,3.935415870E-1,-1.356926791E-1,5.225290948E-1
9.736321792E0,3.487843671E-1,4.261959475E-1,-2.326316209E-1,5.978385999E-1
9.746401792E0,3.532314670E-1,3.644481808E-1,-3.225004019E-1,6.013330649E-1
9.756482792E0,2.899271715E-1,1.414839077E-1,-2.776119120E-1,4.256099559E-1
9.766563792E0,1.806792560E-1,-3.643692434E-2,-6.009475887E-2,1.938659925E-1
9.776644792E0,9.320666403E-2,-3.140481055E-2,2.018255652E-1,2.245157080E-1
9.786725792E0,1.108749032E-1,4.007915497E-2,4.305970006E-1,4.464452483E-1
9.796806792E0,1.835923389E-1,1.687015271E-1,5.423206271E-1,5.968902870E-1
9.806887792E0,2.229797682E-1,3.109338784E-1,5.067887056E-1,6.350075951E-1
9.816968792E0,2.015728194E-1,3.915623045E-1,3.979655904E-1,5.935732903E-1
9.827048792E0,1.995765799E-1,2.983980328E-1,3.257969159E-1,4.847843104E-1
9.837129792E0,9.493977875E-2,9.107973933E-2,2.537188733E-1,2.858012371E-1
9.847210792E0,6.950292885E-2,6.858783960E-3,1.291511066E-1,1.468254351E-1
9.857291792E0,1.178991634E-1,1.099147904E-1,-1.043771848E-2,1.615252916E-1
9.867372792E0,2.459496778E-1,2.829040807E-1,-2.962623373E-2,3.760368023E-1
9.877453792E0,3.535641736E-1,4.324074447E-1,-1.230815506E-1,5.719553227E-1
9.887534792E0,3.704231581E-1,4.576826191E-1,-1.886861408E-1,6.182953628E-1
9.897614792E0,3.500502893E-1,3.858717942E-1,-2.151026917E-1,5.636500817E-1
9.907695792E0,2.711564398E-1,3.227668887E-1,-1.775496800E-1,4.574146567E-1
9.917776792E0,2.150088438E-1,2.473904318E-1,-5.257480100E-2,3.319562296E-1
9.927857792E0,2.313942039E-1,1.911747158E-1,1.443056278E-1,3.330392826E-1
9.937938792E0,2.009275791E-1,2.030404705E-1,3.161441861E-1,4.260803576E-1
9.948019792E0,1.684702697E-1,2.432102573E-1,3.626763283E-1,4.680465576E-1
9.958100792E0,1.524880752E-1,2.351744288E-1,3.270885658E-1,4.307511520E-1
9.968181792E0,2.157929555E-1,2.632802403E-1,2.352030802E-1,4.137675356E-1
9.978261792E0,1.969099572E-1,2.327998745E-1,1.152328330E-1,3.259569276E-1
9.988342792E0,1.675198048E-1,1.500793147E-1,-2.571956277E-2,2.263806123E-1
9.998423792E0,1.523670378E-1,8.324330091E-2,-9.802740097E-2,1.993853874E-1
1.000850479E1,1.482391959E-1,-9.593526721E-3,-9.471188352E-2,1.761738796E-1
1.001858579E1,1.191033974E-1,-4.926337659E-2,-4.772000402E-2,1.374397990E-1
1.002866679E1,3.136885017E-2,-1.574070454E-3,5.164026976E-2,6.044170679E-2
1.003874779E1,-8.143007934E-2,1.593424737E-2,1.527048607E-1,1.737916354E-1
1.004882879E1,-1.635571468E-1,6.480761468E-2,1.466563547E-1,2.290394148E-1
1.005890879E1,-1.811698374E-1,5.035271287E-2,1.037173265E-1,2.147444749E-1
1.006898979E1,-2.025893578E-1,5.681271672E-2,1.621356887E-1,2.656277738E-1
1.007907079E1,-2.179590565E-1,3.070957661E-2,2.106026745E-1,3.046353803E-1
1.008915179E1,-3.048779172E-1,-4.373366475E-2,1.513927455E-1,3.431951940E-1
1.009923279E1,-2.682076889E-1,-6.959765375E-2,1.240871255E-1,3.036063447E-1
1.010931379E1,-2.011696538E-1,-7.474378824E-2,6.389077127E-2,2.239149262E-1
1.011939479E1,-1.951172009E-1,-1.421019584E-1,-5.837041497E-2,2.483360506E-1
1.012947479E1,-2.541328561E-1,-1.592781544E-1,-1.946473771E-1,3.575480953E-1
1.013955579E1,-2.606943092E-1,-1.605171794E-1,-2.603094162E-1,4.018560437E-1
1.014963679E1,-1.485067061E-1,-2.810247856E-1,-2.025909658E-1,3.769247555E-1
1.015971779E1,-1.162484944E-1,-3.949425799E-1,-1.299708863E-1,4.317242003E-1
1.016979879E1,-1.595728540E-1,-4.731303781E-1,-1.987604548E-1,5.374212211E-1
1.017987979E1,-2.440619043E-1,-4.055020666E-1,-3.131914884E-1,5.675271337E-1
1.018996079E1,-3.252367526E-1,-3.467621076E-1,-4.082865107E-1,6.266743806E-1
1.020004179E1,-4.037145728E-1,-2.811551785E-1,-3.975380127E-1,6.325109977E-1
1.021012179E1,-4.680535331E-1,-1.492612892E-1,-4.950831646E-1,6.974671191E-1
1.022020279E1,-5.964832395E-1,1.259373307E-2,-6.489006042E-1,8.814889967E-1
1.023028379E1,-7.016082832E-1,2.709728372E-1,-6.170889737E-1,9.728716580E-1
1.024036479E1,-7.661179823E-1,4.503297454E-1,-5.838627554E-1,1.063310566E0
1.025044579E1,-9.236381713E-1,4.671422446E-1,-7.153202963E-1,1.258178236E0
1.026052679E1,-9.764475918E-1,2.371677446E-1,-8.513076751E-1,1.316975017E0
1.027060779E1,-9.864182639E-1,2.132128716E-2,-7.764118592E-1,1.255504267E0
1.028068879E1,-1.018255768E0,-1.534718692E-2,-8.727507305E-1,1.341183874E0
1.029076879E1,-1.081663267E0,1.581145585E-2,-8.110427248E-1,1.352048715E0
1.030084979E1,-9.238489634E-1,2.427494967E-1,-7.198704533E-1,1.196092678E0
1.031093079E1,-5.414565548E-1,4.301720542E-1,-6.909853542E-1,9.775908943E-1
1.032101179E1,-1.969263294E-1,6.584309810E-1,-6.667159009E-1,9.575079261E-1
1.033109279E1,1.575304216E-1,9.168434143E-1,-5.566951297E-1,1.084125061E0
1.034117379E1,4.243064198E-1,1.023411258E0,-5.450692570E-1,1.234709292E0
1.035125479E1,5.932696098E-1,1.053619144E0,-4.753119743E-1,1.299231928E0
1.036133479E1,7.353125113E-1,1.077340128E0,-4.428223591E-1,1.377475184E0
1.037141579E1,8.623207596E-1,1.126187183E0,-3.026952247E-1,1.450351359E0
1.038149679E1,8.895880803E-1,1.117384785E0,-6.033274055E-2,1.429529905E0
1.039157779E1,7.831713867E-1,9.791501749E-1,2.796040584E-1,1.284628707E0
1.040165879E1,5.228156313E-1,9.268023920E-1,5.950774227E-1,1.219186613E0
1.041173979E1,2.969578636E-1,1.117743219E0,7.718248647E-1,1.390412708E0
1.042182079E1,1.677691886E-1,1.548106477E0,8.534267060E-1,1.775701920E0
1.043190179E1,4.782554626E-2,1.995835381E0,8.062972708E-1,2.153081847E0
1.044198179E1,-8.672093242E-2,2.416734336E0,6.332791098E-1,2.499833555E0
1.045206279E1,-1.956004733E-1,2.759757149E0,2.204463889E-1,2.775448735E0
1.046214379E1,-2.723220822E-1,3.094866925E0,-1.485217626E-1,3.110372858E0
1.047222479E1,-3.593195879E-1,3.385074179E0,-4.321707056E-1,3.431415055E0
1.048230579E1,-4.346893206E-1,3.570874718E0,-5.546284313E-1,3.639740891E0
1.049238679E1,-4.958260533E-1,3.642642859E0,-6.189979434E-1,3.727981884E0
1.050246779E1,-6.413097489E-1,3.486225162E0,-6.350280851E-1,3.601153252E0
1.051254779E1,-7.258929393E-1,3.317845817E0,-6.638205059E-1,3.460589413E0
1.052262879E1,-7.058863986E-1,3.204068940E0,-7.213815200E-1,3.359274427E0
1.053270979E1,-7.226331165E-1,3.065916776E0,-8.464540476E-1,3.261675758E0
1.054279079E1,-7.067821920E-1,2.911721022E0,-1.233397052E0,3.240205034E0
1.055287179E1,-6.529690969E-1,2.790961985E0,-1.782875109E0,3.375571226E0
1.056295279E1,-4.228507555E-1,2.731391721E0,-2.081273142E0,3.459913494E0
1.057303379E1,-6.345252246E-2,2.664083253E0,-2.163600331E0,3.432569328E0
1.058311479E1,2.820214435E-1,2.509971698E0,-2.119310011E0,3.297115245E0
1.059319479E1,5.556945249E-1,2.190768687E0,-1.862848063E0,2.928901970E0
1.060327579E1,7.117774683E-1,1.767340811E0,-1.413672557E0,2.372465133E0
1.061335679E1,9.259516221E-1,1.194441732E0,-7.639363861E-1,1.693421465E0
1.062343779E1,1.095876094E0,3.527660286E-1,-1.389146411E-1,1.159605779E0
1.063351879E1,7.589835021E-1,-5.018191570E-1,1.621530841E-1,9.242142855E-1
1.064359979E1,3.682857084E-1,-1.308254861E0,3.087468736E-1,1.393732318E0
1.065368079E1,1.167668501E-1,-2.099897109E0,2.510565629E-1,2.118072653E0
1.066376079E1,1.161300883E-1,-2.814986440E0,3.397049569E-2,2.817585642E0
1.067384179E1,3.869377416E-1,-3.409414968E0,-5.772612490E-2,3.431787223E0
1.068392279E1,1.329196371E0,-4.115844573E0,-4.753914964E-1,4.351199446E0
1.069400379E1,2.747708377E0,-5.278296772E0,-9.249252896E-1,6.022109674E0
1.070408412E1,4.155776378E0,-7.255089526E0,-1.318894454E0,8.464412792E0
1.071416512E1,5.508850731E0,-1.003291691E1,-1.502384759E0,1.154400356E1
1.072424612E1,6.301041448E0,-1.327802336E1,-1.117372506E0,1.473965906E1
1.073432712E1,6.286142158E0,-1.656527889E1,-2.674148796E-1,1.771991982E1
1.074440712E1,5.478128875E0,-1.924052506E1,1.147051803E0,2.003804952E1
1.075448812E1,4.563508280E0,-2.007485958E1,2.873664418E0,2.078661931E1
1.076456912E1,4.436344496E0,-1.893815618E1,4.254528249E0,1.991069870E1
1.077465012E1,4.894119501E0,-1.704398809E1,5.190526557E0,1.847678278E1
1.078473112E1,5.678888932E0,-1.507170354E1,5.327381224E0,1.696428654E1
1.079481212E1,6.347620953E0,-1.351918827E1,4.612541569E0,1.563125980E1
1.080489312E1,6.400091527E0,-1.274450002E1,3.420023571E0,1.466560648E1
1.081497313E1,5.699319688E0,-1.234263258E1,1.977487988E0,1.373802325E1
1.082505413E1,5.014906604E0,-1.170104100E1,7.830369008E-1,1.275448139E1
1.083513513E1,4.509080935E0,-1.095874282E1,-3.502134997E-2,1.185019331E1
1.084521613E1,3.749820567E0,-1.013319900E1,-3.933855029E-1,1.081192066E1
1.085529713E1,2.387400902E0,-8.759006256E0,-6.971635222E-3,9.078541858E0
1.086537813E1,8.844492549E-1,-6.192059873E0,8.924809903E-1,6.318257535E0
1.087545913E1,-6.882623059E-1,-2.937823577E0,1.920550725E0,3.576734189E0
1.088554013E1,-2.180498345E0,3.185937309E-1,2.915588955E0,3.654686574E0
1.089562012E1,-3.528884401E0,3.334753625E0,3.421389481E0,5.939655953E0
1.090570112E1,-4.711213918E0,5.955790846E0,3.702957473E0,8.448601969E0
1.091578212E1,-5.365729018E0,8.195415943E0,3.497495670E0,1.040136368E1
1.092586312E1,-5.596740230E0,9.924203138E0,2.727310365E0,1.171543985E1
1.093594412E1,-5.525989505E0,1.113841255E1,1.776150811E0,1.256007587E1
1.094602512E1,-5.324542986E0,1.177422124E1,4.053267232E-1,1.292854723E1
1.095610612E1,-5.094976621E0,1.159394457E1,-1.446960756E0,1.274645177E1
1.096618612E1,-4.936633437E0,1.132004461E1,-3.132840498E0,1.274081823E1
1.097626712E1,-4.800884186E0,1.107366984E1,-3.964764799E0,1.270409433E1
1.098634812E1,-4.296123002E0,1.067363843E1,-4.044797394E0,1.219604920E1
1.099642912E1,-3.713916909E0,1.027339535E1,-3.535315754E0,1.148191135E1
1.100651012E1,-3.069908963E0,9.761385664E0,-3.134383578E0,1.070202558E1
1.101659112E1,-2.493298655E0,9.090908250E0,-2.568746156E0,9.770343279E0
1.102667212E1,-2.296534586E0,8.489716247E0,-1.928713439E0,9.003848543E0
1.103675312E1,-2.522539703E0,7.933016878E0,-1.550854669E0,8.467651005E0
1.104683313E1,-2.700412296E0,7.442351285E0,-1.224688355E0,8.011284590E0
1.105691413E1,-2.979394064E0,7.129599507E0,-9.248167507E-1,7.782240304E0
1.106699513E1,-3.530756679E0,6.840776875E0,-1.041352855E0,7.768325865E0
1.107707613E1,-4.385383673E0,6.299986610E0,-1.043802765E0,7.746673187E0
1.108715713E1,-5.258332039E0,5.746740607E0,-6.218841290E-1,7.814206505E0
1.109723813E1,-5.889033769E0,5.203210922E0,-2.647754464E-1,7.862838461E0
1.110731913E1,-6.287167760E0,4.621763797E0,6.084320247E-1,7.826836434E0
1.111739912E1,-6.407093568E0,4.866511288E0,1.654618188E0,8.214106248E0
1.112748012E1,-6.531308309E0,5.809124551E0,2.402516246E0,9.065097936E0
1.113756112E1,-6.627251762E0,7.509091405E0,2.869990613E0,1.041843394E1
1.114764212E1,-6.509861891E0,9.347840753E0,3.165945094E0,1.182301302E1
1.115772312E1,-6.608442439E0,1.086899858E1,3.138419327E0,1.310176773E1
1.116780412E1,-6.952082133E0,1.198173542E1,1.720105249E0,1.395894665E1
1.117788512E1,-7.828409021E0,1.239328467E1,-2.672996163E-1,1.466113713E1
1.118796512E1,-8.984716381E0,1.143863667E1,-1.515165603E0,1.462406456E1
1.119804612E1,-9.966334666E0,9.820382316E0,-2.186097347E0,1.416145321E1
1.120812712E1,-1.045326155E1,8.939641365E0,-2.928300217E0,1.406281646E1
1.121820812E1,-9.625365980E0,8.654288471E0,-3.360976049E0,1.337312750E1
1.122828912E1,-7.260090065E0,8.692543294E0,-2.941068782E0,1.170124362E1
1.123837012E1,-4.356759798E0,8.478717635E0,-1.926033075E0,9.725204989E0
1.124845112E1,-8.349853188E-1,7.597248121E0,-1.090588750E0,7.720412121E0
1.125853212E1,3.122100332E0,5.333593891E0,-1.247157304E0,6.304770862E0
1.126861213E1,6.789955215E0,1.175216671E0,-2.981834984E0,7.508393032E0
1.127869313E1,1.029655032E1,-4.707226117E0,-4.355151229E0,1.213030373E1
1.128877413E1,1.256961799E1,-1.144827288E1,-4.674745418E0,1.763268252E1
1.129885513E1,1.310296825E1,-1.621923950E1,-4.221715429E0,2.127379581E1
1.130893613E1,1.202753783E1,-1.669714646E1,-1.563387006E0,2.063735800E1
1.131901713E1,1.031467318E1,-1.354115041E1,2.156130366E0,1.715820898E1
1.132909813E1,9.196270983E0,-9.867503858E0,3.974514447E0,1.406185612E1
1.133917913E1,8.840988897E0,-8.024159768E0,3.818768595E0,1.253527895E1
1.134925912E1,8.506058046E0,-8.527390442E0,2.168559793E0,1.223813968E1
1.135934012E1,7.284330867E0,-9.131625921E0,2.759078689E-1,1.168435678E1
1.136942112E1,6.417402794E0,-9.366026178E0,-1.943774697E0,1.151884391E1
1.137950212E1,6.885428553E0,-1.047299941E1,-3.612897488E0,1.304399752E1
1.138958312E1,6.850342335E0,-1.215311263E1,-3.016787301E0,1.427327371E1
1.139966412E1,5.424770109E0,-1.324762486E1,-1.001552027E0,1.435028925E1
1.140974512E1,3.219527809E0,-1.338006897E1,5.966066158E-1,1.377488818E1
1.141982512E1,1.003646500E0,-1.296399046E1,1.439460533E0,1.308221700E1
1.142990612E1,-1.068796762E0,-1.188688422E1,1.775371377E0,1.206616288E1
1.143998712E1,-2.406197653E0,-1.011552170E1,1.436768475E0,1.049656467E1
1.145006812E1,-2.981229213E0,-7.863161947E0,4.362929195E-1,8.420652881E0
1.146014912E1,-2.501571003E0,-5.589056404E0,-1.032252249E0,6.209746667E0
1.147023012E1,-1.229218631E0,-3.281404799E0,-2.390045890E0,4.241569904E0
1.148031112E1,2.023762268E-1,-8.343707764E-1,-3.000346684E0,3.120770891E0
1.149039113E1,1.641314018E0,1.543045127E0,-3.278681751E0,3.978021367E0
1.150047213E1,2.523348081E0,3.837104879E0,-2.917505672E0,5.440817837E0
1.151055313E1,2.641824072E0,5.492003149E0,-2.104219370E0,6.447408175E0
1.152063413E1,2.126279746E0,6.302251237E0,-1.183327929E0,6.755716187E0
1.153071513E1,1.357817322E0,6.266149943E0,-2.222234309E-1,6.415425648E0
1.154079613E1,4.598127598E-1,5.732721907E0,7.797437489E-1,5.803751249E0
1.155087713E1,-4.816477248E-1,5.130640544E0,1.612222951E0,5.399511067E0
1.156095813E1,-1.399346879E0,4.916375173E0,2.179667748E0,5.556965721E0
1.157103812E1,-1.974064735E0,4.911534848E0,2.458060702E0,5.836280370E0
1.158111912E1,-2.040971501E0,4.963803694E0,2.511959751E0,5.925778731E0
1.159120012E1,-1.982819771E0,5.136932148E0,2.451497787E0,6.027394755E0
1.160128112E1,-1.882293563E0,5.337137888E0,2.214894884E0,6.077320893E0
1.161136212E1,-1.847117006E0,5.388967023E0,1.777496256E0,5.967604188E0
1.162144312E1,-1.839222095E0,5.153086250E0,1.323430139E0,5.629254227E0
1.163152412E1,-1.821564966E0,4.596904360E0,9.398025066E-1,5.033175675E0
1.164160412E1,-1.578812838E0,3.866300027E0,6.319208747E-1,4.223771995E0
1.165168512E1,-1.136353445E0,3.014258380E0,5.711670616E-1,3.271587466E0
1.166176612E1,-6.109431115E-1,2.188026928E0,4.804241218E-1,2.321964827E0
1.167184712E1,-1.851909676E-1,1.441725744E0,1.056393063E-1,1.457404706E0
1.168192812E1,4.471044213E-2,9.112663400E-1,-4.491655648E-2,9.134674943E-1
1.169200912E1,7.926456302E-2,5.900039399E-1,-9.406781271E-2,6.026908606E-1
1.170209012E1,-1.820296705E-2,2.277940732E-1,-7.666942254E-3,2.286487914E-1
1.171217079E1,-2.331588936E-1,-1.156707895E-1,1.840731993E-1,3.187879293E-1
1.172225179E1,-5.450616556E-1,-1.192989868E-1,4.133939805E-1,6.944199304E-1
1.173233279E1,-8.511946777E-1,-1.118578202E-1,4.546969577E-1,9.714905427E-1
1.174241379E1,-9.391552198E-1,-4.745682085E-1,5.806788003E-1,1.201838334E0
1.175249479E1,-9.295453209E-1,-8.479152668E-1,6.703066760E-1,1.425596662E0
1.176257579E1,-9.676489940E-1,-1.069004923E0,7.484639957E-1,1.624596705E0
1.177265679E1,-1.060757425E0,-1.442624461E0,8.516767075E-1,1.982857752E0
1.178273779E1,-1.103913385E0,-1.908287360E0,8.645370736E-1,2.368039223E0
1.179281779E1,-1.011344360E0,-2.288841112E0,1.112364950E0,2.738424151E0
1.180289879E1,-1.071602256E0,-2.593870472E0,1.146610338E0,3.031700956E0
1.181297979E1,-1.226196206E0,-2.909434760E0,7.123796584E-1,3.236642170E0
1.182306079E1,-1.355621400E0,-3.127993156E0,4.119136117E-1,3.433907889E0
1.183314179E1,-1.387652448E0,-3.187979157E0,4.477581400E-1,3.505606620E0
1.184322279E1,-1.366034122E0,-3.075478728E0,5.265096098E-1,3.406146062E0
1.185330379E1,-1.168266671E0,-2.715271533E0,5.581588340E-1,3.008170174E0
1.186338379E1,-8.663573849E-1,-2.067174336E0,5.430168843E-1,2.306220325E0
1.187346479E1,-7.248024336E-1,-1.277645271E0,5.142146695E-1,1.556320254E0
1.188354579E1,-6.228012648E-1,-5.159869605E-1,4.198709413E-1,9.112714010E-1
1.189362679E1,-5.902799284E-1,1.511920398E-1,3.206086814E-1,6.885342065E-1
1.190370779E1,-5.713483983E-1,5.667144799E-1,3.346213876E-1,8.715364405E-1
1.191378879E1,-6.153510350E-1,8.162584412E-1,2.966929847E-1,1.064406626E0
1.192386979E1,-6.423084533E-1,1.078042964E0,1.431573077E-1,1.263024464E0
1.193394979E1,-5.332070106E-1,1.244758776E0,-6.047833622E-2,1.355504244E0
1.194403079E1,-3.771033096E-1,1.414684126E0,-3.121063183E-1,1.496979771E0
1.195411179E1,-1.037968487E-1,1.432922176E0,-6.320916134E-1,1.569579420E0
1.196419279E1,1.160897425E-1,1.240686191E0,-1.103989983E0,1.664804173E0
1.197427379E1,2.963520920E-1,8.645757383E-1,-1.454403677E0,1.717732757E0
1.198435479E1,4.235369262E-1,3.452886093E-1,-1.644057093E0,1.732492851E0
1.199443579E1,6.641255844E-1,-1.479170144E-1,-1.801402597E0,1.925615110E0
1.200451579E1,8.238305855E-1,-5.880006838E-1,-1.826805241E0,2.088458528E0
1.201459679E1,8.698879337E-1,-9.540176725E-1,-1.706287694E0,2.139689798E0
1.202467779E1,9.005162340E-1,-9.602613294E-1,-1.464761435E0,1.969405334E0
1.203475879E1,8.281753591E-1,-7.462988448E-1,-1.199163504E0,1.637323884E0
1.204483979E1,7.413643795E-1,-5.941887921E-1,-1.033814040E0,1.404084375E0
1.205492079E1,6.756609714E-1,-5.975012398E-1,-9.233028334E-1,1.290741493E0
1.206500179E1,6.181603298E-1,-5.011233383E-1,-6.549765922E-1,1.030650828E0
1.207508279E1,5.915037507E-1,-2.973905575E-1,-4.073170424E-1,7.773191132E-1
1.208516279E1,5.686955166E-1,-2.315526634E-1,-1.428831464E-1,6.304338348E-1
1.209524379E1,6.007900062E-1,-7.815446913E-2,7.098519802E-3,6.058936719E-1
1.210532479E1,7.055832204E-1,2.082503396E-1,1.408325279E-1,7.490324998E-1
1.211540579E1,7.356957963E-1,3.296285963E-1,2.425080067E-1,8.418512039E-1
1.212548679E1,7.430065700E-1,1.639173353E-1,2.672703072E-1,8.064496717E-1
1.213556779E1,7.713339910E-1,-1.749299812E-1,3.111923254E-1,8.499395786E-1
1.214564879E1,7.517703769E-1,-4.413343889E-1,4.154258879E-1,9.656673395E-1
1.215572879E1,5.590736309E-1,-5.745322073E-1,3.672611301E-1,8.817773639E-1
1.216580979E1,2.521681917E-1,-5.511456835E-1,1.027933203E-1,6.147494026E-1
1.217589079E1,8.729103595E-2,-3.846918261E-1,-9.397652306E-2,4.055109282E-1
1.218597179E1,-2.869842678E-2,-1.616854531E-1,-1.380656985E-1,2.145411908E-1
1.219605279E1,-1.785163710E-1,7.799834847E-2,-1.817741472E-1,2.664463879E-1
1.220613379E1,-2.319379950E-1,2.486464137E-1,-1.170952443E-1,3.596269856E-1
1.221621479E1,-2.540451479E-1,2.912813866E-1,-3.094404995E-2,3.877387233E-1
1.222629479E1,-2.441694930E-1,1.982843453E-1,4.698581301E-2,3.180300136E-1
1.223637579E1,-2.471963042E-1,4.635029376E-2,1.796077538E-1,3.090522735E-1
1.224645679E1,-2.331153318E-1,-4.119129539E-2,2.002226242E-1,3.100460933E-1
1.225653779E1,-2.640275145E-1,-4.790039063E-2,1.272077845E-1,2.969626176E-1
1.226661879E1,-3.338701665E-1,-1.009533477E-1,1.357863808E-1,3.742977528E-1
1.227669979E1,-3.093393427E-1,-5.219283164E-2,9.544161603E-2,3.279085584E-1
1.228678079E1,-1.523983204E-1,1.549675870E-1,3.315363966E-2,2.198621498E-1
1.229686079E1,2.402796328E-2,3.261641210E-1,-1.222418904E-2,3.272763475E-1
1.230694179E1,5.383326799E-2,3.107385814E-1,-1.017468148E-1,3.313742613E-1
1.231702279E1,-2.818474889E-2,2.997645271E-1,-2.168270355E-1,3.710351939E-1
1.232710379E1,5.525618792E-2,4.214521015E-1,-2.441532670E-1,4.901896959E-1
1.233718479E1,1.283884835E-1,4.918636876E-1,-1.908823550E-1,5.430005187E-1
1.234726579E1,1.209449780E-1,4.621896529E-1,-2.706892473E-1,5.491080327E-1
1.235734679E1,-1.356542337E-1,1.009381449E-1,-5.602591538E-1,5.852186768E-1
1.236742679E1,-5.186565068E-1,-4.022662175E-1,-7.443927987E-1,9.924431070E-1
1.237750779E1,-7.245384318E-1,-6.948421776E-1,-7.875573832E-1,1.275934255E0
1.238758879E1,-6.882447642E-1,-6.044237584E-1,-6.204323385E-1,1.106320578E0
1.239766979E1,-4.820564452E-1,-3.683558750E-1,-4.122123313E-1,7.334735667E-1
1.240775079E1,-2.116578045E-1,-1.227722329E-1,-2.127878521E-1,3.242695135E-1
1.241783179E1,-8.005773783E-2,-7.323169827E-2,-4.184282139E-2,1.162881968E-1
1.242791279E1,-8.936270446E-2,-9.705383956E-2,3.310920082E-2,1.360197041E-1
1.243799379E1,-1.172834516E-2,-8.492496014E-3,7.125987098E-2,7.271620026E-2
1.244807379E1,1.020973554E-1,1.004469788E-1,4.883126736E-2,1.513207131E-1
1.245815479E1,2.047244686E-1,1.782722497E-1,-8.320470929E-2,2.839297918E-1
1.246823579E1,1.786663520E-1,1.071742004E-1,-3.557301284E-1,4.122522272E-1
1.247831679E1,6.897872597E-2,-1.475468856E-1,-5.661603101E-1,5.891227756E-1
1.248839779E1,-1.573661149E-2,-1.920512134E-1,-6.967583102E-1,7.229131707E-1
1.249847879E1,5.406920314E-2,-1.767087042E-2,-6.911819668E-1,6.935187450E-1
1.250855979E1,1.621929914E-1,1.252917981E-1,-6.129251714E-1,6.462831167E-1
1.251863979E1,1.920517981E-1,1.936246991E-1,-5.158042350E-1,5.834624462E-1
1.252872079E1,1.568363571E-1,5.456972480E-2,-3.346782517E-1,3.736108001E-1
1.253880179E1,4.203826457E-2,-7.870352268E-3,-2.459911931E-1,2.496814474E-1
1.254888279E1,-1.134067476E-3,9.536691785E-2,-1.712374645E-1,1.960061336E-1
1.255896379E1,5.522841364E-2,8.809005797E-2,-5.455510676E-2,1.174150572E-1
1.256904479E1,-9.672464132E-3,-2.727784574E-2,3.759759665E-4,2.894440859E-2
1.257912579E1,-9.262135774E-2,-7.639036417E-2,-7.615647554E-2,1.421759910E-1
1.258920579E1,-5.195543468E-2,8.501442254E-2,-5.440264061E-2,1.135185735E-1
1.259928679E1,8.099709302E-2,3.119875467E-1,2.272228003E-2,3.231300982E-1
1.260936779E1,2.137069613E-1,4.713762134E-1,1.228774828E-1,5.319446171E-1
1.261944879E1,2.012646711E-1,4.203879082E-1,1.905155884E-1,5.035172794E-1
1.262952979E1,1.519106627E-2,3.331626534E-1,1.095108940E-1,3.510281442E-1
1.263961079E1,-2.540176660E-2,2.862907881E-1,-1.601274624E-2,2.878612046E-1
1.264969179E1,4.254404873E-2,2.970712996E-1,-1.743481833E-1,3.470715230E-1
1.265977179E1,5.692410618E-2,2.302920038E-1,-2.429040094E-1,3.395248424E-1
1.266985279E1,4.724491775E-2,1.999981642E-2,-1.676279783E-1,1.753032060E-1
1.267993379E1,3.412581235E-2,-1.195474935E-1,-1.746319194E-1,2.143652993E-1
1.269001479E1,5.705625325E-2,-4.566149175E-2,-1.376083732E-1,1.558090249E-1
1.270009579E1,2.245152470E-1,9.368759751E-2,-7.190101817E-2,2.536813326E-1
1.271017713E1,3.717580774E-1,2.300826734E-1,9.786528692E-2,4.480175433E-1
1.272025813E1,4.403459170E-1,3.306916201E-1,2.788243322E-1,6.172556055E-1
1.273033812E1,4.098828006E-1,3.888901269E-1,2.864640118E-1,6.334832840E-1
1.274041912E1,4.382768798E-1,4.134010702E-1,2.006472051E-1,6.350168259E-1
1.275050012E1,4.515646774E-1,3.770670569E-1,1.451616602E-1,6.059390488E-1
1.276058112E1,3.820044458E-1,2.327232760E-1,1.218874030E-1,4.636205979E-1
1.277066212E1,2.940626147E-1,1.110602599E-1,-9.973157197E-3,3.144943030E-1
1.278074312E1,2.932825962E-1,1.076308680E-1,-1.080008505E-1,3.305499488E-1
1.279082412E1,2.959805015E-1,1.788055158E-1,-1.206029159E-1,3.662252490E-1
1.280090413E1,1.713178638E-1,3.123734629E-1,-4.815138236E-2,3.595073663E-1
1.281098512E1,3.575543135E-2,4.015990502E-1,4.911412641E-2,4.061680014E-1
1.282106612E1,-3.730932891E-2,4.788898855E-1,2.127577389E-1,5.253507057E-1
1.283114712E1,-6.913777024E-2,4.242154956E-1,3.222463404E-1,5.371978424E-1
1.284122812E1,-9.152792841E-2,2.494562531E-1,3.263670194E-1,4.208577138E-1
1.285130912E1,-1.430921844E-1,8.068748295E-2,3.099421176E-1,3.507847764E-1
1.286139012E1,-2.471053800E-1,6.866385341E-3,1.716099322E-1,3.009288702E-1
1.287147012E1,-2.541574144E-1,1.167279661E-2,1.253576524E-1,2.836314272E-1
1.288155112E1,-2.447162077E-1,7.065424562E-2,1.141305598E-1,2.791125748E-1
1.289163212E1,-2.372729945E-1,1.689950573E-1,9.996253699E-3,2.914750906E-1
1.290171313E1,-2.907677087E-1,3.053649902E-1,-7.781715788E-2,4.287763377E-1
1.291179413E1,-3.601630488E-1,4.620955127E-1,-1.878494773E-1,6.152536963E-1
1.292187513E1,-3.739072216E-1,7.055460906E-1,-3.160402519E-1,8.587685003E-1
1.293195613E1,-3.690166104E-1,8.749083531E-1,-4.223068182E-1,1.039221311E0
1.294203713E1,-4.101421246E-1,9.105237436E-1,-4.551421501E-1,1.097462722E0
1.295211712E1,-5.325959766E-1,9.587808144E-1,-5.208939439E-1,1.214186816E0
1.296219812E1,-5.863865599E-1,9.870994645E-1,-5.464011066E-1,1.271522206E0
1.297227912E1,-5.254807922E-1,9.873772073E-1,-4.165930653E-1,1.193563402E0
1.298236012E1,-4.701064906E-1,9.098764569E-1,-2.394282782E-1,1.051760990E0
1.299244112E1,-4.512661770E-1,7.846051240E-1,-1.631238681E-1,9.197041695E-1
1.300252212E1,-4.552729815E-1,8.571994758E-1,-2.650816213E-1,1.006147452E0
1.301260312E1,-5.052672601E-1,1.108912754E0,-3.083451699E-1,1.257004075E0
1.302268313E1,-5.981043801E-1,1.421959816E0,-3.297011018E-1,1.577466762E0
1.303276413E1,-8.193957648E-1,1.692570126E0,-2.137116390E-1,1.892584401E0
1.304284513E1,-1.188940963E0,1.801409613E0,-1.336865725E-1,2.162528453E0
1.305292612E1,-1.589862614E0,1.770152737E0,-7.389952339E-2,2.380454785E0
1.306300712E1,-1.969523203E0,1.771479471E0,1.220932981E-1,2.651804656E0
1.307308812E1,-2.306250612E0,1.978293734E0,2.580651087E-1,3.049432010E0
1.308316912E1,-2.472389889E0,2.392017571E0,1.745750552E-1,3.444551679E0
1.309324912E1,-2.641536974E0,2.767273160E0,8.214753270E-2,3.826521468E0
1.310333012E1,-2.678571483E0,3.185177171E0,-2.009781575E-1,4.166592256E0
1.311341112E1,-2.279707761E0,3.696029107E0,-5.517035810E-1,4.377450796E0
1.312349212E1,-1.882755493E0,4.162249246E0,-9.723557834E-1,4.670606256E0
1.313357313E1,-1.647576971E0,4.425647600E0,-1.139568536E0,4.857929909E0
1.314365413E1,-1.497010291E0,4.110115471E0,-1.219997572E0,4.541198418E0
1.315373513E1,-1.318626359E0,3.626843682E0,-1.144126587E0,4.025145490E0
1.316381512E1,-1.113778515E0,2.936284005E0,-8.598495801E-1,3.256011001E0
1.317389612E1,-7.817095828E-1,2.176424882E0,-5.445780909E-1,2.375807323E0
1.318397712E1,-3.259430963E-1,1.231494952E0,-1.275710428E-1,1.280270710E0
1.319405812E1,-9.089496732E-4,2.440680438E-1,2.977425599E-1,3.849943742E-1
1.320413912E1,2.998510659E-1,-4.585538542E-1,3.742604299E-1,6.635157634E-1
1.321422012E1,7.436573651E-1,-6.442316025E-1,5.193292290E-1,1.112548193E0
1.322430112E1,1.307347957E0,-5.934222221E-1,6.549553961E-1,1.578060578E0
1.323438113E1,1.938872391E0,-4.549543083E-1,7.554076374E-1,2.129988326E0
1.324446213E1,2.538067861E0,-3.193661481E-1,4.978740041E-1,2.606081681E0
1.325454313E1,3.003892436E0,-3.996957815E-1,1.286984225E-1,3.033099037E0
1.326462413E1,3.386176671E0,-1.142502669E0,7.525362890E-2,3.574516458E0
1.327470513E1,3.447501976E0,-2.025736873E0,2.357228611E-1,4.005551775E0
1.328478612E1,3.553806111E0,-2.663706107E0,1.860589137E-1,4.445164341E0
1.329486712E1,3.733059524E0,-3.309388404E0,3.503651619E-3,4.988767111E0
1.330494712E1,3.794533348E0,-4.006451354E0,-2.884997930E-1,5.525700672E0
1.331502812E1,3.939455127E0,-4.625510108E0,-1.044050760E0,6.164794599E0
1.332510912E1,4.452296577E0,-5.387114625E0,-1.489112164E0,7.145726264E0
1.333519012E1,5.735621542E0,-6.495292384E0,-1.471193372E0,8.789231341E0
1.334527112E1,7.645246160E0,-8.568589339E0,-1.685197372E0,1.160648105E1
1.335535212E1,9.713438496E0,-1.143934184E1,-2.165022227E0,1.516234647E1
1.336543312E1,1.110752405E1,-1.496671796E1,-2.430174161E0,1.879589007E1
1.337551312E1,1.138670170E1,-1.906238613E1,-2.110863562E0,2.230442300E1
1.338559412E1,1.012933516E1,-2.206129206E1,-8.892065495E-1,2.429186543E1
1.339567512E1,8.243829719E0,-2.284107674E1,5.646106517E-1,2.428979827E1
1.340575612E1,6.576842331E0,-2.175307363E1,2.241031938E0,2.283578970E1
1.341583712E1,5.473983200E0,-1.972604978E1,3.906764513E0,2.084092947E1
1.342591812E1,4.800365245E0,-1.712162275E1,4.790407437E0,1.841579418E1
1.343599912E1,4.447673476E0,-1.418728528E1,4.996594294E0,1.568524203E1
1.344607913E1,4.152901887E0,-1.121206057E1,4.953904942E0,1.294210456E1
1.345616013E1,3.542385914E0,-8.331328039E0,4.493574704E0,1.010701432E1
1.346624113E1,2.369957780E0,-5.541179402E0,3.701599749E0,7.072708798E0
1.347632213E1,7.303096336E-1,-2.775068083E0,2.590596031E0,3.865946562E0
1.348640313E1,-1.535955378E0,-3.148626226E-1,1.219623935E0,1.986398736E0
1.349648413E1,-4.003059969E0,2.270366249E0,-3.042540193E-2,4.602170980E0
1.350656513E1,-6.165708811E0,4.972447633E0,-8.078969228E-1,7.962028513E0
1.351664512E1,-8.145309398E0,7.357173725E0,-1.073006757E0,1.102839127E1
1.352672612E1,-9.584620827E0,9.338282894E0,-1.097733462E0,1.342659683E1
1.353680712E1,-1.001714346E1,1.059872858E1,-1.235188639E0,1.463563807E1
1.354688812E1,-1.000468538E1,1.074272328E1,-1.274516426E0,1.473513574E1
1.355696912E1,-9.518169560E0,1.002627798E1,-1.274281368E0,1.388328473E1
1.356705012E1,-8.730805719E0,8.883323323E0,-1.419019251E0,1.253610854E1
1.357713112E1,-8.253689294E0,7.991162176E0,-1.718794888E0,1.161620918E1
1.358721112E1,-7.829190794E0,7.458930480E0,-1.939385630E0,1.098604064E1
1.359729212E1,-7.512471680E0,7.104640083E0,-2.242360279E0,1.058023256E1
1.360737312E1,-7.044923639E0,6.821571110E0,-2.378043164E0,1.009058327E1
1.361745412E1,-6.333844913E0,6.723190538E0,-2.271714617E0,9.512074941E0
1.362753512E1,-5.492545186E0,6.879977193E0,-2.130434777E0,9.057642692E0
1.363761612E1,-4.843507172E0,7.042388871E0,-2.214344076E0,8.829389697E0
1.364769712E1,-4.400520360E0,7.241892360E0,-2.253004258E0,8.768444137E0
1.365777713E1,-3.995283757E0,7.630715829E0,-2.093535338E0,8.864141615E0
1.366785813E1,-3.518001856E0,8.100232628E0,-1.811231766E0,9.015024470E0
1.367793913E1,-3.242678105E0,8.437000675E0,-1.418780100E0,9.149364932E0
1.368802013E1,-3.152254423E0,8.719206598E0,-1.115875180E0,9.338439327E0
1.369810113E1,-3.412854885E0,9.117428881E0,-8.512160200E-1,9.772392572E0
1.370818262E1,-3.975292711E0,9.378343922E0,-5.185340077E-1,1.019927274E1
1.371826262E1,-4.711423248E0,9.394447739E0,-2.380810797E-1,1.051236605E1
1.372834362E1,-5.071091915E0,9.711522948E0,-1.427397434E-1,1.095673427E1
1.373842463E1,-5.140425859E0,1.020822696E1,-3.970259428E-2,1.142949920E1
1.374850563E1,-5.136241007E0,1.068638068E1,-9.157916464E-2,1.185698488E1
1.375858663E1,-4.887647218E0,1.105369692E1,-3.833259165E-1,1.209215654E1
1.376866763E1,-4.458313947E0,1.128207981E1,-4.417226440E-1,1.213906944E1
1.377874863E1,-3.895008101E0,1.122073082E1,-4.280021524E-1,1.188524607E1
1.378882862E1,-3.478253945E0,1.092986576E1,-6.165690100E-1,1.148653008E1
1.379890962E1,-3.594656222E0,1.043022820E1,-8.259155564E-1,1.106315281E1
1.380899062E1,-3.836364037E0,9.407090004E0,-1.179332526E0,1.022750490E1
1.381907162E1,-3.989116699E0,8.144391385E0,-2.077062124E0,9.303674013E0
1.382915262E1,-3.616188593E0,6.714296338E0,-3.023934937E0,8.203827019E0
1.383923362E1,-1.952569201E0,4.795110937E0,-3.398322215E0,6.193077528E0
1.384931462E1,7.676499528E-1,1.263130143E0,-3.777237577E0,4.056144465E0
1.385939463E1,3.416204755E0,-3.943517772E0,-4.316370741E0,6.771472788E0
1.386947563E1,5.289584237E0,-9.459755291E0,-4.597933470E0,1.177317560E1
1.387955662E1,6.781770868E0,-1.401783414E1,-3.263631603E0,1.591048023E1
1.388963762E1,7.448989629E0,-1.675418254E1,-1.410841043E-1,1.833602967E1
1.389971862E1,6.743238301E0,-1.648715073E1,3.258048681E0,1.810834844E1
1.390979962E1,5.750113866E0,-1.428189791E1,5.585207182E0,1.637775798E1
1.391988062E1,5.337100466E0,-1.214158543E1,5.933745089E0,1.452969610E1
1.392996062E1,5.009277490E0,-1.037179346E1,5.148718965E0,1.261650774E1
1.394004162E1,5.043814069E0,-9.112518389E0,3.921272040E0,1.112899035E1
1.395012262E1,5.674997610E0,-8.920095878E0,2.456225846E0,1.085388197E1
1.396020362E1,6.488503182E0,-9.512142835E0,1.030153244E0,1.156039578E1
1.397028463E1,6.728250133E0,-9.944687104E0,-3.220076278E-2,1.200696416E1
1.398036563E1,6.997541896E0,-9.951065247E0,-1.337812682E0,1.223842453E1
1.399044663E1,7.385302926E0,-9.912709851E0,-2.292614905E0,1.257221536E1
1.400052662E1,6.998610767E0,-9.628195447E0,-2.321373265E0,1.212730284E1
1.401060762E1,5.551527804E0,-8.248741381E0,-1.133324441E0,1.000727833E1
1.402068862E1,3.859230158E0,-6.276296031E0,8.127835871E-1,7.412568141E0
1.403076962E1,2.771856793E0,-4.725519716E0,2.332701222E0,5.954428743E0
1.404085062E1,1.975315163E0,-3.652174405E0,2.863086221E0,5.043561299E0
1.405093162E1,1.649708866E0,-3.163234910E0,2.649796166E0,4.443986291E0
1.406101262E1,1.368838447E0,-2.954372367E0,2.069819616E0,3.858262305E0
1.407109263E1,9.115364814E-1,-2.772537993E0,1.522266462E0,3.291680553E0
1.408117363E1,6.377715987E-1,-2.699780504E0,1.129045229E0,2.995047664E0
1.409125463E1,8.795697534E-1,-2.632964371E0,8.465001675E-1,2.902190011E0
1.410133563E1,1.107721092E0,-1.929759505E0,1.082514914E0,2.474440604E0
1.411141663E1,9.077118176E-1,-5.551826012E-1,1.450397165E0,1.798838625E0
1.412149762E1,6.227009851E-1,8.909940434E-1,1.590781211E0,1.926710088E0
1.413157862E1,4.062528491E-1,2.049685314E0,1.747432796E0,2.723925961E0
1.414165862E1,-1.997818172E-2,2.896811791E0,1.943196407E0,3.488256005E0
1.415173962E1,-5.640691996E-1,3.607948405E0,2.259734842E0,4.294399528E0
1.416182062E1,-1.109774049E0,4.231770301E0,2.286929657E0,4.936549967E0
1.417190162E1,-1.705557377E0,4.691990027E0,1.930072331E0,5.352464440E0
1.418198262E1,-2.258561305E0,4.954562169E0,1.176625265E0,5.570747928E0
1.419206362E1,-2.678353967E0,5.202118077E0,3.008859500E-1,5.858851834E0
1.420214463E1,-2.903279396E0,5.371254637E0,-4.289445774E-1,6.120735338E0
1.421222462E1,-3.141847549E0,5.425158949E0,-1.218546878E0,6.386580629E0
1.422230562E1,-3.324776521E0,5.679179538E0,-1.849176103E0,6.835690997E0
1.423238662E1,-3.253853304E0,5.725916333E0,-2.240685052E0,6.956604680E0
1.424246762E1,-3.083363113E0,5.334585578E0,-2.692811208E0,6.724296512E0
1.425254862E1,-2.883058555E0,4.774304790E0,-3.052796794E0,6.358111443E0
1.426262962E1,-2.827390139E0,4.149776550E0,-3.037090003E0,5.868449207E0
1.427271062E1,-2.844912197E0,3.482847226E0,-2.717377992E0,5.254321399E0
1.428279063E1,-2.594029808E0,2.985785363E0,-2.210966139E0,4.531255472E0
1.429287163E1,-2.162327245E0,2.563544472E0,-1.491059872E0,3.670242352E0
1.430295263E1,-1.852749336E0,2.286972342E0,-6.887172192E-1,3.022789110E0
1.431303363E1,-1.370098814E0,2.170690518E0,1.357617494E-1,2.570505658E0
1.432311463E1,-8.232166278E-1,2.090985952E0,7.889238044E-1,2.381660899E0
1.433319563E1,-5.001208332E-1,2.005776232E0,1.213308211E0,2.396951388E0
1.434327562E1,-3.812717897E-1,2.129908528E0,1.460111729E0,2.610326565E0
1.435335662E1,-4.450397694E-1,2.401979472E0,1.287281921E0,2.761278784E0
1.436343762E1,-4.216339499E-1,2.551757655E0,7.915182871E-1,2.704763117E0
1.437351862E1,-3.909553635E-1,2.440839483E0,2.784759843E-1,2.487587657E0
1.438359962E1,-2.640014943E-1,1.935300327E0,-2.866650099E-1,1.974148164E0
1.439368062E1,8.218963265E-2,1.175088032E0,-7.159159814E-1,1.378449387E0
1.440376162E1,6.321956939E-1,2.827660865E-1,-1.022605001E0,1.235050218E0
1.441384162E1,1.450085508E0,-7.800723624E-1,-1.161731238E0,2.015162609E0
1.442392262E1,2.318102333E0,-2.003120427E0,-9.020675004E-1,3.193715023E0
1.443400362E1,2.794605677E0,-3.145269924E0,-6.192786098E-3,4.207443659E0
1.444408462E1,2.660773728E0,-3.942492170E0,1.030903954E0,4.866798158E0
1.445416562E1,2.068668299E0,-4.323302030E0,2.055930140E0,5.215091343E0
1.446424662E1,1.050689689E0,-4.233750168E0,2.518244923E0,5.036878677E0
1.447432762E1,-1.361722970E-1,-3.795650459E0,2.490598118E0,4.541870131E0
1.448440763E1,-8.236066371E-1,-3.209503927E0,1.822035667E0,3.781409436E0
1.449448863E1,-1.063738920E0,-2.578811553E0,5.458907177E-1,2.842499989E0
1.450456963E1,-8.207496876E-1,-2.203806224E0,-7.201027340E-1,2.459459264E0
1.451465063E1,-6.976429939E-2,-2.289218257E0,-1.798072023E0,2.911777856E0
1.452473163E1,7.560917616E-1,-2.833814474E0,-2.658733050E0,3.958666525E0
1.453481263E1,1.437126909E0,-3.664519631E0,-2.836959107E0,4.852048521E0
1.454489363E1,1.755213102E0,-4.077731836E0,-2.119735542E0,4.919547614E0
1.455497362E1,1.685245319E0,-3.787859044E0,-1.060531064E0,4.279328693E0
1.456505462E1,1.220268883E0,-2.952153348E0,5.054391682E-2,3.194811454E0
1.457513562E1,6.339270544E-1,-1.866451117E0,7.966666874E-1,2.126071751E0
1.458521662E1,1.386006457E-1,-7.483213967E-1,1.058616686E0,1.303788457E0
1.459529762E1,-2.499614525E-1,3.394875866E-1,9.328255358E-1,1.023667929E0
1.460537862E1,-5.570466936E-1,1.394123561E0,4.579240360E-1,1.569578270E0
1.461545962E1,-7.468566692E-1,2.063915098E0,-5.537254751E-2,2.195587970E0
1.462553962E1,-8.174044955E-1,2.441089743E0,-5.954927212E-1,2.642287044E0
1.463562062E1,-9.410906482E-1,2.717616266E0,-1.286546488E0,3.150601791E0
1.464570162E1,-1.018703080E0,2.944268963E0,-1.989053780E0,3.696323935E0
1.465578262E1,-1.083689035E0,2.967843182E0,-2.482374594E0,4.018041650E0
1.466586362E1,-1.104504538E0,2.815705647E0,-2.735149142E0,4.077887860E0
1.467594462E1,-1.138609008E0,2.684473663E0,-2.830751703E0,4.063986285E0
1.468602462E1,-1.216681616E0,2.271358522E0,-2.692362726E0,3.726687636E0
1.469610563E1,-1.208525335E0,1.391117508E0,-2.304042703E0,2.950314252E0
1.470618562E1,-1.135915196E0,3.240561998E-1,-1.843133590E0,2.189168149E0
1.471626662E1,-8.846264255E-1,-6.301386434E-1,-1.330082517E0,1.717194842E0
1.472634762E1,-5.685101599E-1,-1.360337765E0,-6.404092777E-1,1.607434813E0
1.473642862E1,-2.938021213E-1,-1.773280998E0,-2.877243061E-2,1.797685467E0
1.474650962E1,-1.332755864E-1,-1.790044965E0,5.292390901E-1,1.871394500E0
1.475658963E1,-1.020689964E-2,-1.538766135E0,1.043794068E0,1.859411588E0
1.476667063E1,6.616709232E-2,-1.169021546E0,1.461802744E0,1.872927313E0
1.477675163E1,4.674322665E-2,-8.605171859E-1,1.712636016E0,1.917236782E0
1.478683263E1,-1.499255329E-1,-6.973465401E-1,1.867641610E0,1.999213607E0
1.479691363E1,-4.220450091E-1,-7.488570017E-1,1.855116874E0,2.044594682E0
1.480699463E1,-7.389097184E-1,-8.787026113E-1,1.781720284E0,2.119583219E0
1.481707563E1,-8.682834578E-1,-9.332723361E-1,1.777954677E0,2.187701134E0
1.482715562E1,-8.170261806E-1,-8.106047684E-1,1.756408857E0,2.099900937E0
1.483723662E1,-6.953444535E-1,-4.419746590E-1,1.704691989E0,1.893362164E0
1.484731762E1,-5.058993441E-1,1.043464869E-1,1.459048120E0,1.547786727E0
1.485739862E1,-3.246169478E-1,6.694734478E-1,1.062177714E0,1.296839371E0
1.486747962E1,-1.121975434E-1,1.087136554E0,3.792199652E-1,1.156832726E0
1.487756062E1,-9.295903444E-3,1.299947721E0,-5.583553735E-1,1.414818439E0
1.488764162E1,7.793753743E-2,1.390103601E0,-1.349258460E0,1.938803929E0
1.489772162E1,3.249329898E-1,1.372176037E0,-1.559438966E0,2.102450573E0
1.490780262E1,6.088182333E-1,1.261030993E0,-1.438956503E0,2.007848257E0
1.491788362E1,7.664670610E-1,1.156913717E0,-1.209812380E0,1.841077701E0
1.492796462E1,8.726770556E-1,9.431055987E-1,-8.177197335E-1,1.523049236E0
1.493804562E1,8.797401997E-1,7.191472989E-1,-2.149775612E-1,1.156430287E0
1.494812662E1,6.532219890E-1,5.481501549E-1,3.782487792E-1,9.328663882E-1
1.495820663E1,4.060598910E-1,2.838291103E-1,7.073914719E-1,8.636239305E-1
1.496828763E1,9.707021177E-2,-6.719561756E-2,7.419006423E-1,7.512352761E-1
1.497836863E1,-2.671724394E-1,-4.139179641E-1,3.700035473E-1,6.161264630E-1
1.498844963E1,-6.042492190E-1,-6.286715770E-1,-1.206469162E-1,8.802844704E-1
1.499853063E1,-6.125923187E-1,-5.672290349E-1,-5.529314232E-1,1.001374698E0
1.500861163E1,-4.218929815E-1,-3.249017072E-1,-8.706761384E-1,1.020603618E0
1.501869263E1,-2.237939930E-1,-1.977551723E-1,-1.178032617E0,1.215299019E0
1.502877262E1,-5.667179883E-2,-1.861127812E-1,-1.089025862E0,1.106267141E0
1.503885362E1,-4.371115297E-2,-1.675999117E-1,-9.245921445E-1,9.406758363E-1
1.504893462E1,-2.332007012E-1,-2.270000213E-1,-8.347941148E-1,8.959870484E-1
1.505901562E1,-3.902493122E-1,-2.685526747E-1,-7.476046742E-1,8.850580849E-1
1.506909662E1,-5.393959960E-1,-1.687407035E-1,-5.144445381E-1,7.642477663E-1
1.507917762E1,-4.058795044E-1,-6.222606897E-3,-1.501138864E-1,4.327944914E-1
1.508925862E1,-3.431321561E-1,1.506073183E-1,1.672374574E-1,4.103542470E-1
1.509933862E1,-2.149793154E-1,2.138782847E-1,3.864974463E-1,4.912639847E-1
1.510941962E1,-1.446779492E-1,2.457988197E-1,5.130474921E-1,5.869978688E-1
1.511950062E1,-7.276275158E-2,1.844749761E-1,4.737968876E-1,5.136233304E-1
1.512958162E1,2.928402543E-2,3.668718517E-2,3.074009176E-1,3.109643514E-1
1.513966262E1,1.246880731E-1,3.862085938E-2,3.770219602E-1,3.989790030E-1
1.514974362E1,1.785649028E-1,-1.365740007E-1,2.206715067E-1,3.150139617E-1
1.515982462E1,2.804587752E-1,-2.231227326E-1,-1.940469412E-1,4.075476583E-1
1.516990462E1,3.335874537E-1,-1.121542740E-1,-5.341045582E-1,6.396302444E-1
1.517998562E1,4.254890192E-1,1.486379761E-1,-6.272612286E-1,7.723929066E-1
1.519006663E1,4.791559339E-1,2.733649331E-1,-5.595418467E-1,7.857517889E-1
1.520014763E1,5.017402196E-1,2.371969807E-1,-4.014388365E-1,6.849516735E-1
1.521022863E1,4.149081901E-1,1.707223248E-1,-2.272965483E-1,5.029499371E-1
1.522030963E1,3.278501657E-1,1.872319382E-1,-8.302300707E-2,3.865673933E-1
1.523038962E1,2.225912207E-1,2.389862287E-1,4.464458786E-2,3.296276813E-1
1.524047062E1,1.805190423E-1,2.604121810E-1,1.723517977E-2,3.173305533E-1
1.525055162E1,1.486142948E-1,1.105205619E-1,-1.885025382E-2,1.861621210E-1
1.526063262E1,-6.502513111E-2,-1.708141261E-1,-1.305624783E-1,2.246158812E-1
1.527071362E1,-3.814086145E-1,-3.027372515E-1,-2.696296587E-1,5.566170385E-1
1.528079462E1,-5.942446330E-1,-4.009184343E-1,-3.461709541E-1,7.960506292E-1
1.529087562E1,-6.556301647E-1,-3.668098712E-1,-4.847557392E-1,8.940852986E-1
1.530095563E1,-5.534336990E-1,-1.824892616E-1,-5.227318700E-1,7.828408508E-1
1.531103663E1,-3.804297906E-1,1.227213621E-2,-4.372103477E-1,5.796812219E-1
1.532111763E1,-1.484113964E-1,2.333389878E-1,-2.489744425E-1,3.721038818E-1
1.533119862E1,6.641559899E-2,4.757130933E-1,-4.893827140E-2,4.828135596E-1
1.534127962E1,1.995987993E-1,5.508001131E-1,4.781736016E-2,5.877983882E-1
1.535136062E1,2.860960758E-1,4.194406593E-1,1.499436593E-1,5.294001626E-1
1.536144162E1,3.233001548E-1,1.668713486E-1,2.510572938E-1,4.420393669E-1
1.537152162E1,2.264208546E-1,2.304446161E-2,3.129177656E-1,3.869301987E-1
1.538160262E1,4.586205125E-2,-1.583811915E-1,2.876853490E-1,3.315882832E-1
1.539168362E1,-2.442142242E-1,-2.962620449E-1,2.319350713E-1,4.485595433E-1
1.540176462E1,-5.383461285E-1,-2.163510722E-1,2.070674479E-1,6.160367428E-1
1.541184562E1,-6.984528333E-1,2.463548899E-2,1.327710447E-1,7.113869678E-1
1.542192663E1,-7.036752740E-1,2.539533466E-1,1.431449555E-2,7.482353228E-1
1.543200662E1,-5.152683377E-1,5.210640979E-1,-2.695054784E-2,7.333045656E-1
1.544208762E1,-2.907998684E-1,7.968603033E-1,-4.838351682E-2,8.496422018E-1
1.545216862E1,-1.476112050E-1,9.090256870E-1,-1.519675268E-1,9.333867883E-1
1.546224962E1,-8.834821254E-2,8.177822256E-1,-2.968299557E-1,8.744605181E-1
1.547233062E1,-1.358673647E-1,6.953193104E-1,-3.793217432E-1,8.036254533E-1
1.548241162E1,-2.710169837E-1,6.288879240E-1,-3.849805324E-1,7.855954663E-1
1.549249262E1,-4.275811529E-1,6.047447705E-1,-3.496867387E-1,8.190376640E-1
1.550257263E1,-5.580322418E-1,6.992884004E-1,-1.281697977E-1,9.037874456E-1
1.551265363E1,-5.730832672E-1,8.783804297E-1,1.279704076E-1,1.056576091E0
1.552273463E1,-6.901407239E-1,1.088496616E0,1.460961914E-1,1.297097991E0
1.553281563E1,-7.698087448E-1,1.416932965E0,9.740818083E-2,1.615485340E0
1.554289663E1,-8.810514379E-1,1.799851331E0,1.367792380E-1,2.008587814E0
1.555297763E1,-1.017742675E0,2.155520502E0,8.884252153E-2,2.385364077E0
1.556305863E1,-1.116874615E0,2.426817275E0,-4.121124901E-2,2.671806385E0
1.557313862E1,-1.189293551E0,2.572247468E0,-3.181622795E-1,2.851684313E0
1.558321962E1,-1.345691366E0,2.571290864E0,-6.023813991E-1,2.963998197E0
1.559330062E1,-1.494259761E0,2.648434934E0,-7.861745898E-1,3.140874133E0
1.560338162E1,-1.505853035E0,2.837445011E0,-8.410729281E-1,3.320555860E0
1.561346262E1,-1.510359484E0,3.146092628E0,-8.359787607E-1,3.588585387E0
1.562354362E1,-1.423193286E0,3.461349353E0,-8.665766555E-1,3.841532711E0
1.563362462E1,-1.228740037E0,3.641149480E0,-9.055969528E-1,3.948148611E0
1.564370462E1,-1.022725965E0,3.780057689E0,-9.782111120E-1,4.036297996E0
1.565378562E1,-6.202767295E-1,3.687465275E0,-1.057075506E0,3.885814200E0
1.566386662E1,-4.819070488E-2,3.275738847E0,-9.820710053E-1,3.420124384E0
1.567394762E1,4.383587408E-1,2.507700639E0,-7.794712687E-1,2.662385461E0
1.568402862E1,7.620611840E-1,1.569555234E0,-5.995023032E-1,1.844896716E0
1.569410962E1,8.194454661E-1,7.216393822E-1,-3.992968552E-1,1.162623004E0
1.570418963E1,8.380945757E-1,2.274906027E-1,-2.009612006E-1,8.913696743E-1
1.571427025E1,9.595421219E-1,-1.115157580E-1,9.037865818E-2,9.702191246E-1
1.572435125E1,1.142823389E0,-2.694724417E-1,3.916845113E-1,1.237771163E0
1.573443225E1,1.260025564E0,-2.876473421E-1,5.853208318E-1,1.418804388E0
1.574451325E1,1.489886628E0,-1.865554154E-1,5.679977976E-1,1.605361824E0
1.575459425E1,2.013629920E0,-1.452360660E-1,5.282877481E-1,2.086836581E0
1.576467525E1,2.492087404E0,-5.296179897E-1,2.976772173E-1,2.565074379E0
1.577475525E1,2.982969929E0,-1.557106512E0,9.010559320E-4,3.364920667E0
1.578483625E1,3.361992880E0,-2.985648538E0,-1.975891844E-1,4.500681593E0
1.579491725E1,3.546504693E0,-4.593766159E0,-3.025090639E-1,5.811359118E0
1.580499825E1,3.648917798E0,-6.378467939E0,-2.421941574E-1,7.352422210E0
1.581507925E1,3.445126837E0,-7.667766711E0,3.430262484E-1,8.413157093E0
1.582516025E1,3.271354605E0,-9.197266763E0,6.340128623E-1,9.782302857E0
1.583524025E1,3.100766474E0,-1.038937487E1,1.031115550E0,1.089114605E1
1.584532125E1,3.454277145E0,-1.086144866E1,8.198445386E-1,1.142695246E1
1.585540225E1,4.754797894E0,-1.161393269E1,2.676083493E-1,1.255241609E1
1.586548325E1,6.649230861E0,-1.348798401E1,-2.781619889E-1,1.504045737E1
1.587556425E1,8.288671432E0,-1.594707850E1,-5.756871054E-1,1.798173525E1
1.588564525E1,9.085025951E0,-1.798988983E1,2.318736025E-1,2.015508864E1
1.589572625E1,8.504234884E0,-1.833209462E1,1.816617637E0,2.029009127E1
1.590580625E1,7.364504964E0,-1.648496621E1,3.458854930E0,1.838351767E1
1.591588725E1,6.915439387E0,-1.404098210E1,4.221010255E0,1.621078060E1
1.592596825E1,6.743835302E0,-1.198479000E1,4.293707517E0,1.440661064E1
1.593604925E1,6.079148385E0,-1.028355547E1,3.642684374E0,1.248906352E1
1.594613025E1,4.792642535E0,-9.166598117E0,2.265345830E0,1.058903845E1
1.595621125E1,2.941753491E0,-8.831359118E0,4.531007044E-1,9.319448359E0
1.596629225E1,7.977262759E-1,-8.979543350E0,-1.568278202E0,9.150303957E0
1.597637225E1,-1.538249241E0,-8.755249420E0,-2.814129823E0,9.324158396E0
1.598645325E1,-4.101890777E0,-7.204547948E0,-2.745418607E0,8.733174819E0
1.599653425E1,-6.526809461E0,-4.485616643E0,-1.318200974E0,8.028552312E0
1.600661525E1,-8.440234185E0,-9.068657255E-1,8.387363076E-1,8.530148717E0
1.601669625E1,-9.479784343E0,3.063625252E0,2.602693920E0,1.029689888E1
1.602677725E1,-9.691911972E0,6.690112254E0,3.590665205E0,1.231193065E1
1.603685725E1,-9.428786098E0,9.519403907E0,3.737804539E0,1.391014884E1
1.604693825E1,-8.720534500E0,1.129969630E1,2.705901954E0,1.452765514E1
1.605701925E1,-7.369417210E0,1.231659376E1,9.124790525E-1,1.438191260E1
1.606710025E1,-6.295395961E0,1.270188317E1,-7.741070330E-1,1.419750288E1
1.607718125E1,-5.477815465E0,1.239037276E1,-2.025149812E0,1.369777468E1
1.608726225E1,-4.884592048E0,1.139731323E1,-2.706014221E0,1.269174934E1
1.609734325E1,-4.370332940E0,9.775886174E0,-3.096676639E0,1.114706987E1
1.610742325E1,-4.147799022E0,7.948227240E0,-2.947152225E0,9.437386250E0
1.611750425E1,-4.125887750E0,6.208674152E0,-2.316281510E0,7.806135054E0
1.612758525E1,-4.150824371E0,4.804556530E0,-1.426589057E0,6.507554283E0
1.613766625E1,-4.273252203E0,4.077598520E0,-3.433274531E-1,5.916533429E0
1.614774725E1,-4.123242470E0,4.094404002E0,4.910352103E-1,5.831499651E0
1.615782825E1,-4.048613872E0,4.392745317E0,1.365062315E0,6.127877351E0
1.616790825E1,-4.184035386E0,4.784986483E0,2.087414473E0,6.690257614E0
1.617798925E1,-4.390514020E0,5.289180779E0,2.253111116E0,7.233847965E0
1.618807025E1,-4.217450470E0,5.949168874E0,2.087292266E0,7.585267811E0
1.619815125E1,-3.869068683E0,7.060877182E0,2.155937408E0,8.335091191E0
1.620823225E1,-3.851710054E0,8.196245663E0,2.455363966E0,9.383119179E0
1.621831325E1,-4.069622333E0,8.870079964E0,2.228080355E0,1.001021911E1
1.622839425E1,-4.593297213E0,8.999809799E0,1.633064182E0,1.023532385E1
1.623847425E1,-5.541622621E0,8.569033143E0,1.322401614E0,1.029012421E1
1.624855525E1,-6.656120635E0,8.598242909E0,9.152442008E-1,1.091198401E1
1.625863625E1,-7.649944983E0,1.027799828E1,7.209979427E-1,1.283272165E1
1.626871725E1,-7.564279180E0,1.303067211E1,4.123590599E-1,1.507271625E1
1.627879825E1,-6.721085540E0,1.552730222E1,-4.149810245E-1,1.692460677E1
1.628887925E1,-6.044739275E0,1.729013950E1,-9.256382114E-1,1.833970019E1
1.629895925E1,-5.722858239E0,1.732670916E1,-9.801371849E-1,1.827365934E1
1.630904025E1,-5.919957354E0,1.479576408E1,-1.135717633E0,1.597655734E1
1.631912125E1,-7.333861461E0,1.067670822E1,-1.546181574E0,1.304485722E1
1.632920225E1,-9.062795421E0,6.022823911E0,-2.478291484E0,1.116022390E1
1.633928325E1,-9.918870478E0,1.765579630E0,-4.179934734E0,1.090747988E1
1.634936425E1,-8.487517694E0,-6.030186725E-1,-5.753923911E0,1.027176852E1
1.635944525E1,-3.900032614E0,-1.454858590E0,-5.868226452E0,7.194647288E0
1.636952525E1,2.196692501E0,-2.082671796E0,-5.546206253E0,6.318495356E0
1.637960625E1,7.997452610E0,-3.534754713E0,-5.675536723E0,1.042427246E1
1.638968725E1,1.251427175E1,-5.600284812E0,-5.513712691E0,1.477738864E1
1.639976825E1,1.490321252E1,-7.542400069E0,-4.555382112E0,1.731314669E1
1.640984925E1,1.489937791E1,-8.926086935E0,-2.606493441E0,1.756303784E1
1.641993025E1,1.349757696E1,-9.900865731E0,1.037389612E-1,1.673984730E1
1.643001125E1,1.164970478E1,-1.021059391E1,3.341967335E0,1.584741604E1
1.644009125E1,1.035206847E1,-1.057294002E1,6.042196321E0,1.598313231E1
1.645017225E1,9.361988676E0,-1.153439769E1,7.035664573E0,1.643744926E1
1.646025325E1,8.590435122E0,-1.231188675E1,6.561981048E0,1.638406928E1
1.647033425E1,7.750786064E0,-1.269728843E1,5.338992625E0,1.580508337E1
1.648041525E1,6.717866648E0,-1.254376978E1,3.785449407E0,1.472431730E1
