"Time (s)","Linear Acceleration x (m/s^2)","Linear Acceleration y (m/s^2)","Linear Acceleration z (m/s^2)","Absolute acceleration (m/s^2)"
-2.277499996E-3,8.545226204E-1,4.861737621E-1,-1.023152812E0,1.418948735E0
7.803500004E-3,7.051288918E-1,3.594461802E-1,-1.622277238E0,1.805046190E0
1.788450000E-2,6.781165096E-1,2.761271578E-1,-2.786745558E0,2.881325912E0
2.796550000E-2,4.982891929E-1,-1.548860183E-1,-3.258415886E0,3.299932709E0
3.804550000E-2,7.640846130E-1,-6.124695271E-1,-2.798396720E0,2.964788090E0
4.812650000E-2,9.102164724E-1,-8.189613166E-1,-1.743735602E0,2.130681936E0
5.820750000E-2,9.448670724E-1,-9.677086356E-1,-9.068651408E-1,1.628385142E0
6.828850000E-2,6.543472856E-1,-9.942254663E-1,-8.318915570E-1,1.452135741E0
7.836950000E-2,2.195242099E-1,-8.753471866E-1,-1.354450203E0,1.627562266E0
8.844950001E-2,4.569764216E-1,-9.952864435E-1,-2.435954719E0,2.670823458E0
9.853049999E-2,7.993300210E-1,-9.274023163E-1,-3.977326958E0,4.161506130E0
1.086115000E-1,9.530467424E-1,-7.881111145E-1,-5.459617175E0,5.597931486E0
1.186925000E-1,1.289549910E0,-7.832669887E-1,-6.094908970E0,6.278882185E0
1.287735000E-1,1.648225720E0,-4.328600192E-1,-2.297021366E0,2.860126392E0
1.388535000E-1,3.045723417E0,-3.125339690E-1,5.942097251E0,6.684506591E0
1.489345000E-1,3.468991663E0,-1.544321867E0,7.856438234E0,8.725964412E0
1.590155000E-1,2.518969393E0,-2.918708444E0,6.852570709E0,7.862683455E0
1.690965000E-1,1.017512149E0,-3.781664211E0,2.833851312E0,4.833945432E0
1.791775000E-1,-3.691178769E-1,-3.731498609E0,-2.678013074E-1,3.759261552E0
1.892575000E-1,-8.832939912E-1,-2.828582386E0,-1.358358482E0,3.259789005E0
1.993391250E-1,-8.228349508E-1,-9.907759014E-1,1.857537621E-1,1.301229689E0
2.094201250E-1,-5.187076700E-1,-1.760807133E-1,1.080171935E0,1.211129008E0
2.195011250E-1,8.495317295E-2,4.174909052E-1,1.322872315E0,1.389786624E0
2.295821250E-1,4.059017238E-1,1.013683538E0,1.546865113E0,1.893436612E0
2.396621250E-1,3.391292985E-1,-1.516723886E-1,2.475381909E0,2.503103831E0
2.497431250E-1,7.920237789E-1,-2.376514556E0,3.102372996E0,3.987460508E0
2.598241250E-1,1.601671943E0,-3.585521409E0,3.444770742E0,5.223768970E0
2.699051250E-1,1.819141003E0,-3.042147552E0,3.111982895E0,4.716818128E0
2.799861250E-1,1.389224033E0,-1.605118145E0,1.111331162E0,2.396122832E0
2.900661250E-1,4.499474837E-1,-4.801920605E-1,-9.224818844E-1,1.133141642E0
3.001471250E-1,-6.561195767E-1,-7.809954916E-1,-3.611784178E0,3.753056329E0
3.102281250E-1,-4.070567535E0,-2.747549040E0,-5.792769889E0,7.594387979E0
3.203091250E-1,-4.666261693E0,-3.340040385E0,-7.194221181E0,9.202536953E0
3.303901250E-1,-4.532903661E0,-3.341735786E0,-6.097395206E0,8.300159153E0
3.404701250E-1,-3.617769096E0,-2.832376644E0,-4.701902227E0,6.574077520E0
3.505511250E-1,-1.865605609E0,-3.737265134E0,-3.758642262E0,5.619166007E0
3.606321250E-1,1.139645720E-1,-4.872561986E0,-1.782200925E0,5.189517162E0
3.707131250E-1,-1.217886727E0,-6.207986519E0,-2.748585459E0,6.897613118E0
3.807941250E-1,-3.815967779E0,-7.966724322E0,-3.967259222E0,9.683462823E0
3.908741250E-1,-7.235105497E0,-9.085815910E0,-4.703126634E0,1.253069042E1
4.009551250E-1,-7.761230360E0,-1.008869701E1,-4.289870574E0,1.343210682E1
4.110361250E-1,-6.447855678E0,-1.067657724E1,-4.053924898E0,1.311481801E1
4.211171250E-1,-5.214570308E0,-1.006446264E1,-4.674667650E0,1.226122626E1
4.311981250E-1,-3.425945631E0,-8.844551021E0,-4.815912407E0,1.063749024E1
4.412781250E-1,-1.522509706E0,-7.869022611E0,-4.433112740E0,9.159259862E0
4.513591250E-1,7.651666403E-3,-7.577557622E0,-3.625570743E0,8.400250072E0
4.614401250E-1,1.394986026E0,-7.638334751E0,-2.122220755E0,8.049469841E0
4.715211250E-1,3.509254421E0,-7.388651626E0,2.874633887E0,8.670095699E0
4.816021250E-1,5.783466969E0,-6.303214273E0,1.951986526E0,8.774351928E0
4.916821250E-1,9.774969331E0,-4.177054688E0,3.439881885E-1,1.063560714E1
5.017631250E-1,1.147023853E1,-1.403223875E0,-4.221349832E-1,1.156346000E1
5.118441250E-1,1.258491781E1,1.274266165E-1,-1.593447542E0,1.268603440E1
5.219251250E-1,1.376131679E1,1.066335084E0,-3.089119112E0,1.414402938E1
5.320061250E-1,1.476161283E1,2.347135513E0,-3.961346517E0,1.546306971E1
5.420861250E-1,1.545013534E1,3.456631819E0,-3.645064191E0,1.624627584E1
5.521671250E-1,1.547081577E1,3.915340624E0,-2.887015366E0,1.621761051E1
5.622481250E-1,1.550900277E1,4.396787497E0,-3.114962052E0,1.641840113E1
5.723291250E-1,1.505537812E1,4.860785109E0,-4.347031201E0,1.640695957E1
5.824101250E-1,1.351141498E1,5.365605057E0,-5.172666821E0,1.543063623E1
5.924901250E-1,1.179147170E1,5.874119861E0,-5.933263278E0,1.444810375E1
6.025711250E-1,9.973885760E0,6.370139165E0,-6.814409441E0,1.365625301E1
6.126521250E-1,7.685353966E0,6.133102398E0,-8.037103164E0,1.269939518E1
6.227331250E-1,3.819609425E0,4.279053810E0,-1.054177319E1,1.200119576E1
6.328141250E-1,7.950809956E-2,2.465733418E0,-1.162210593E1,1.188105673E1
6.428941250E-1,1.584794832E0,4.003221352E0,-5.939689953E0,7.336025667E0
6.529751250E-1,1.944300946E0,1.850450211E0,-4.194289649E0,4.979612215E0
6.630561250E-1,4.572329682E-1,5.866844755E-1,-4.519529909E0,4.580328729E0
6.731371250E-1,-4.851446521E-1,1.245398462E0,-5.027356496E0,5.201989619E0
6.832181250E-1,-5.657941282E-2,2.519658195E0,-4.992963173E0,5.592992035E0
6.932981250E-1,-2.914252281E-2,3.190189404E0,-5.215647365E0,6.114011380E0
7.033791250E-1,2.422969222E-2,2.818273745E0,-6.097071855E0,6.716959073E0
7.134601250E-1,-1.628005756E0,1.528484391E0,-4.626918118E0,5.137610198E0
7.235411250E-1,-3.581201486E0,-5.620144880E-1,-4.769001511E-1,3.656268333E0
7.336221250E-1,-3.256473441E0,-2.650530576E0,4.471216121E0,6.133653496E0
7.437021250E-1,-2.415858423E0,-2.721262590E0,5.936897907E0,6.963361169E0
7.537831250E-1,-1.211151320E0,-1.252216315E0,6.289300239E0,6.526119116E0
7.638641250E-1,1.076519179E-1,3.457189643E-1,5.195905995E0,5.208507430E0
7.739451250E-1,1.313981624E0,1.933054996E0,1.414133903E0,2.731853587E0
7.840261250E-1,1.777383989E0,3.267547190E0,-1.215762507E0,3.913315341E0
7.941061250E-1,1.717157083E0,3.441021507E0,-3.049242271E0,4.907864698E0
8.041871250E-1,1.530729137E0,2.658840347E0,-4.662622971E0,5.581452916E0
8.142681250E-1,2.209378620E0,3.493521903E0,-4.442825550E0,6.068339809E0
8.243491250E-1,4.106155152E0,4.768270463E0,-6.694098593E-1,6.328113692E0
8.344301250E-1,5.981827912E0,2.311841134E0,3.494770283E0,7.303443978E0
8.445101250E-1,9.228601992E-1,-1.658132949E-1,3.447903680E0,3.573122554E0
8.545911250E-1,-4.058298615E0,-1.289522428E0,-5.875985415E-1,4.298596025E0
8.646721250E-1,-3.852400026E0,-1.097650724E0,-2.144564574E0,4.543674755E0
8.747531250E-1,-2.481597499E0,-8.685804963E-1,-6.498196404E-1,2.708324905E0
8.848341250E-1,-1.089301193E0,-1.721045482E0,-5.089860892E-1,2.099438372E0
8.949141250E-1,-7.864048970E-1,-2.138600999E0,-1.683489400E0,2.833051968E0
9.049951250E-1,-2.850096631E-1,-1.222906562E0,-1.970523369E0,2.336598664E0
9.150761250E-1,7.256189972E-1,2.036791034E0,2.864363837E0,3.588818864E0
9.251571250E-1,-9.317391962E-1,-3.040529628E0,4.651363572E0,5.634548911E0
9.352381250E-1,-5.177690749E0,-6.747481041E0,4.742360135E-1,8.518326226E0
9.453181250E-1,-7.301988873E0,-5.170187602E0,-9.251910456E-1,8.994768469E0
9.553991250E-1,-7.368853539E0,-3.934751042E0,1.429714394E-1,8.354801557E0
9.654801250E-1,-5.539111242E0,-3.137767070E0,-6.549560539E-1,6.399711163E0
9.755611250E-1,-1.459994200E0,-5.523104489E-1,-2.413734714E0,2.874499116E0
9.856421250E-1,1.256882393E0,2.140169514E0,-1.543637012E0,2.922822972E0
9.957221250E-1,1.900789475E0,3.193175578E0,-7.869709074E-1,3.798512091E0
1.005803125E0,1.281231369E0,3.395631911E0,-1.195547513E0,3.821152150E0
1.015884125E0,4.832671112E-1,2.974381831E0,-3.186669965E0,4.385813476E0
1.025965125E0,2.277502191E-1,8.129193887E-1,-4.590245551E0,4.667232832E0
1.036046125E0,-7.707647645E-1,-1.170353542E0,-4.850168320E0,5.048558058E0
1.046126125E0,-9.497608995E-1,-1.189326295E0,-4.756929789E0,4.994489345E0
1.056207125E0,1.390786555E0,-2.010600185E-1,-2.737384533E0,3.077009336E0
1.066288125E0,4.563600959E0,6.170823956E-1,-2.176220376E-2,4.605183817E0
1.076369125E0,6.260322023E0,5.144757476E-1,2.245374080E0,6.670683764E0
1.086450125E0,5.327904550E0,2.949674714E-1,2.293477954E0,5.808064551E0
1.096530125E0,2.738615956E0,-8.660574228E-1,2.425274194E0,3.759258934E0
1.106611125E0,6.815596426E-1,-1.855188210E0,2.267582974E0,3.008019180E0
1.116692125E0,-4.888821924E-1,-1.894687029E0,2.985308815E0,3.569441617E0
1.126773125E0,-1.229533212E0,-2.419210047E0,2.337422118E0,3.581601783E0
1.136854125E0,-1.075941474E0,-2.494483008E0,2.273915509E0,3.542709031E0
1.146934125E0,-6.675292486E-1,-2.604987783E0,2.535958478E0,3.696301131E0
1.157015125E0,-7.921497864E-1,-3.109239382E0,1.384481503E0,3.494518543E0
1.167096125E0,-1.480542485E0,-3.124263802E0,2.039286991E-1,3.463324598E0
1.177177125E0,-2.156694038E0,-2.976236860E0,-2.581965979E-1,3.684559744E0
1.187258125E0,-1.942407618E0,-3.523660206E0,-2.003359871E-1,4.028555958E0
1.197337750E0,-1.411785076E0,-3.607406368E0,-3.092333619E-1,3.886147588E0
1.207418750E0,-1.358933263E0,-2.812187378E0,-4.074418804E-1,3.149778778E0
1.217499750E0,-1.120962696E0,-1.360559374E0,-2.897318745E-1,1.786511611E0
1.227580750E0,-2.946756953E-1,7.314913559E-1,1.946641294E0,2.100315618E0
1.237661750E0,4.261614490E-1,2.991954176E0,5.470362604E0,6.249661622E0
1.247741750E0,-5.458311492E-1,3.730831150E0,9.752183609E-1,3.894622390E0
1.257822750E0,-1.851612053E0,3.593943154E0,-4.278574923E0,5.886518322E0
1.267903750E0,-2.194695677E0,3.520419679E0,-5.043018848E0,6.530090576E0
1.277984750E0,-1.911764699E0,3.232036757E0,-3.149918461E0,4.901315352E0
1.288065750E0,-1.678715733E0,2.740450228E0,-2.415205581E-1,3.222807184E0
1.298145750E0,-2.021825085E0,2.016949092E0,1.916001592E0,3.439029284E0
1.308226750E0,-1.966256656E0,1.394566196E0,2.981218103E0,3.833880735E0
1.318307750E0,-9.473115009E-1,1.257710359E0,1.835899415E0,2.418627935E0
1.328388750E0,4.733309376E-1,1.015469570E0,4.523148751E-1,1.208225712E0
1.338469750E0,1.623252262E0,1.060427057E0,-3.676066128E0,4.156069733E0
1.348549750E0,1.951895310E0,2.316137668E0,-3.281208333E0,4.465503009E0
1.358630750E0,1.842942386E0,3.770239044E0,-9.628054529E-1,4.305593273E0
1.368711750E0,1.366710060E0,4.902047741E0,1.389000816E0,5.275157979E0
1.378792750E0,1.241440043E0,6.062971478E0,1.515725182E0,6.371673199E0
1.388873750E0,1.720043123E0,6.306951229E0,8.791896844E-1,6.596147106E0
1.398953750E0,3.302014773E0,3.843646159E0,-1.456901608E0,5.272521185E0
1.409034750E0,4.941546852E0,-2.486966997E0,-3.851412431E0,6.740717161E0
1.419115750E0,4.984018688E0,-6.362748284E0,-4.473885959E0,9.238001060E0
1.429196750E0,5.840744539E0,-7.172141510E0,-2.864629886E0,9.682975523E0
1.439277750E0,5.670441459E0,-7.486207741E0,-4.757183558E-1,9.403378151E0
1.449357750E0,2.792926357E0,-1.008348831E1,3.070674655E0,1.090441273E1
1.459438750E0,-7.312600985E-2,-1.119846580E1,4.872318742E0,1.221271770E1
1.469519750E0,-3.398736783E0,-9.292674612E0,5.482757531E0,1.131219887E1
1.479600750E0,-6.068395355E0,-6.840996730E0,2.559518080E0,9.496093473E0
1.489681750E0,-7.010137383E0,-3.741516936E0,-1.703837711E0,8.126748308E0
1.499761750E0,-7.079273692E0,-6.851141649E-1,-5.807814775E0,9.182385849E0
1.509842750E0,-6.236705704E0,1.707223248E0,-6.886664069E0,9.446547055E0
1.519923750E0,-4.695748032E0,3.154841232E0,-4.484891589E0,7.219233016E0
1.530004750E0,-3.079675859E0,3.653107620E0,-1.367669588E0,4.969921407E0
1.540084750E0,-1.801374530E0,2.971757893E0,1.092260469E0,3.642708896E0
1.550165750E0,-1.292038047E0,1.318668752E0,2.197145076E0,2.869790249E0
1.560246750E0,-8.922141380E-1,5.487085640E-2,2.253234492E0,2.424071483E0
1.570327750E0,-3.830181337E-1,-4.183460605E-1,1.840909894E0,1.926308790E0
1.580408750E0,-1.202114448E-3,-4.010909271E-1,1.270704626E0,1.332503518E0
1.590488750E0,2.051383053E-1,-1.926026058E-1,7.093929738E-1,7.631617648E-1
1.600569750E0,2.548916785E-1,6.649278224E-2,1.292410076E-1,2.934182951E-1
1.610650750E0,8.294377729E-2,2.119954813E-1,-5.233480203E-1,5.707143810E-1
1.620731750E0,-4.643573619E-2,2.823211133E-1,-1.017740629E0,1.057193207E0
1.630812750E0,-5.360997744E-2,2.300405735E-1,-1.016515052E0,1.043597406E0
1.640892750E0,-4.788664967E-2,1.448133123E-1,-5.090375447E-1,5.313974488E-1
1.650973750E0,-1.240413710E-1,1.449811274E-1,2.088310047E-1,2.828713092E-1
1.661054750E0,-3.900616166E-1,6.599927723E-2,6.352075946E-1,7.483265715E-1
1.671135750E0,-5.922188652E-1,1.930230206E-1,7.770739102E-1,9.959040781E-1
1.681216750E0,-7.146006502E-1,3.696603888E-1,9.523044384E-1,1.246670219E0
1.691296750E0,-7.428851672E-1,4.029328001E-1,1.037718226E0,1.338316976E0
1.701377750E0,-7.505374184E-1,4.450052708E-1,1.033221717E0,1.352362090E0
1.711458750E0,-6.809635189E-1,5.750040776E-1,8.934639072E-1,1.261989999E0
1.721539750E0,-6.826191580E-1,5.507650298E-1,7.105138850E-1,1.128778549E0
1.731620750E0,-7.268232313E-1,4.738782370E-1,6.887833659E-1,1.107815471E0
1.741700750E0,-6.562868071E-1,3.470106143E-1,5.659695812E-1,9.335150274E-1
1.751781750E0,-5.595184578E-1,2.425313956E-1,3.298964719E-1,6.933354633E-1
1.761862750E0,-3.357503387E-1,1.590401727E-1,1.204666758E-1,3.905563806E-1
1.771943750E0,-1.566762165E-1,3.831329584E-2,5.847804029E-2,1.715663914E-1
1.782024750E0,-1.488359774E-1,-1.987000823E-2,2.933488890E-1,3.295459544E-1
1.792104750E0,-2.616623157E-1,2.140958011E-2,8.845797209E-1,9.227170857E-1
1.802185750E0,-2.406078809E-1,1.629630697E-1,1.283212405E0,1.315706347E0
1.812266750E0,1.488502300E-1,4.847131276E-1,1.016712615E0,1.136137205E0
1.822347750E0,6.367698245E-1,7.427238572E-1,5.741954807E-1,1.134378679E0
1.832428750E0,7.111776171E-1,7.455188262E-1,6.206890313E-1,1.202841135E0
1.842508750E0,5.092727490E-1,4.835805219E-1,1.045478504E0,1.259457882E0
1.852589750E0,3.004428041E-1,1.436538094E-1,1.341558262E0,1.382273803E0
1.862670750E0,1.579193345E-1,-2.030504107E-2,1.193361824E0,1.203936565E0
1.872751750E0,3.928532235E-2,-6.695061922E-4,1.142560995E0,1.143236376E0
1.882831750E0,-1.786090493E-2,2.594450516E-1,1.025948950E0,1.058395954E0
1.892912750E0,3.089478716E-1,8.806140661E-1,8.036519904E-1,1.231578841E0
1.902993750E0,6.243667106E-1,1.456443771E0,5.746259089E-1,1.685602913E0
1.913074750E0,5.957489754E-1,1.782953462E0,9.789749046E-1,2.119488559E0
1.923155750E0,3.471303360E-1,1.836112838E0,1.407003954E0,2.339117345E0
1.933235750E0,4.842868656E-1,1.944756444E0,8.499512672E-1,2.176930994E0
1.943316750E0,7.984305730E-1,2.137852555E0,-1.884860198E-1,2.289854123E0
1.953397750E0,1.105209712E0,2.378643234E0,-1.511040977E0,3.026991407E0
1.963478750E0,6.686956219E-1,2.409303694E0,-1.800497740E0,3.081183253E0
1.973559750E0,1.170498553E-1,2.674139294E0,-1.660417164E0,3.149874091E0
1.983639750E0,-4.724857226E-2,3.373982595E0,-2.931795975E0,4.470058011E0
1.993720750E0,1.687670159E-1,3.972462659E0,-5.578577024E0,6.850508265E0
2.003801750E0,1.555247974E0,4.861891403E0,-8.620538342E0,1.001850615E1
2.013882750E0,3.208173686E0,4.929291088E0,-8.574479240E0,1.039769125E1
2.023963750E0,3.325752714E0,3.681722140E0,-4.542455380E0,6.726783028E0
2.034043750E0,1.374230164E0,1.664084246E0,2.255908424E0,3.121987786E0
2.044124750E0,-2.090655292E0,4.495076269E-1,8.046913038E0,8.326205984E0
2.054205750E0,-2.864804425E0,1.752605828E0,7.818613181E0,8.509373869E0
2.064286750E0,-1.711166318E0,3.761151887E0,5.674319333E0,7.019419746E0
2.074367750E0,-6.140181622E-1,4.813090541E0,4.292275534E0,6.478154685E0
2.084447750E0,9.094098490E-1,4.960270806E0,2.526080192E0,5.640247679E0
2.094528750E0,3.589035001E0,4.501305892E0,-2.707015264E-1,5.763350266E0
2.104609750E0,6.104753927E0,2.821724187E0,-1.810778607E0,6.964845085E0
2.114690750E0,6.232745969E0,-8.564217961E-1,-7.982512097E-1,6.341749412E0
2.124771750E0,5.696036476E0,-5.025510530E0,-1.461099031E0,7.735334382E0
2.134851750E0,2.828031578E0,-8.688275996E0,-5.085878938E-2,9.137094123E0
2.144932750E0,-1.408500695E-1,-1.169388868E1,1.979893532E-1,1.169641274E1
2.155013750E0,-1.812198896E0,-1.546112928E1,-2.412876928E0,1.575285874E1
2.165094750E0,-3.487464187E0,-1.388760378E1,-4.751258866E0,1.508649748E1
2.175175750E0,-7.206137806E-1,-9.991244974E0,-8.500696734E-2,1.001755891E1
2.185255750E0,3.574128986E0,-9.526054530E0,-1.319524492E0,1.025969092E1
2.195336750E0,6.577593114E0,-1.235529765E1,-5.691408990E0,1.510993870E1
2.205417917E0,6.690546117E0,-1.715862627E1,-2.479808836E0,1.858309217E1
2.215498917E0,5.345536829E0,-2.252925174E1,-1.556740476E0,2.320701163E1
2.225579917E0,3.442410806E0,-2.540927208E1,-3.100979605E0,2.582822825E1
2.235659917E0,2.510190091E0,-2.346230832E1,-1.685153225E0,2.365630375E1
2.245740917E0,2.175401035E0,-1.947885991E1,-2.599614192E0,1.977160456E1
2.255821917E0,3.029965463E0,-1.582615458E1,-3.412311094E0,1.647093581E1
2.265902917E0,4.916186308E0,-1.273912526E1,-1.206507461E0,1.370802175E1
2.275983917E0,6.313959117E0,-9.880664771E0,2.205529252E0,1.193138614E1
2.286063917E0,6.471980120E0,-7.104079919E0,4.020682307E0,1.041731080E1
2.296144917E0,5.698661876E0,-4.328541135E0,2.322698829E0,7.523692271E0
2.306225917E0,4.969520516E0,-1.573174075E0,3.158595729E-1,5.222143057E0
2.316306917E0,4.301076179E0,1.502297636E0,-6.165011092E-1,4.597415371E0
2.326386917E0,3.457063636E0,4.120926973E0,-7.218375298E-1,5.427188730E0
2.336467917E0,1.982026597E0,6.141452807E0,-3.137440503E-1,6.460983465E0
2.346548917E0,2.056230395E-1,7.483516853E0,-6.637735820E-1,7.515710258E0
2.356629917E0,-8.882726030E-1,8.610719113E0,-1.389861526E0,8.767281615E0
2.366710917E0,-1.607344765E0,9.757091469E0,-1.474054999E0,9.997861235E0
2.376790917E0,-2.040506647E0,1.057940236E1,-3.057889134E0,1.119991552E1
2.386871917E0,-2.900508108E0,1.114991753E1,-6.306929594E0,1.313434312E1
2.396952917E0,-3.936014625E0,1.139954219E1,-9.094094397E0,1.510444723E1
2.407033917E0,-3.942726644E0,1.126162508E1,-7.930872120E0,1.432717786E1
2.417114917E0,-3.116713293E0,1.114514504E1,-4.702396901E0,1.249162504E1
2.427194917E0,-2.212343305E0,1.116153361E1,-1.344575425E0,1.145784354E1
2.437275917E0,-1.339948231E0,1.122268613E1,1.409882977E0,1.138999189E1
2.447356917E0,-5.319375801E-1,1.128674238E1,3.006745877E0,1.169247758E1
2.457437917E0,1.383021453E-1,1.133639343E1,3.891524330E0,1.198653015E1
2.467518917E0,5.478699271E-1,1.132372485E1,4.229194018E0,1.210012347E1
2.477598917E0,7.032089585E-1,1.132362895E1,4.081093401E0,1.205713062E1
2.487679917E0,7.330509545E-1,1.127514852E1,3.446117356E0,1.181279233E1
2.497760917E0,6.885907732E-1,1.114724769E1,2.543748139E0,1.145451627E1
2.507841917E0,5.874465505E-1,1.097391166E1,1.618518648E0,1.110816966E1
2.517921917E0,4.737009202E-1,1.081726008E1,8.388509130E-1,1.086007270E1
2.528002917E0,3.813431988E-1,1.069750676E1,3.170278831E-1,1.070899530E1
2.538083917E0,2.598785860E-1,1.057002694E1,-3.683977922E-2,1.057328537E1
2.548164917E0,1.964280736E-1,1.052285043E1,-2.266918731E-1,1.052712470E1
2.558245917E0,1.434815724E-1,1.054865303E1,-4.478674829E-1,1.055913126E1
2.568325917E0,9.727515668E-2,1.061744903E1,-8.649306643E-1,1.065306488E1
2.578406917E0,6.296387795E-2,1.077999460E1,-1.570448688E0,1.089396885E1
2.588487917E0,-5.042163692E-3,1.098293158E1,-2.156628549E0,1.119266984E1
2.598568917E0,-3.692644592E-2,1.107100117E1,-2.007537999E0,1.125160608E1
2.608649917E0,-4.330616020E-2,1.108013218E1,-1.436318239E0,1.117292328E1
2.618729917E0,1.551225382E-1,1.109850881E1,-1.031943516E0,1.114746017E1
2.628810917E0,2.958901620E-1,1.040281879E1,-8.287200272E-1,1.043996967E1
2.638891917E0,-1.448114119E-2,9.712674850E0,-9.944675410E-1,9.763463941E0
2.648972917E0,-6.743279524E-2,9.396535780E0,-1.340667146E0,9.491934484E0
2.659053917E0,4.089761898E-3,8.850738544E0,-1.583203804E0,8.991224822E0
2.669133917E0,-8.378965013E-2,8.304566503E0,-1.080275431E0,8.374953164E0
2.679214917E0,-3.218198591E-1,7.859488142E0,-2.834016423E-1,7.871177698E0
2.689295917E0,-3.497713041E-1,7.128670385E0,1.107021838E0,7.222588094E0
2.699376917E0,-4.318388030E-2,6.187241768E0,2.610704606E0,6.715623878E0
2.709457917E0,9.965764124E-1,-5.959306777E-1,1.475213917E0,1.877379562E0
2.719537917E0,2.368803686E0,-1.974859431E1,2.246232597E0,2.001658734E1
2.729618917E0,3.100298112E0,-3.840366105E1,5.786718020E0,3.896073839E1
2.739699917E0,1.974247169E0,-4.371362517E1,4.662520645E0,4.400588343E1
2.749780917E0,-1.650590772E0,-4.207409397E1,-7.013746870E-1,4.211229939E1
2.759860917E0,-1.611992571E0,-3.510895851E1,-5.044603443E0,3.550613344E1
2.769941917E0,8.618298858E-1,-1.961534211E1,-8.627372568E0,2.144611746E1
2.780022917E0,3.893044022E0,-8.923364471E0,-8.196224613E0,1.272636331E1
2.790103917E0,5.745713836E0,-5.748433961E0,-4.560787278E0,9.319790828E0
2.800184917E0,5.314685165E0,-5.415256104E0,-1.664008816E0,7.767869876E0
2.810264917E0,3.483521410E0,-5.719551054E0,-2.299744634E-1,6.700826362E0
2.820345917E0,1.332778375E0,-5.648274080E0,-3.197701542E-1,5.812189883E0
2.830426917E0,-5.880958472E-1,-5.389754643E0,-1.213207201E0,5.555824291E0
2.840507917E0,-2.187042695E0,-5.428486599E0,-1.516181849E0,6.045695155E0
2.850588917E0,-2.888098563E0,-5.210903519E0,-1.146029710E0,6.066960762E0
2.860668917E0,-2.729330578E0,-4.129323574E0,-6.089629519E-1,4.987122864E0
2.870749917E0,-2.384263578E0,-2.251620076E0,-3.545398911E-2,3.279597957E0
2.880830917E0,-1.942212759E0,-5.579530120E-2,8.577023363E-1,2.123901320E0
2.890911917E0,-1.235392706E0,2.135846375E0,1.944483379E0,3.141504495E0
2.900992917E0,-4.253265762E-1,4.056361433E0,2.552054694E0,4.811232059E0
2.911072917E0,8.302299793E-2,5.704588614E0,2.341227486E0,6.166893076E0
2.921153917E0,2.622378279E-1,7.033259028E0,1.693448963E0,7.239010335E0
2.931234917E0,3.211438479E-1,7.992759050E0,1.103511681E0,8.074965550E0
2.941315917E0,3.033659368E-1,8.588992029E0,6.420628703E-1,8.618297958E0
2.951396917E0,2.284308716E-1,8.885384467E0,3.278364247E-1,8.894364199E0
2.961476917E0,-1.718038770E-1,8.879616773E0,-1.673590064E-2,8.881294427E0
2.971557917E0,-1.001401754E0,8.067851332E0,-9.647180041E-1,8.186801049E0
2.981638917E0,-1.986942789E0,6.158706771E0,-2.159990113E0,6.822255347E0
2.991719917E0,-2.312278799E0,4.342368046E0,-2.236464093E0,5.404124825E0
3.001799917E0,-2.035378054E0,3.149441913E0,-1.755313674E0,4.140395425E0
3.011880917E0,-1.554980025E0,2.212807428E0,-1.226122019E0,2.969487295E0
3.021961917E0,-1.067725698E0,1.411289817E0,-7.004111389E-1,1.903247981E0
3.032042917E0,-7.777713369E-1,7.014144480E-1,-1.020011687E-1,1.052290226E0
3.042123917E0,-5.302940009E-1,2.113487792E-1,5.704356480E-1,8.070172627E-1
3.052203917E0,-7.927030060E-2,-6.629806995E-2,1.016067083E0,1.021308734E0
3.062284917E0,4.868860626E-1,-2.739473158E-1,1.268106124E0,1.385712204E0
3.072365917E0,9.619902780E-1,-6.135904384E-1,1.296859807E0,1.727357485E0
3.082446917E0,1.236302241E0,-9.809096020E-1,1.140999862E0,1.947436151E0
3.092527917E0,1.455133702E0,-1.281170558E0,9.669254011E-1,2.166507978E0
3.102607917E0,1.624521546E0,-1.493597564E0,9.661700139E-1,2.409022298E0
3.112688917E0,1.787986014E0,-1.747112954E0,1.004508453E0,2.694129710E0
3.122769917E0,1.808563389E0,-2.185137234E0,8.436239952E-1,2.959295137E0
3.132850917E0,1.661910251E0,-2.658808479E0,2.811562749E-1,3.148056077E0
3.142931917E0,1.196563248E0,-3.046108164E0,-5.289690218E-1,3.315169193E0
3.153011917E0,4.830379003E-1,-3.384354386E0,-1.340016351E0,3.671896519E0
3.163092917E0,-3.025403465E-1,-3.297573520E0,-2.149878523E0,3.948100739E0
3.173173917E0,-9.026118761E-1,-2.357319024E0,-2.543221890E0,3.583244167E0
3.183254917E0,-1.115331754E0,-1.038256754E0,-2.205788430E0,2.680940993E0
3.193335917E0,-1.249000931E0,-1.845404649E-1,-1.577097557E0,2.020221576E0
3.203415625E0,-1.173847692E0,3.759911692E-1,-8.084072386E-1,1.474045463E0
3.213496625E0,-8.751814912E-1,7.083808208E-1,1.729167849E-3,1.125943613E0
3.223577625E0,-5.622383998E-1,7.142917711E-1,6.655904581E-1,1.126647864E0
3.233658625E0,-2.099068193E-1,5.918732947E-1,9.054571313E-1,1.101919909E0
3.243738625E0,1.222754388E-1,4.765732187E-1,6.898100638E-1,8.472964298E-1
3.253819625E0,3.301003204E-1,3.832697833E-1,2.163655441E-1,5.501599740E-1
3.263900625E0,4.405064962E-1,3.202929318E-1,-1.200953776E-1,5.577243361E-1
3.273981625E0,2.738357071E-1,1.878511584E-1,-1.030940133E-1,3.477102641E-1
3.284062625E0,-1.143561161E-1,4.518728256E-2,8.561376214E-2,1.498296635E-1
3.294142625E0,-4.175586233E-1,-5.251969099E-3,1.654118836E-1,4.491590791E-1
3.304223625E0,-5.540024504E-1,-9.917345524E-2,4.720398724E-2,5.647851854E-1
3.314304625E0,-5.902733138E-1,-3.090025431E-1,-6.319838785E-2,6.692527122E-1
3.324385625E0,-4.752087709E-1,-5.974649870E-1,-1.955536225E-1,7.880539360E-1
3.334466625E0,-2.662356424E-1,-8.469493067E-1,-5.127966466E-1,1.025263355E0
3.344546625E0,1.426691383E-1,-6.570352507E-1,-7.779135704E-1,1.028201987E0
3.354627625E0,5.107801977E-1,-1.115894330E-1,-9.758125842E-1,1.107049598E0
3.364708625E0,5.373535636E-1,7.591849387E-2,-9.343447155E-1,1.080514932E0
3.374789625E0,5.313232570E-1,3.318458605E-1,-4.934191201E-1,7.974261763E-1
3.384870625E0,4.826344059E-1,5.295454842E-1,-3.256029345E-2,7.172269950E-1
3.394950625E0,1.749852740E-1,3.971253455E-1,3.217928157E-1,5.402582737E-1
3.405031625E0,-1.602262804E-1,1.827260739E-1,5.115712164E-1,5.663624179E-1
3.415112625E0,-3.355132341E-1,1.440923506E-1,4.715568924E-1,5.964039223E-1
3.425193625E0,-3.817188093E-1,1.327165926E-1,2.327729774E-1,4.663756022E-1
3.435273625E0,-3.034570438E-1,4.669586420E-2,-1.812244358E-1,3.565234596E-1
3.445354625E0,-1.460939256E-1,3.518620491E-2,-6.879816395E-1,7.042018464E-1
3.455435625E0,5.203970768E-2,2.081205314E-1,-1.349061994E0,1.366012646E0
3.465516625E0,3.279751134E-1,4.158463758E-1,-1.790592265E0,1.867275165E0
3.475597625E0,5.682573409E-1,3.012964976E-1,-1.571285425E0,1.697832109E0
3.485677625E0,5.647668089E-1,-6.795107782E-2,-1.090234481E0,1.229711398E0
3.495758625E0,4.726422453E-1,-3.173628920E-1,-7.125960054E-1,9.120871473E-1
3.505839625E0,5.349702385E-1,-3.019163024E-1,-5.006642588E-1,7.924716461E-1
3.515920625E0,7.506668611E-1,-8.107106030E-2,-3.514684584E-1,8.328285120E-1
3.526001625E0,9.905246173E-1,2.440165883E-1,-1.883078259E-1,1.037373101E0
3.536081625E0,1.116192538E0,4.073638201E-1,-5.879675008E-2,1.189658825E0
3.546162625E0,1.141174109E0,3.023068964E-1,3.121009827E-2,1.180949565E0
3.556243625E0,1.165217932E0,8.829061747E-2,2.968572915E-2,1.168935116E0
3.566324625E0,1.107050635E0,-8.328715503E-2,-8.173062623E-2,1.113183612E0
3.576405625E0,9.504382995E-1,-2.122819948E-1,-1.695061405E-1,9.884983248E-1
3.586485625E0,7.214559259E-1,-2.688783646E-1,-2.609209253E-1,8.129415460E-1
3.596566625E0,5.019839754E-1,-1.915623862E-1,-3.969622082E-1,6.680292314E-1
3.606647625E0,2.450084588E-1,-1.507763028E-2,-6.045530184E-1,6.524881852E-1
3.616728625E0,1.501923122E-2,1.522521400E-1,-8.703931332E-1,8.837366676E-1
3.626809625E0,-8.062521011E-2,2.727755338E-1,-1.046349301E0,1.084321804E0
3.636889625E0,-7.542250380E-3,3.381023812E-1,-1.030163038E0,1.084253656E0
3.646970625E0,2.701311305E-2,3.506288713E-1,-9.253043354E-1,9.898779858E-1
3.657051625E0,-1.612954438E-3,3.350811249E-1,-8.457599831E-1,9.097207873E-1
3.667132625E0,-4.654383659E-4,2.464414287E-1,-6.999017733E-1,7.420216215E-1
3.677212625E0,1.823516328E-2,1.045546478E-1,-4.707722326E-1,4.825874952E-1
3.687293625E0,5.451998692E-2,-3.943596125E-2,-2.465524892E-1,2.555694699E-1
3.697374625E0,4.402894914E-2,-1.322166556E-1,-1.216016203E-1,1.849506595E-1
3.707455625E0,-1.391016059E-3,-1.494945931E-1,-1.883274872E-2,1.506825827E-1
3.717536625E0,-2.564533968E-2,-1.183412129E-1,4.690457325E-2,1.298551697E-1
3.727616625E0,-4.246207807E-2,-6.577532887E-3,1.120999314E-1,1.200528494E-1
3.737697625E0,-3.094339214E-2,1.608937401E-1,1.426510119E-1,2.172408809E-1
3.747778625E0,4.821497083E-2,2.543439406E-1,9.172644138E-2,2.746438850E-1
3.757859625E0,1.665203695E-1,2.567600101E-1,-8.215104103E-2,3.168651603E-1
3.767939625E0,2.928154767E-1,2.067283094E-1,-3.893871403E-1,5.292445959E-1
3.778020625E0,3.976642029E-1,1.189510775E-1,-6.477457792E-1,7.693248804E-1
3.788101625E0,4.595045749E-1,3.382731199E-2,-8.084717041E-1,9.305456667E-1
3.798182625E0,3.833153915E-1,-4.868976474E-3,-8.445718288E-1,9.274998493E-1
3.808263625E0,2.653439785E-1,-3.615918159E-3,-7.515274251E-1,7.970031194E-1
3.818343625E0,1.721940690E-1,1.992555678E-2,-5.227124280E-1,5.507051004E-1
3.828424625E0,6.684737932E-2,4.521593392E-2,-2.872625770E-1,2.983837143E-1
3.838505625E0,-8.278012834E-3,5.486676335E-2,-1.024677948E-1,1.165269762E-1
3.848586625E0,-2.592520203E-2,6.643489480E-2,8.501248565E-3,7.181909617E-2
3.858667625E0,2.950669471E-2,9.181005657E-2,4.665023765E-2,1.071259828E-1
3.868747625E0,6.597669236E-2,8.963840067E-2,-6.135132551E-2,1.270903299E-1
3.878828625E0,9.478800695E-2,1.148966181E-1,-2.175871919E-1,2.636857698E-1
3.888909625E0,1.075297842E-1,1.243626755E-1,-3.844099903E-1,4.180906244E-1
3.898990625E0,1.404245384E-3,5.226650655E-2,-4.660862374E-1,4.690097444E-1
3.909071625E0,-1.643847471E-1,-3.199187100E-2,-4.380640411E-1,4.689839326E-1
3.919151625E0,-2.947435047E-1,-8.039570689E-2,-3.171325117E-1,4.403523967E-1
3.929232625E0,-4.169405361E-1,-5.658876836E-2,-1.479298782E-1,4.460100315E-1
3.939313625E0,-4.609783291E-1,4.076210976E-2,-4.138074517E-3,4.627955198E-1
3.949394625E0,-5.117017554E-1,1.703410864E-1,1.074846876E-1,5.499161121E-1
3.959474625E0,-5.485438187E-1,2.691379809E-1,2.802851129E-1,6.722315958E-1
3.969555625E0,-6.300570747E-1,2.994353288E-1,4.161358130E-1,8.122822468E-1
3.979636625E0,-6.831093740E-1,2.688748562E-1,4.715522146E-1,8.725214016E-1
3.989717625E0,-7.063262554E-1,1.550260592E-1,5.352424264E-1,8.996745595E-1
3.999798625E0,-5.983090326E-1,4.833600819E-2,5.578033233E-1,8.194233434E-1
4.009878625E0,-4.020984755E-1,-4.194149315E-2,3.593546712E-1,5.409048461E-1
4.019959625E0,-2.910328617E-1,-1.037588418E-1,-7.813164672E-2,3.187013932E-1
4.030040625E0,-2.962420913E-1,-9.181414962E-2,-5.344086134E-1,6.178849252E-1
4.040121625E0,-4.097091383E-1,-1.328662813E-2,-7.234526038E-1,8.315177583E-1
4.050202625E0,-4.869878407E-1,1.323482180E-1,-5.690088908E-1,7.605552745E-1
4.060282625E0,-4.408775386E-1,2.915608835E-1,-2.691145373E-1,5.931301602E-1
4.070363625E0,-3.844183226E-1,3.728406894E-1,-3.742802739E-2,5.368318952E-1
4.080444625E0,-3.653119607E-1,3.690499395E-1,1.152065571E-1,5.319052898E-1
4.090525625E0,-3.672261930E-1,3.990420628E-1,2.054980552E-1,5.799302504E-1
4.100605625E0,-3.375340319E-1,3.897865051E-1,2.760435426E-1,5.848613337E-1
4.110686625E0,-3.498289357E-1,3.380468327E-1,3.930697898E-1,6.254276976E-1
4.120767625E0,-3.422891338E-1,3.140761721E-1,4.579996113E-1,6.523567559E-1
4.130848625E0,-3.223540753E-1,2.945856482E-1,5.097685198E-1,6.712352775E-1
4.140929625E0,-3.309829576E-1,3.134721547E-1,5.225224666E-1,6.934293317E-1
4.151009625E0,-2.428639559E-1,4.338265640E-1,4.634526515E-1,6.796887147E-1
4.161090625E0,-6.612323821E-2,5.900097871E-1,3.404506230E-1,6.843905743E-1
4.171171625E0,2.125131060E-1,8.137295204E-1,1.341045754E-1,8.516463995E-1
4.181252625E0,3.451282494E-1,9.410859704E-1,-1.430347355E-1,1.012529134E0
4.191332625E0,7.175721321E-2,8.968114382E-1,-7.963686986E-1,1.201508617E0
4.201414292E0,-5.607564595E-1,7.545539439E-1,-2.049488847E0,2.254817952E0
4.211495292E0,-8.963370828E-1,8.665345556E-1,-3.277677784E0,3.506775436E0
4.221576292E0,-7.616893011E-1,1.147050633E0,-3.468563647E0,3.731866761E0
4.231657292E0,-4.341532771E-1,1.526547208E0,-2.750951242E0,3.175935797E0
4.241737292E0,-4.157509200E-2,1.966861843E0,-1.666325191E0,2.578160903E0
4.251818292E0,1.687517401E-1,2.507531070E0,-2.858114626E-1,2.529402580E0
4.261899292E0,3.977673697E-1,3.056054862E0,6.268367207E-1,3.144934733E0
4.271980292E0,1.060459655E0,3.491766568E0,8.970388949E-1,3.757883344E0
4.282061292E0,1.646636739E0,3.469682220E0,1.290025289E0,4.051453134E0
4.292141292E0,9.742658494E-1,2.960481538E0,1.559298633E0,3.484975912E0
4.302222292E0,-4.605524325E-1,2.750791613E0,1.597011420E0,3.213939719E0
4.312303292E0,-1.272601756E0,3.093073000E0,1.107344531E0,3.523184315E0
4.322384292E0,-1.282621106E0,3.585934807E0,-1.424975225E-1,3.811082640E0
4.332464292E0,-2.567662959E-1,4.189046450E0,-1.927308645E0,4.618285148E0
4.342545292E0,1.196432124E0,4.319625885E0,-2.842537058E0,5.307601581E0
4.352626292E0,1.811827598E0,3.139177710E0,-2.964635984E0,4.682544443E0
4.362707292E0,1.556342719E0,1.144986566E0,-1.558377696E0,2.482284823E0
4.372788292E0,4.220084640E-1,-1.019433982E0,-3.027512848E-1,1.144113250E0
4.382868292E0,-5.189762034E-1,-2.710642292E0,9.705433658E-1,2.925555051E0
4.392949292E0,1.724604097E-1,-2.918141264E0,4.783592215E0,5.606072200E0
4.403030292E0,-9.355530426E-2,-2.518577045E0,4.574899826E0,5.223187853E0
4.413111292E0,-1.709894695E0,-2.806474063E0,1.085595520E0,3.461004792E0
4.423192292E0,-1.255604338E0,-2.847375922E0,4.514766768E-1,3.144506811E0
4.433272292E0,7.051720150E-1,-4.066007000E0,1.380165673E0,4.351383432E0
4.443353292E0,2.433346860E0,-8.119699178E0,1.048302855E0,8.541055589E0
4.453434292E0,1.695870879E0,-1.437712917E1,-1.114154198E0,1.451961297E1
4.463515292E0,1.241926970E0,-1.740444321E1,-5.137105810E0,1.818919685E1
4.473595292E0,1.531394404E0,-2.043441423E1,-6.652454431E0,2.154450286E1
4.483676292E0,1.789720883E0,-2.422759190E1,-7.450385944E0,2.541038293E1
4.493757292E0,2.262126207E0,-2.805072369E1,-9.250026190E0,2.962301975E1
4.503838292E0,3.371899817E0,-2.770213140E1,-9.764111052E0,2.956544702E1
4.513919292E0,4.391069505E0,-2.139508369E1,-7.484499185E0,2.308785018E1
4.523999292E0,5.151913884E0,-1.448119557E1,-3.812527277E0,1.583611714E1
4.534080292E0,4.785289954E0,-8.932516533E0,-6.686934292E-1,1.015558972E1
4.544161292E0,3.786693402E0,-5.056607192E0,8.909275313E-1,6.379817794E0
4.554242292E0,3.106417223E0,-2.636541113E0,1.312853403E0,4.280743050E0
4.564323292E0,3.065315975E0,-7.467812401E-1,7.529635743E-1,3.243578023E0
4.574403292E0,3.211280604E0,1.246245139E0,4.871322669E-2,3.444970688E0
4.584484292E0,3.225451038E0,3.601349237E0,-2.476106525E-1,4.840925713E0
4.594565292E0,2.958792277E0,5.861474673E0,-1.815536340E-1,6.568431989E0
4.604646292E0,2.647945230E0,7.677773636E0,7.434500813E-2,8.121905511E0
4.614726292E0,2.383922101E0,8.943101163E0,-3.563994884E-1,9.262243982E0
4.624807292E0,2.456800042E0,9.889347886E0,-1.150308702E0,1.025467104E1
4.634888292E0,2.234916335E0,1.037412884E1,-1.677059217E0,1.074383208E1
4.644969292E0,1.802401009E0,1.060169663E1,-2.281892281E0,1.099325489E1
4.655050292E0,1.375559529E0,1.078293225E1,-3.042478797E0,1.128806755E1
4.665130292E0,7.602807800E-1,1.094731619E1,-3.825501664E0,1.162136918E1
4.675211292E0,2.749075017E-1,1.132094274E1,-3.564443951E0,1.187200823E1
4.685292292E0,-5.451231976E-1,1.128593079E1,-2.106264727E0,1.149372629E1
4.695373292E0,-1.142007044E0,1.095885742E1,2.004724099E-1,1.102002383E1
4.705454292E0,-9.142820415E-1,1.081805998E1,2.691896119E0,1.118537608E1
4.715534292E0,-6.540387719E-1,1.076768037E1,3.577370975E0,1.136522285E1
4.725615292E0,-2.833873531E-1,1.079010678E1,3.430161474E0,1.132575474E1
4.735696292E0,-2.306668103E-2,1.078920982E1,2.604025916E0,1.109903291E1
4.745777292E0,1.055367608E-1,1.072935772E1,1.415425553E0,1.082283163E1
4.755857292E0,1.853849490E-1,1.071630907E1,8.833622575E-1,1.075425388E1
4.765938292E0,2.290377760E-1,1.079847882E1,5.303196555E-1,1.081391891E1
4.776019292E0,2.955351629E-1,1.089119110E1,-7.398833712E-2,1.089545130E1
4.786100292E0,3.166224883E-1,1.084343105E1,-5.642492938E-1,1.086271715E1
4.796181292E0,3.822525139E-1,1.063161098E1,-7.428191668E-1,1.066438228E1
4.806261292E0,5.127404402E-1,1.040386895E1,-8.447507536E-1,1.045069355E1
4.816342292E0,1.089978008E0,1.034091081E1,-1.824541783E0,1.055705646E1
4.826423292E0,1.927103700E0,1.037891186E1,-4.753026187E0,1.157699435E1
4.836504292E0,2.176766652E0,9.850149322E0,-7.265979381E0,1.243214427E1
4.846585292E0,1.549565065E0,8.460447425E0,-9.806164227E0,1.304381767E1
4.856665292E0,1.083481313E0,7.201319700E0,-9.079412624E0,1.163910094E1
4.866746292E0,1.138756212E0,7.559835296E0,-4.199194293E0,8.722448517E0
4.876827292E0,6.928015725E-1,7.838163931E0,-9.750267184E-1,7.928900613E0
4.886908292E0,1.740902480E-2,7.835164309E0,1.292996259E-1,7.836250457E0
4.896988292E0,-9.835532013E-2,7.198817677E0,-1.344387291E0,7.323935206E0
4.907069292E0,9.115642557E-1,6.869548100E0,1.555540481E0,7.102207169E0
4.917150292E0,1.594384558E0,7.083199512E0,5.710746317E0,9.237229073E0
4.927231292E0,1.635111731E0,7.273078485E0,5.831058626E0,9.464275235E0
4.937312292E0,1.338599863E0,6.472208161E0,5.684865371E0,8.717741816E0
4.947392292E0,1.837943017E0,2.085310060E0,6.084683944E0,6.689538944E0
4.957473292E0,2.121484590E0,-5.095301142E0,4.582044246E0,7.173417600E0
4.967554292E0,1.087528536E0,-1.514366874E1,2.789249336E0,1.543675267E1
4.977635292E0,2.143217229E-1,-2.956617464E1,3.283194047E0,2.974868030E1
4.987716292E0,1.219530234E0,-4.465467606E1,-1.035222342E0,4.468331941E1
4.997796292E0,-4.369271962E0,-3.947953002E1,-1.974669045E0,3.976962592E1
5.007877292E0,-6.096868372E0,-2.688290141E1,-4.830154470E0,2.798557815E1
5.017958292E0,-3.435385376E0,-1.540103510E1,-6.303473890E0,1.699198452E1
5.028039292E0,-6.742167091E-1,-8.407535970E0,-3.325924330E0,9.066587115E0
5.038119292E0,7.341748624E-1,-4.091987348E0,-1.007250870E0,4.277607684E0
5.048200292E0,1.362659109E0,-1.831309935E0,2.532313617E-1,2.296663243E0
5.058281292E0,1.642946707E0,-1.074276772E0,1.335692482E0,2.374324930E0
5.068362292E0,2.159400422E0,-1.544303448E0,2.434108314E0,3.601772703E0
5.078443292E0,3.750005924E0,-3.091229957E0,3.916629936E0,6.241653397E0
5.088523292E0,6.583256727E0,-4.445670805E0,4.977160488E0,9.374187142E0
5.098604292E0,3.861857020E0,-5.888527400E0,2.629805120E0,7.516952146E0
5.108685292E0,-1.094233319E0,-6.050393533E0,1.039037358E0,6.235720254E0
5.118766292E0,-3.765534667E0,-4.611190277E0,-7.940834606E-1,6.006071565E0
5.128846292E0,-5.807359861E0,-2.934014701E0,-3.871023992E0,7.570911277E0
5.138927292E0,-6.499115878E0,-1.074250460E0,-5.892697635E0,8.838348639E0
5.149008292E0,-5.909182105E0,6.264326781E-1,-5.654715958E0,8.202844849E0
5.159089292E0,-4.713503687E0,2.283072249E0,-3.982705811E0,6.579626242E0
5.169170292E0,-3.203804061E0,3.568272123E0,-2.042126033E0,5.212216912E0
5.179250292E0,-2.102312155E0,4.452617297E0,-3.355752512E-1,4.935395419E0
5.189331292E0,-1.202574405E0,5.231026711E0,9.726153266E-1,5.454888287E0
5.199412292E0,-2.459876116E-1,6.044016559E0,1.836330940E0,6.321610348E0
5.209492625E0,7.258846801E-1,6.642482005E0,2.494905177E0,7.132603143E0
5.219572625E0,1.527441248E0,6.629226367E0,3.021020100E0,7.443539577E0
5.229653625E0,1.859378471E0,5.489470135E0,3.457938087E0,6.748992997E0
5.239734625E0,1.842383977E0,3.561942512E0,3.725954572E0,5.473988550E0
5.249815625E0,1.655019599E0,1.992879029E0,3.584201692E0,4.422347620E0
5.259896625E0,1.513441405E0,9.998323613E-1,3.128594835E0,3.616389813E0
5.269976625E0,1.512696909E0,4.987885451E-1,2.538500848E0,2.996836416E0
5.280057625E0,1.754432791E0,1.056210045E0,1.670705048E0,2.642890356E0
5.290138625E0,1.732174926E0,1.834106659E0,6.226214629E-1,2.598467759E0
5.300219625E0,1.012812084E0,2.039255050E0,-4.833518227E-1,2.327655142E0
5.310300625E0,-4.441101352E-1,1.794149126E0,-2.568040981E0,3.164022658E0
5.320380625E0,-1.017933879E0,1.767553065E0,-4.006496962E0,4.495825968E0
5.330461625E0,-3.774708802E-1,1.841206348E0,-3.346962027E0,3.838577847E0
5.340542625E0,-5.324125202E-1,1.080467219E0,-2.238568506E0,2.542058508E0
5.350623625E0,-1.283813938E0,-2.137502307E-1,-1.194325372E0,1.766431567E0
5.360703625E0,-1.759648215E0,-1.183463584E0,-3.628892400E-1,2.151426618E0
5.370784625E0,-1.890626868E0,-1.729643812E0,3.312640625E-1,2.583771188E0
5.380865625E0,-1.928267588E0,-2.011015922E0,1.041293725E0,2.974339179E0
5.390946625E0,-1.992490189E0,-2.203148997E0,1.525981198E0,3.339536086E0
5.401027625E0,-2.033715983E0,-2.244318073E0,1.814205660E0,3.530482473E0
5.411107625E0,-1.972088669E0,-1.642737231E0,1.715808715E0,3.087348195E0
5.421188625E0,-1.194437054E0,-5.740743703E-1,4.685911115E-1,1.405638249E0
5.431269625E0,3.035353599E-3,-2.864609420E-2,-1.183862437E0,1.184212854E0
5.441350625E0,1.150814121E0,-2.863802505E-1,-2.207083004E0,2.505514353E0
5.451430625E0,1.875856948E0,-8.297275025E-1,-2.239740872E0,3.037058806E0
5.461511625E0,2.243674441E0,-1.239494528E0,-1.441049806E0,2.940586034E0
5.471592625E0,2.322200208E0,-1.268623602E0,-5.203693756E-1,2.696813664E0
5.481673625E0,2.138800389E0,-7.995172781E-1,-2.447679555E-1,2.296433394E0
5.491754625E0,1.872811864E0,-1.972663450E-1,-1.822167814E-1,1.891967559E0
5.501834625E0,1.574283585E0,-5.784182668E-2,3.070093735E-1,1.604982628E0
5.511915625E0,1.110171733E0,-2.758429831E-1,9.343271738E-1,1.477003011E0
5.521996625E0,5.307492066E-1,-2.927174628E-1,1.125796151E0,1.278591102E0
5.532077625E0,-9.920809999E-2,1.102042276E-1,4.320870173E-1,4.568220763E-1
5.542157625E0,-5.216367596E-1,3.406675547E-1,-1.502816868E0,1.626842903E0
5.552238625E0,-5.841900533E-1,8.511674881E-2,-3.844125046E0,3.889192750E0
5.562319625E0,-3.586543941E-1,-3.243351120E-1,-4.253713147E0,4.281109877E0
5.572400625E0,-2.548750140E-1,-5.565958732E-1,-2.178512338E0,2.262891126E0
5.582481625E0,-6.974631920E-2,-4.828396797E-1,-2.362210804E-1,5.420323830E-1
5.592561625E0,4.032413869E-1,3.174371517E-1,1.968961432E-1,5.496708584E-1
5.602642625E0,7.749167993E-1,8.837288779E-1,2.482440522E-1,1.201290092E0
5.612723625E0,7.187678877E-1,7.886397028E-1,8.148199531E-1,1.342576409E0
5.622804625E0,5.455518716E-1,3.970154178E-1,1.611151156E0,1.746727264E0
5.632884625E0,3.771527917E-1,-3.609486222E-3,2.189261275E0,2.221513490E0
5.642965625E0,2.246428443E-1,-2.554508185E-1,2.242132968E0,2.267791828E0
5.653046625E0,1.932260652E-1,-1.812689477E-1,1.673543286E0,1.694385397E0
5.663127625E0,4.823192775E-2,1.092961550E-2,7.433132565E-1,7.449566247E-1
5.673208625E0,-1.797276948E-1,-4.728000104E-2,-2.025551516E-1,2.748927649E-1
5.683288625E0,-2.600761123E-1,-2.901049268E-1,-1.262710313E0,1.321452908E0
5.693369625E0,-3.116492122E-1,-5.093720055E-1,-2.405919326E0,2.478917682E0
5.703450625E0,-1.651206923E-1,-4.308941853E-1,-3.292801607E0,3.324977754E0
5.713531625E0,3.172724064E-1,-6.570633173E-2,-2.695526070E0,2.714929078E0
5.723612625E0,6.341708833E-1,1.954958081E-1,-1.248550257E0,1.413955114E0
5.733692625E0,7.204628494E-1,3.727056187E-1,-2.377215490E-1,8.452737606E-1
5.743773625E0,7.338448602E-1,4.622750223E-1,4.013586565E-1,9.556752828E-1
5.753854625E0,6.768106071E-1,4.734946597E-1,8.922587961E-1,1.215892902E0
5.763935625E0,5.401051902E-1,3.657918710E-1,1.195814000E0,1.362163144E0
5.774015625E0,3.395581917E-1,1.888656503E-1,1.156106289E0,1.219652308E0
5.784096625E0,8.019974294E-2,3.114811778E-3,5.968661591E-1,6.022382524E-1
5.794177625E0,-3.101579529E-1,-2.066306609E-1,-4.208072998E-2,3.750532944E-1
5.804258625E0,-7.008370355E-1,-3.308155811E-1,-5.938714345E-1,9.763681579E-1
5.814339625E0,-8.853723840E-1,-2.580130684E-1,-1.234616781E0,1.541017066E0
5.824419625E0,-7.877414243E-1,-6.967074394E-2,-1.720342646E0,1.893401538E0
5.834500625E0,-4.525847972E-1,-2.245155394E-2,-1.766683000E0,1.823871128E0
5.844581625E0,-2.112529580E-2,-8.952437997E-2,-1.266998807E0,1.270333370E0
5.854662625E0,2.747355205E-1,-7.767148912E-2,-5.904810727E-1,6.558813640E-1
5.864742625E0,5.180646955E-1,-1.469931543E-2,-2.114711322E-2,5.187044428E-1
5.874823625E0,6.706635755E-1,8.592307985E-2,4.341581011E-1,8.035332375E-1
5.884904625E0,7.396345539E-1,1.374405581E-1,7.312135401E-1,1.049105534E0
5.894985625E0,7.175469160E-1,1.736506104E-1,8.257156547E-1,1.107625593E0
5.905066625E0,5.864082311E-1,1.795188761E-1,5.874210785E-1,8.492144393E-1
5.915146625E0,3.023090709E-1,1.863759059E-1,1.284509756E-1,3.776591132E-1
5.925227625E0,-4.954983534E-2,1.671473372E-1,-1.476001684E-1,2.284277308E-1
5.935308625E0,-3.732861742E-1,6.602383554E-2,-1.900619906E-1,4.240581033E-1
5.945389625E0,-5.214516952E-1,-2.800348520E-2,-2.100641459E-1,5.628703323E-1
5.955469625E0,-5.113365237E-1,-9.702343404E-2,-3.399419884E-1,6.216422948E-1
5.965550625E0,-4.184099413E-1,-1.029373080E-1,-6.372623062E-1,7.692634239E-1
5.975631625E0,-2.545940735E-1,-4.279635608E-2,-9.540709553E-1,9.883830523E-1
5.985712625E0,-1.079913671E-1,8.665982902E-2,-9.597380767E-1,9.696748100E-1
5.995793625E0,8.851277512E-3,1.410593998E-1,-4.694157151E-1,4.902317952E-1
6.005873625E0,1.256058484E-1,8.043780684E-2,1.130967721E-1,1.871842669E-1
6.015954625E0,2.530616462E-1,9.588848948E-3,4.683596349E-1,5.324405041E-1
6.026035625E0,3.457321937E-1,-1.100270569E-2,5.599750523E-1,6.581974388E-1
6.036116625E0,3.615225995E-1,1.471451819E-2,3.612778936E-1,5.113089315E-1
6.046196625E0,2.820953560E-1,4.136144936E-2,7.777527720E-4,2.851125467E-1
6.056277625E0,2.227640790E-1,1.049990362E-1,-3.204356039E-1,4.041381060E-1
6.066358625E0,1.736318994E-1,1.301280302E-1,-5.083674538E-1,5.527375587E-1
6.076439625E0,4.732210100E-2,4.372606337E-2,-5.752186704E-1,5.788159194E-1
6.086520625E0,-1.180809021E-1,-5.663671553E-2,-6.382873962E-1,6.515839295E-1
6.096600625E0,-1.748044854E-1,-6.173139453E-2,-7.381296998E-1,7.610537609E-1
6.106681625E0,-1.932797499E-1,-2.004659414E-2,-6.560588387E-1,6.842310484E-1
6.116762625E0,-2.383993327E-1,1.681366861E-2,-3.804474054E-1,4.492851762E-1
6.126843625E0,-2.283113691E-1,5.499364793E-2,-5.479257680E-2,2.411485207E-1
6.136923625E0,-2.224838878E-1,5.262669504E-2,1.932148824E-1,2.993336602E-1
6.147004625E0,-1.866787916E-1,-1.583133638E-2,3.293637174E-1,3.789195968E-1
6.157085625E0,-6.609212006E-2,-1.145995796E-2,2.576019726E-1,2.661921773E-1
6.167166625E0,2.610438265E-2,3.833843887E-2,-3.417872965E-2,5.761475722E-2
6.177247625E0,1.138522323E-1,1.473977816E-1,-3.491085953E-1,3.956832674E-1
6.187327625E0,1.921343718E-1,2.339365733E-1,-4.350217714E-1,5.299866778E-1
6.197408625E0,2.332865091E-1,2.247447503E-1,-1.935393298E-1,3.773463532E-1
6.207489875E0,2.102558981E-1,1.244726032E-1,2.080165241E-1,3.208922653E-1
6.217570875E0,1.457888106E-1,3.746311069E-3,3.699615935E-1,3.976681944E-1
6.227650875E0,6.392322332E-2,-6.224068701E-2,2.864638656E-1,3.000360444E-1
6.237731875E0,1.487323355E-2,-2.190483928E-2,1.046675722E-1,1.079645114E-1
6.247812875E0,-4.790316805E-2,1.994426787E-2,-1.556569737E-1,1.640779717E-1
6.257893875E0,-5.361290105E-2,4.411022544E-2,-4.177823889E-1,4.235117231E-1
6.267974875E0,-1.458430801E-1,3.522596598E-2,-5.583196324E-1,5.781279137E-1
6.278054875E0,-3.398118147E-1,-2.946762800E-2,-5.457498729E-1,6.435707687E-1
6.288135875E0,-3.167938118E-1,-1.009404838E-2,-4.233816826E-1,5.288783019E-1
6.298216875E0,-1.325252607E-1,9.442727029E-2,-2.651437845E-1,3.110959346E-1
6.308297875E0,-1.065125149E-2,1.518445891E-1,-1.448524155E-1,2.101248455E-1
6.318377875E0,1.466822286E-1,1.740920752E-1,-1.837803268E-1,2.925729574E-1
6.328458875E0,2.460863565E-1,1.343450421E-1,-2.116493261E-1,3.512869517E-1
6.338539875E0,3.477839816E-1,1.141423273E-1,-1.026736351E-1,3.801631809E-1
6.348620875E0,4.273366662E-1,5.168236971E-2,5.976453736E-2,4.345796746E-1
6.358701875E0,4.032564800E-1,-1.430345893E-2,1.715170345E-1,4.384500778E-1
6.368781875E0,3.444582316E-1,-4.928091824E-2,1.444502002E-1,3.767571400E-1
6.378862875E0,2.336629601E-1,-3.167378247E-2,-1.071619944E-1,2.590083019E-1
6.388943875E0,1.307549248E-1,-4.380149245E-3,-3.975317270E-1,4.185062843E-1
6.399024875E0,1.637679024E-2,4.244786203E-2,-5.605427803E-1,5.623861919E-1
6.409104875E0,-1.253616723E-1,7.003794909E-3,-5.809075361E-1,5.943216028E-1
6.419185875E0,-2.363426660E-1,-4.105388582E-2,-4.897733811E-1,5.453634038E-1
6.429266875E0,-2.833413428E-1,-2.021850228E-2,-3.234089861E-1,4.304468338E-1
6.439347875E0,-2.980438012E-1,2.916474223E-2,-1.402665905E-1,3.306892892E-1
6.449428875E0,-3.568391260E-1,3.847877204E-2,6.037414614E-2,3.639502923E-1
6.459508875E0,-3.661275377E-1,7.017360449E-2,1.165279547E-1,3.905796626E-1
6.469589875E0,-2.574722010E-1,1.286580402E-1,-5.702614009E-2,2.934225728E-1
6.479670875E0,-8.327951711E-2,1.573017955E-1,-3.264201560E-1,3.717922149E-1
6.489751875E0,1.099568173E-1,2.449193984E-1,-4.709598917E-1,5.421062930E-1
6.499831875E0,2.449943524E-1,2.960410202E-1,-3.187750312E-1,4.992795197E-1
6.509912875E0,2.950516713E-1,2.071884853E-1,5.401131570E-2,3.645542201E-1
6.519993875E0,3.063809440E-1,9.554350376E-2,3.267839259E-1,4.580235563E-1
6.530074875E0,2.944877073E-1,3.131944120E-2,3.682289904E-1,4.725425976E-1
6.540155875E0,2.010017291E-1,1.764338851E-2,1.914314816E-1,2.781348529E-1
6.550235875E0,3.534327574E-2,6.044968486E-2,-2.852914989E-2,7.561232659E-2
6.560316875E0,-1.015023281E-1,8.273751676E-2,-2.460356319E-1,2.787144622E-1
6.570397875E0,-3.225861732E-1,6.120572984E-2,-4.707792493E-1,5.739695829E-1
6.580478875E0,-5.670679076E-1,-6.232605636E-2,-7.924065522E-1,9.764008875E-1
6.590558875E0,-5.798965525E-1,-2.713324410E-1,-7.988745960E-1,1.023768492E0
6.600639875E0,-3.192496789E-1,-2.103664470E-1,-7.427268539E-1,8.353547623E-1
6.610720875E0,-1.697840660E-1,-8.874436140E-2,-7.479091680E-1,7.720559010E-1
6.620801875E0,-1.186666104E-1,1.209531641E-1,-5.442313510E-1,5.699992945E-1
6.630882875E0,-1.607183967E-2,3.413125026E-1,-1.522737017E-1,3.740852960E-1
6.640962875E0,1.730984140E-2,5.294209385E-1,-2.111171564E-1,5.702250560E-1
6.651043875E0,-1.235888331E-1,5.462831390E-1,-2.096787413E-1,5.980507020E-1
6.661124875E0,-2.943885239E-1,4.527154094E-1,2.616172922E-1,6.000495417E-1
6.671205875E0,-3.695113945E-1,3.033108634E-1,8.524585533E-1,9.773544575E-1
6.681285875E0,-4.048696537E-1,1.239393371E-1,1.200962546E0,1.273417227E0
6.691366875E0,-3.602263084E-1,2.055881023E-2,1.184268746E0,1.238013780E0
6.701447875E0,-2.431918203E-1,1.018643439E-2,9.188507634E-1,9.505433974E-1
6.711528875E0,-3.417997219E-2,5.109297037E-2,3.835182899E-1,3.884134921E-1
6.721609875E0,2.069062109E-1,1.166589689E-1,-2.827292490E-1,3.692632169E-1
6.731689875E0,3.684033106E-1,1.296602529E-1,-6.320284635E-1,7.429621518E-1
6.741770875E0,2.612766736E-1,9.627732933E-2,-5.321498340E-1,6.005982602E-1
6.751851875E0,2.575771585E-3,4.577609718E-2,-3.173377490E-1,3.206327067E-1
6.761932875E0,-2.238141293E-1,-8.570848703E-3,-2.009910579E-1,3.009379160E-1
6.772012875E0,-4.145488787E-1,-8.713520765E-3,-1.302385608E-1,4.346133695E-1
6.782093875E0,-4.607734207E-1,3.088090003E-2,-1.543039463E-1,4.869039773E-1
6.792174875E0,-3.554034518E-1,9.506052375E-2,-3.959898162E-1,5.405146171E-1
6.802255875E0,-1.887170762E-1,1.238720942E-1,-6.828939772E-1,7.192375231E-1
6.812335875E0,-4.761135545E-2,1.749369979E-1,-4.014557934E-1,4.404957984E-1
6.822416875E0,5.404917642E-2,3.036505866E-1,3.110017061E-2,3.099874398E-1
6.832497875E0,3.269998709E-1,5.267475915E-1,4.280631462E-2,6.214694854E-1
6.842578875E0,7.207189574E-1,8.798936892E-1,-3.331474507E-1,1.185173381E0
6.852659875E0,8.000985644E-1,1.215950130E0,-7.036621177E-1,1.616735231E0
6.862739875E0,4.764545202E-1,1.519714737E0,-5.664957941E-1,1.690402105E0
6.872820875E0,2.358419616E-2,1.866769790E0,-3.078372661E-1,1.892128285E0
6.882901875E0,-1.690464398E-1,2.274292654E0,-3.744849265E-1,2.311108551E0
6.892982875E0,-3.011462972E-1,2.629902769E0,-6.101791728E-1,2.716504424E0
6.903062875E0,-6.241455397E-1,2.870474178E0,-4.293901353E-1,2.968763303E0
6.913143875E0,-8.332022104E-1,3.116778781E0,2.998289926E-1,3.240128596E0
6.923224875E0,-8.459176386E-1,3.370696460E0,1.238484714E0,3.689311001E0
6.933305875E0,-9.817003649E-1,3.341062771E0,2.407000330E0,4.233212330E0
6.943386875E0,-1.513381618E0,2.815292834E0,2.754146161E0,4.219184606E0
6.953466875E0,-1.983139322E0,1.630583208E0,-1.255378343E0,2.857904469E0
6.963547875E0,-2.695110918E0,2.708015138E-1,-1.122124655E1,1.154354064E1
6.973628875E0,-1.928332931E0,6.478393346E-1,-1.186621548E1,1.203932031E1
6.983709875E0,6.218481687E-1,2.298960303E0,-3.141613660E0,3.942289945E0
6.993789875E0,2.251335170E0,3.017570828E0,3.055611643E-1,3.777249181E0
7.003870875E0,1.970108363E0,2.669453335E0,3.467250655E0,4.798868114E0
7.013951875E0,-1.499330905E0,1.214501774E0,7.712002652E0,7.949716512E0
7.024032875E0,-3.034763981E0,1.365546464E0,7.869868119E0,8.544549945E0
7.034113875E0,-2.271567560E0,1.935498548E0,5.166031401E0,5.966075280E0
7.044193875E0,-2.055314282E0,9.571827704E-1,3.490860542E0,4.162526034E0
7.054274875E0,-4.797055721E-1,-7.542832178E-1,2.418375649E0,2.578294279E0
7.064355875E0,2.173621435E0,-3.342498263E0,1.118700993E0,4.141064681E0
7.074436875E0,4.928035691E0,-6.801373073E0,1.965611708E-1,8.401359875E0
7.084516875E0,4.954265715E0,-1.131180121E1,9.723747137E-1,1.238737696E1
7.094597875E0,3.076889661E0,-1.634402960E1,-8.723522428E-1,1.665399508E1
7.104678875E0,-5.023071072E-1,-1.783527074E1,-7.882519155E0,1.950598121E1
7.114759875E0,-4.246770163E0,-1.708118223E1,-9.521731099E0,2.001162678E1
7.124840875E0,-3.809292598E0,-1.617589175E1,-4.414712137E0,1.719476278E1
7.134920875E0,-1.497967480E0,-1.723561889E1,-3.788751622E0,1.771059299E1
7.145001875E0,1.644455727E0,-1.984759936E1,-6.210496144E0,2.086148838E1
7.155082875E0,6.545885417E0,-1.845248645E1,-5.761131774E0,2.040915264E1
7.165163875E0,9.260961068E0,-1.628958033E1,-1.228274014E0,1.877829823E1
7.175243875E0,6.775933592E0,-1.774347413E1,6.810657867E0,2.017744312E1
7.185324875E0,5.143869284E0,-1.902899151E1,6.073750820E0,2.062649650E1
7.195405875E0,5.054384665E0,-1.691956636E1,5.366347654E0,1.845579089E1
7.205486250E0,5.950447660E0,-1.218109039E1,3.638364451E0,1.403654111E1
7.215566250E0,5.789273838E0,-6.813584399E0,1.824465770E0,9.125201328E0
7.225647250E0,3.942260036E0,-2.277293445E0,3.157239175E-1,4.563678475E0
7.235728250E0,1.804708613E0,8.713514918E-1,-5.319229255E-1,2.073443657E0
7.245809250E0,8.818048516E-1,3.083065490E0,-1.405960665E0,3.501370875E0
7.255890250E0,1.757933409E-1,5.436344672E0,-4.255019415E0,6.905790101E0
7.265970250E0,-2.421818344E0,7.986986094E0,-1.428919406E1,1.654805783E1
7.276051250E0,-4.570484886E0,9.986822140E0,-2.209723138E1,2.467617441E1
7.286132250E0,-4.118573176E0,1.108668808E1,-1.808731263E1,2.161083469E1
7.296213250E0,-4.190473171E0,1.196841312E1,-1.113881250E1,1.687827367E1
7.306293250E0,-4.706356636E0,1.214668654E1,-5.036029086E0,1.396615107E1
7.316374250E0,-1.781327790E0,1.179505955E1,6.259369512E0,1.347131267E1
7.326455250E0,1.939829580E0,1.235792188E1,1.342616140E1,1.835055809E1
7.336536250E0,4.011015983E0,1.293056076E1,1.284581823E1,1.866286947E1
7.346617250E0,4.384946886E0,1.264439569E1,7.041177328E0,1.512239001E1
7.356697250E0,3.407377798E0,1.183387103E1,2.724823544E0,1.261250928E1
7.366778250E0,1.998371757E0,1.113634147E1,8.627554270E-1,1.134706737E1
7.376859250E0,5.740477289E-1,1.067874305E1,3.702058610E-1,1.070056710E1
7.386940250E0,-4.219040912E-1,1.047134348E1,4.924735522E-1,1.049140446E1
7.397020250E0,-8.478494856E-1,1.052866256E1,6.338627350E-1,1.058174684E1
7.407101250E0,-7.371254405E-1,1.058234702E1,7.944308583E-1,1.063769443E1
7.417182250E0,-3.612874684E-1,1.063938310E1,1.303304608E0,1.072499904E1
7.427263250E0,-1.580721661E-1,1.060671120E1,2.023502651E0,1.079916072E1
7.437343250E0,-2.128175998E-1,1.047156450E1,2.392264323E0,1.074345769E1
7.447424250E0,-4.111162707E-1,1.029431084E1,2.317940365E0,1.056005207E1
7.457505250E0,-5.649638966E-1,1.015521260E1,1.903446596E0,1.034749419E1
7.467586250E0,-6.804337612E-1,1.005955449E1,1.404628669E0,1.017991200E1
7.477667250E0,-7.626070216E-1,1.001044723E1,1.049034927E0,1.009411202E1
7.487747250E0,-8.312939715E-1,9.934279060E0,7.794209826E-1,9.999422343E0
7.497828250E0,-9.321192652E-1,9.808331205E0,4.617218757E-1,9.863335868E0
7.507909250E0,-1.015835898E0,9.687599065E0,7.638217807E-2,9.741012907E0
7.517990250E0,-1.105142762E0,9.589483956E0,-3.036564338E-1,9.657730080E0
7.528070250E0,-1.151403885E0,9.483374534E0,-6.261175132E-1,9.573512761E0
7.538151250E0,-1.128240506E0,9.438801793E0,-1.044097538E0,9.563160858E0
7.548232250E0,-9.651403192E-1,9.256495550E0,-7.852165089E0,1.217664577E1
7.558313250E0,8.827776821E-1,8.338834110E0,-2.275617049E1,2.425198437E1
7.568394250E0,1.243423565E0,6.910989656E0,-1.386698182E1,1.554352164E1
7.578474250E0,7.657217603E-1,6.309966638E0,-4.848962624E0,7.994651169E0
7.588555250E0,2.176107086E-2,6.280102569E0,2.508340617E0,6.762539055E0
7.598636250E0,-8.279750919E-1,4.373657082E0,4.858831555E0,6.589587476E0
7.608717250E0,-1.746554837E0,3.630863643E0,7.560343419E0,8.566937446E0
7.618797250E0,-2.171620956E0,4.406528374E0,8.071399423E0,9.448858054E0
7.628878250E0,-1.241531698E0,3.780088679E0,7.676684300E0,8.646499478E0
7.638959250E0,-2.496690186E-1,1.784525778E0,6.693884293E0,6.932168045E0
7.649040250E0,6.160332589E-1,-5.795576552E0,4.673797585E0,7.470782316E0
7.659120250E0,1.167881778E0,-1.991417576E1,3.669323704E-1,1.995176642E1
7.669201250E0,2.604258635E0,-3.202143686E1,-2.918276335E0,3.225943146E1
7.679282250E0,5.381904171E0,-3.681736056E1,-4.383738266E0,3.746598581E1
7.689363250E0,9.599009655E0,-3.662167296E1,5.306414863E0,3.822886286E1
7.699444250E0,1.640693863E1,-3.459329257E1,-1.644806560E0,3.832217262E1
7.709524250E0,1.424468272E1,-2.621982949E1,-1.679254964E1,3.424003749E1
7.719605250E0,5.411313912E0,-1.793119314E1,-1.468644454E1,2.380129532E1
7.729686250E0,5.104429230E-1,-1.307479052E1,-9.771330024E0,1.633063347E1
7.739767250E0,2.274824166E-1,-9.421031520E0,-3.016902491E0,9.894912016E0
7.749847250E0,1.859449953E0,-4.824843444E0,3.660406700E-1,5.183691172E0
7.759928250E0,2.321546635E0,-1.488778288E0,1.569382302E0,3.173168824E0
7.770009250E0,2.924313293E0,-5.009186858E-1,1.644505136E0,3.392185860E0
7.780090250E0,3.973362545E0,1.126892942E-1,1.505236008E0,4.250416948E0
7.790171250E0,4.760173531E0,6.316209126E-1,1.277306864E0,4.968874103E0
7.800251250E0,4.622152053E0,3.543108630E-1,2.070812766E0,5.077212946E0
7.810332250E0,3.456889974E0,-2.224128807E-1,3.239586682E0,4.742834348E0
7.820413250E0,1.488311242E0,-5.972135568E-1,4.018415927E0,4.326592302E0
7.830494250E0,-1.274940057E-1,-3.437057680E-1,4.125818753E0,4.142073003E0
7.840574250E0,-9.696051800E-1,3.401091456E-1,3.329817406E0,3.484751410E0
7.850655250E0,-1.010875998E0,1.307188913E0,2.331241465E0,2.857498890E0
7.860736250E0,-8.740624072E-1,2.377179092E0,1.608159721E0,3.000190529E0
7.870817250E0,-9.569884966E-1,3.505982319E0,1.059382014E0,3.785502510E0
7.880898250E0,-1.212321055E0,4.662044097E0,6.377616584E-1,4.859127229E0
7.890978250E0,-1.247293837E0,5.722656510E0,5.065069429E-1,5.878867981E0
7.901059250E0,-1.297706484E0,6.661327581E0,5.474293394E-1,6.808597957E0
7.911140250E0,-1.432131194E0,7.460162489E0,6.358507153E-1,7.622947609E0
7.921221250E0,-1.581762320E0,8.027714290E0,6.162954334E-1,8.205241545E0
7.931301250E0,-1.710325343E0,8.384685051E0,4.142951461E-1,8.567368129E0
7.941382250E0,-1.761847645E0,8.054383441E0,-1.384117075E-1,8.245990391E0
7.951463250E0,-1.648372485E0,6.245119262E0,-1.484464213E0,6.627388660E0
7.961544250E0,-1.721208473E0,3.822349430E0,-3.099018449E0,5.213140044E0
7.971624250E0,-1.949981808E0,1.706005273E0,-3.165758568E0,4.090832477E0
7.981705250E0,-2.224852400E0,1.243995130E-2,-2.264522542E0,3.174615771E0
7.991786250E0,-2.658434842E0,-1.247638530E0,-1.596599776E0,3.342605055E0
8.001867250E0,-3.070261842E0,-1.831961315E0,-1.353860804E0,3.823026172E0
8.011948250E0,-3.102155772E0,-1.580609395E0,-1.297232859E0,3.715442044E0
8.022028250E0,-2.606334981E0,-4.883594513E-1,-1.201599308E0,2.911239922E0
8.032109250E0,-1.993680975E0,4.707096308E-1,-9.144904947E-1,2.243351120E0
8.042190250E0,-1.470645780E0,8.423422855E-1,-4.342130649E-1,1.749537231E0
8.052271250E0,-7.560752432E-1,7.624944627E-1,2.734415499E-1,1.108069429E0
8.062351250E0,4.824844614E-2,4.747757846E-1,1.046308955E0,1.150001038E0
8.072432250E0,7.209603743E-1,7.546650410E-2,1.548014091E0,1.709335158E0
8.082513250E0,1.171914602E0,-4.105423665E-1,1.822035667E0,2.204936017E0
8.092594250E0,1.329416226E0,-7.995704877E-1,2.057924041E0,2.577151882E0
8.102674250E0,1.153256868E0,-9.981670743E-1,2.108068593E0,2.601978498E0
8.112755250E0,8.302593067E-1,-9.859235895E-1,1.878911533E0,2.278526803E0
8.122836250E0,5.505518988E-1,-6.754539800E-1,1.557124053E0,1.784371259E0
8.132917250E0,3.890352841E-1,-1.459336388E-1,1.196518663E0,1.266610433E0
8.142998250E0,8.647900388E-2,4.857691348E-2,5.419655550E-1,5.509673288E-1
8.153078250E0,-4.929398677E-1,-6.512862682E-2,-6.946831334E-1,8.542927525E-1
8.163159250E0,-1.184447232E0,-4.631000644E-1,-3.635546678E0,3.851568065E0
8.173240250E0,-1.615116738E0,-9.718522650E-1,-6.501930728E0,6.769653026E0
8.183321250E0,-1.303728531E0,-9.456275028E-1,-4.716237261E0,4.983654618E0
8.193401250E0,-7.398541899E-1,-7.102671325E-1,-2.178257985E0,2.407627768E0
8.203482167E0,-8.322631475E-1,-6.394450718E-1,-5.864295369E-1,1.202269333E0
8.213563167E0,-1.186078751E0,-3.353974593E-1,6.029268712E-1,1.372149799E0
8.223644167E0,-1.208895318E0,2.662243134E-1,1.709723518E0,2.110795533E0
8.233724167E0,-9.614642479E-1,7.840022761E-1,2.663181612E0,2.937960069E0
8.243805167E0,-6.137355955E-1,1.219949625E0,3.364817085E0,3.631382999E0
8.253886167E0,-1.263755795E-1,1.626376721E0,3.586684420E0,3.940225521E0
8.263967167E0,4.410711180E-1,1.833070532E0,2.982060102E0,3.528083582E0
8.274048167E0,7.854526779E-1,1.793423486E0,1.917959824E0,2.740779743E0
8.284128167E0,8.606350073E-1,1.690833503E0,1.105638313E0,2.195915898E0
8.294209167E0,6.893827786E-1,1.271926110E0,-2.057423957E-1,1.461292092E0
8.304290167E0,1.479320709E-1,4.696594709E-1,-3.542064317E0,3.576126892E0
8.314371167E0,-6.355204207E-1,-4.278834540E-1,-7.627423847E0,7.665804915E0
8.324451167E0,-1.254941556E0,-7.027791882E-1,-5.856497523E0,6.030533984E0
8.334532167E0,-1.236094811E0,-2.356018603E-2,-2.373732743E0,2.676395449E0
8.344613167E0,-9.946850574E-1,8.677917069E-1,-5.201648327E-1,1.418813682E0
8.354694167E0,-8.733114785E-1,1.559934225E0,4.471704948E-1,1.842831836E0
8.364774167E0,-4.651977530E-1,1.984121654E0,1.314261121E0,2.424959789E0
8.374855167E0,2.081038669E-2,1.940041834E0,2.056777986E0,2.827460181E0
8.384936167E0,2.613427654E-1,1.468941609E0,2.626978576E0,3.021110050E0
8.395017167E0,2.689910696E-1,7.432922065E-1,2.944625643E0,3.048878429E0
8.405098167E0,1.175622176E-1,1.190902412E-2,2.793728303E0,2.796226123E0
8.415178167E0,-5.793187380E-2,-5.744000602E-1,2.048787181E0,2.128572396E0
8.425259167E0,-1.364153950E-1,-1.064987301E0,7.468717258E-1,1.307908439E0
8.435340167E0,-1.537817717E-4,-1.212454079E0,-2.055996798E0,2.386874055E0
8.445421167E0,4.878127366E-1,-6.293820137E-1,-5.685302743E0,5.740797006E0
8.455501167E0,4.358451690E-1,1.693593389E-1,-4.293128643E0,4.318517934E0
8.465582167E0,-1.782494456E-1,2.394803184E-1,-1.386306419E0,1.418086448E0
8.475663167E0,-6.350106896E-1,-1.282499045E-1,-9.352270603E-2,6.545480200E-1
8.485744167E0,-9.229784591E-1,-6.881184644E-1,5.656572668E-1,1.282717584E0
8.495825167E0,-1.077642722E0,-1.238033309E0,1.074155150E0,1.961593637E0
8.505905167E0,-1.073523797E0,-1.567606357E0,1.383754694E0,2.350451039E0
8.515986167E0,-1.128154333E0,-1.697672406E0,1.525975351E0,2.546256972E0
8.526067167E0,-1.097091731E0,-1.474946700E0,1.542164537E0,2.399447747E0
8.536148167E0,-8.018418387E-1,-7.498902047E-1,1.239671114E0,1.655919722E0
8.546228167E0,-3.731847981E-1,8.993017673E-4,4.710387925E-1,6.009536141E-1
8.556309167E0,1.157468033E-1,5.569560617E-1,-3.729412615E-1,6.802077342E-1
8.566390167E0,6.390188098E-1,7.497703367E-1,-8.465727460E-1,1.298917246E0
8.576471167E0,8.402197462E-1,3.329112232E-1,-6.503191388E-1,1.113424486E0
8.586551167E0,6.188668196E-1,-5.477414346E-1,-1.649458971E-1,8.427478677E-1
8.596632167E0,2.067252396E-1,-1.400321610E0,2.168399725E-1,1.432011002E0
8.606713167E0,-5.602071136E-2,-1.830652708E0,4.594559700E-1,1.888260429E0
8.616794167E0,-1.941850086E-1,-1.835376674E0,4.890938250E-1,1.909326615E0
8.626874167E0,-2.667882773E-1,-1.659880682E0,4.501180762E-1,1.740398272E0
8.636955167E0,-3.110189554E-1,-1.449240586E0,3.605961082E-1,1.525470622E0
8.647036167E0,-2.012189166E-1,-1.157266304E0,1.830943023E-1,1.188813641E0
8.657117167E0,9.503625780E-2,-8.688015211E-1,-9.955367044E-2,8.796356670E-1
8.667198167E0,4.038658695E-1,-7.779381287E-1,-3.005867187E-1,9.266324774E-1
8.677278167E0,5.035952488E-1,-9.058506489E-1,-3.356255007E-1,1.089411791E0
8.687359167E0,2.483439665E-1,-9.121808445E-1,-3.722145257E-1,1.016017850E0
8.697440167E0,-2.361705020E-1,-4.377734345E-1,-5.215465663E-1,7.207169394E-1
8.707521167E0,-6.167455959E-1,2.789969712E-1,-7.234064839E-1,9.907226560E-1
8.717601167E0,-7.889382032E-1,8.933685976E-1,-7.286057550E-1,1.396924223E0
8.727682167E0,-7.963146119E-1,1.251433373E0,-3.476847982E-1,1.523511460E0
8.737763167E0,-5.352342403E-1,1.361947503E0,6.249328673E-2,1.464678157E0
8.747844167E0,4.064063385E-2,1.238404022E0,2.618049512E-1,1.266427265E0
8.757925167E0,7.055801506E-1,8.733319438E-1,2.360631691E-1,1.147291529E0
8.768005167E0,1.296886119E0,3.802140284E-1,5.772371292E-2,1.352704085E0
8.778086167E0,1.735708837E0,-2.139730096E-2,-1.652569324E-1,1.743689440E0
8.788167167E0,2.031787864E0,-2.661594093E-1,-3.489693584E-1,2.078649169E0
8.798248167E0,2.188960143E0,-2.773685217E-1,-5.446266228E-1,2.272685188E0
8.808328167E0,2.099987010E0,-7.116997004E-2,-7.513140017E-1,2.231475596E0
8.818409167E0,1.756200258E0,2.075340557E-1,-9.900429529E-1,2.026695532E0
8.828490167E0,1.281685551E0,5.171072870E-1,-1.110270404E0,1.772799529E0
8.838571167E0,6.998237130E-1,6.001973909E-1,-9.209183389E-1,1.303104265E0
8.848651167E0,2.120988308E-1,4.480160022E-1,-6.202281245E-1,7.939692555E-1
8.858732167E0,-4.574072152E-2,1.580900002E-1,-4.270888174E-1,4.577002509E-1
8.868813167E0,-1.771985547E-1,-1.444127780E-1,-3.421288470E-1,4.114687427E-1
8.878894167E0,-2.577679239E-1,-4.002582836E-1,-3.027033742E-1,5.641633885E-1
8.888974167E0,-3.727434795E-1,-6.061615509E-1,-1.869735279E-1,7.357503839E-1
8.899055167E0,-4.971637501E-1,-5.595802921E-1,-3.482956130E-2,7.493430430E-1
8.909136167E0,-4.201405710E-1,-2.099653280E-1,1.321991140E-1,4.879345695E-1
8.919217167E0,-1.810278963E-1,1.699504924E-1,3.104456359E-1,3.975308314E-1
8.929298167E0,-6.961314887E-2,3.476041067E-1,4.485942918E-1,5.717617022E-1
8.939378167E0,-5.264745265E-2,4.260515213E-1,5.152437063E-1,6.706472471E-1
8.949459167E0,-4.817667156E-2,4.386487627E-1,4.366080479E-1,6.207739655E-1
8.959540167E0,-6.144020319E-2,3.427146649E-1,1.493782336E-1,3.788694984E-1
8.969621167E0,-6.099581480E-2,1.397946471E-1,-3.177189875E-1,3.524321038E-1
8.979701167E0,4.661210284E-2,-4.092758596E-2,-7.792917591E-1,7.817566126E-1
8.989782167E0,1.707691026E-1,-1.487824023E-1,-9.439008200E-1,9.706941061E-1
8.999863167E0,1.766705512E-1,-1.159146184E-1,-7.418222165E-1,7.713292963E-1
9.009944167E0,9.494153291E-2,-1.080623925E-2,-3.811700481E-1,3.929647250E-1
9.020024167E0,1.141429120E-1,1.474609315E-2,-4.563517928E-2,1.238088091E-1
9.030105167E0,2.047235915E-1,-3.369750381E-3,5.159579437E-2,2.111521493E-1
9.040186167E0,3.480327076E-1,6.193487763E-2,-4.962944884E-2,3.569674730E-1
9.050267167E0,4.859527373E-1,1.928990597E-1,-1.259777131E-1,5.378015380E-1
9.060348167E0,6.060618559E-1,2.624616301E-1,-1.497331595E-1,6.772127431E-1
9.070428167E0,7.313787970E-1,3.234697241E-1,-1.705866694E-1,8.177086394E-1
9.080509167E0,8.048357593E-1,3.527923411E-1,-1.819975291E-1,8.974107955E-1
9.090590167E0,7.420479190E-1,3.911231786E-1,-9.683164537E-2,8.443866546E-1
9.100671167E0,6.064144430E-1,4.217906553E-1,3.672345618E-2,7.395907285E-1
9.110751167E0,4.187695451E-1,3.951027936E-1,1.142076334E-2,5.758511815E-1
9.120832167E0,2.520281509E-1,2.734766150E-1,-2.270865601E-1,4.357475801E-1
9.130913167E0,1.156991485E-1,4.431721687E-2,-5.483594853E-1,5.621818511E-1
9.140994167E0,6.524177045E-3,-1.517399240E-1,-7.740567470E-1,7.888164659E-1
9.151074167E0,-1.018941647E-1,-1.849924546E-1,-7.672733921E-1,7.958097054E-1
9.161155167E0,-1.551314552E-1,-4.338458598E-2,-5.268966955E-1,5.509701611E-1
9.171236167E0,-1.753395787E-1,8.494484067E-2,-2.725176533E-1,3.350006943E-1
9.181317167E0,-1.273970881E-1,1.412523580E-1,-2.063102335E-1,2.806174605E-1
9.191398167E0,5.387288287E-2,1.421481514E-1,-2.154839484E-1,2.637076344E-1
9.201478167E0,2.671999213E-1,1.614474714E-1,-2.247477104E-1,3.846720906E-1
9.211560000E0,4.814274310E-1,1.949765754E-1,-1.296532180E-1,5.353486650E-1
9.221641000E0,6.401929307E-1,2.360503417E-1,4.643038234E-2,6.839024293E-1
9.231722000E0,7.393025051E-1,2.717206961E-1,1.985568255E-1,8.122962167E-1
9.241802000E0,7.885302137E-1,2.484300667E-1,2.680374984E-1,8.691038468E-1
9.251883000E0,7.107371025E-1,1.443712628E-1,2.768469501E-1,7.762953846E-1
9.261964000E0,6.329627024E-1,3.366066635E-2,1.696300650E-1,6.561624661E-1
9.272045000E0,4.493249014E-1,3.824956119E-2,-1.304654054E-1,4.694434129E-1
9.282125000E0,2.373373139E-1,1.095657116E-1,-4.901030910E-1,5.554589864E-1
9.292206000E0,8.059085771E-2,8.884902656E-2,-7.673955989E-1,7.767142596E-1
9.302287000E0,-7.139216423E-2,8.112836301E-2,-7.025055385E-1,7.107690792E-1
9.312368000E0,-2.447982149E-1,1.076191735E-1,-5.459942865E-1,6.079620165E-1
9.322449000E0,-3.998830386E-1,1.919617510E-1,-4.991019559E-1,6.677263816E-1
9.332529000E0,-5.447676869E-1,2.747290885E-1,-4.597934639E-1,7.639750874E-1
9.342610000E0,-5.882886592E-1,2.370929003E-1,-3.400144207E-1,7.196571379E-1
9.352691000E0,-4.733218744E-1,1.137341917E-1,-2.701541905E-1,5.567336435E-1
9.362772000E0,-3.510146414E-1,-5.739977717E-2,-9.282805681E-2,3.675908881E-1
9.372852000E0,-2.995426252E-1,-2.101348972E-1,-1.592076223E-2,3.662457236E-1
9.382933000E0,-2.937986130E-1,-2.459227806E-1,-1.722238898E-2,3.835260743E-1
9.393014000E0,-2.795416394E-1,-1.999163032E-1,1.942994678E-1,3.947940471E-1
9.403095000E0,-2.820170581E-1,-1.563557160E-1,3.837446137E-1,5.012391241E-1
9.413175000E0,-3.485547177E-1,-1.820115441E-1,4.647694445E-1,6.087932572E-1
9.423256000E0,-3.726965556E-1,-1.788207185E-1,4.793688456E-1,6.329882005E-1
9.433337000E0,-2.540107955E-1,-4.664674759E-2,5.403599095E-1,5.989041953E-1
9.443418000E0,-8.516820431E-2,1.931341177E-1,7.343518138E-1,7.640857261E-1
9.453499000E0,-3.133785993E-2,4.260485977E-1,7.941115272E-1,9.017275568E-1
9.463579000E0,-3.975726575E-2,5.942267990E-1,7.165916272E-1,9.317669714E-1
9.473660000E0,-4.428403392E-2,6.149183410E-1,4.414296985E-1,7.582518187E-1
9.483741000E0,-8.956034034E-3,4.817298782E-1,-6.807796240E-2,4.865989057E-1
9.493822000E0,6.255658284E-2,2.586159164E-1,-3.946788704E-1,4.759904716E-1
9.503902000E0,2.824994534E-2,3.586038888E-2,-2.475090571E-1,2.516838498E-1
9.513983000E0,-1.330298571E-1,-1.506178433E-1,-1.003265262E-1,2.246065214E-1
9.524064000E0,-3.747217387E-1,-1.946210647E-1,-3.496820609E-1,5.482438180E-1
9.534145000E0,-6.325943278E-1,-1.915787584E-1,-7.481371363E-1,9.982921311E-1
9.544225000E0,-8.394255482E-1,-1.374803191E-1,-8.392087626E-1,1.194908966E0
9.554306000E0,-9.259767652E-1,-1.477942228E-2,-6.785168977E-1,1.148057743E0
9.564387000E0,-9.059406960E-1,1.115952802E-1,-4.514646900E-1,1.018333156E0
9.574468000E0,-8.777150166E-1,2.185829544E-1,-1.366940148E-1,9.147936445E-1
9.584548000E0,-8.582491972E-1,2.250838888E-1,1.850197904E-1,9.063590703E-1
9.594629000E0,-7.891824706E-1,1.897532576E-1,5.356108010E-1,9.724680976E-1
9.604710000E0,-7.059944259E-1,2.419729865E-1,8.027105887E-1,1.096048970E0
9.614791000E0,-6.241630813E-1,3.454774743E-1,7.822431412E-1,1.058696637E0
9.624872000E0,-5.688953452E-1,5.184872299E-1,6.840293603E-1,1.029741272E0
9.634952000E0,-5.656127183E-1,8.914203054E-1,5.390032093E-1,1.185357485E0
9.645033000E0,-3.635303141E-1,1.467044773E0,1.971470618E-1,1.524218363E0
9.655114000E0,-4.381435633E-2,2.160331591E0,-1.767440799E-1,2.167992332E0
9.665195000E0,4.117612186E-1,2.883632167E0,-4.780180657E-1,2.951844008E0
9.675275000E0,9.426761207E-1,3.482159008E0,-2.781719291E-1,3.618210780E0
9.685356000E0,8.681861016E-1,3.716121894E0,-1.794671282E-1,3.820408027E0
9.695437000E0,2.321131191E-1,3.776019017E0,-4.162884253E-1,3.805981105E0
9.705518000E0,-4.860050699E-1,4.093754377E0,-1.370875324E0,4.344459112E0
9.715598000E0,-5.887079045E-1,4.800611998E0,-7.737503529E-1,4.898075353E0
9.725679000E0,-7.162462029E-1,5.256421754E0,1.812845890E0,5.606191978E0
9.735760000E0,-2.303580773E-1,5.425412718E0,3.949814638E-1,5.444646762E0
9.745841000E0,-8.463347644E-2,5.119685785E0,-2.037731558E0,5.510961374E0
9.755921000E0,-2.432402827E0,4.118854135E0,-1.653991951E0,5.061346883E0
9.766002000E0,-3.400397100E0,4.287967891E0,-5.655748576E-2,5.472893916E0
9.776083000E0,-1.259199937E0,4.617918084E0,1.094870081E0,4.910141791E0
9.786164000E0,6.161637980E-1,3.496882297E0,8.471548364E-1,3.650412983E0
9.796245000E0,8.338334173E-1,1.779970797E0,1.257362157E0,2.333352481E0
9.806325000E0,4.501332790E-1,1.697154343E-1,1.410412150E0,1.490196541E0
9.816406000E0,1.006414864E0,-8.839890790E-1,1.210437667E0,1.805399379E0
9.826487000E0,2.104889754E0,-1.630948659E0,4.302188319E-1,2.697339921E0
9.836568000E0,2.194713804E0,-2.547390370E0,1.010576035E0,3.511015565E0
9.846648000E0,2.411786714E0,-3.232357770E0,-1.268448186E-1,4.034964872E0
9.856729000E0,3.049704786E0,-4.200992897E0,-3.392769699E0,6.201606794E0
9.866810000E0,2.111336017E0,-6.352347257E0,-4.562355209E0,8.100934545E0
9.876891000E0,4.962485147E-1,-8.348711227E0,-3.683241831E0,9.138572762E0
9.886971000E0,-2.779883265E-1,-9.666126335E0,-2.336461421E0,9.948383176E0
9.897052000E0,1.190481412E0,-1.050672849E1,-3.294886140E0,1.107541711E1
9.907133000E0,3.791637515E0,-1.241866744E1,-4.590982592E0,1.377232504E1
9.917214000E0,6.000265353E0,-1.616420667E1,-3.751590520E0,1.764537313E1
9.927295000E0,8.596326191E0,-1.932011736E1,-4.269041623E0,2.157286432E1
9.937375000E0,1.028232522E1,-2.183420023E1,-6.364356269E0,2.495923762E1
9.947456000E0,9.866956558E0,-2.316230639E1,-6.098360581E0,2.590442570E1
9.957537000E0,8.786196978E0,-2.187573184E1,-4.050495798E0,2.391968681E1
9.967618000E0,8.065111327E0,-1.829764516E1,-1.682525487E0,2.006690637E1
9.977698000E0,8.128391064E0,-1.411763442E1,-5.116006717E-1,1.629846858E1
9.987779000E0,7.965794030E0,-1.097519104E1,4.448611370E-1,1.356858851E1
9.997860000E0,7.580068417E0,-8.536816739E0,1.832409943E0,1.156254312E1
1.000794100E1,7.229061230E0,-5.899827729E0,1.833597074E0,9.509435932E0
1.001802100E1,6.237111501E0,-3.496986378E0,1.070768004E0,7.230284760E0
1.002810200E1,4.721877777E0,-1.366747482E0,6.113122170E-1,4.953567507E0
1.003818300E1,2.853196825E0,7.849173653E-1,-9.271462083E-2,2.960645773E0
1.004826400E1,6.532453778E-1,2.722603941E0,-4.814446072E-1,2.840966500E0
1.005834400E1,-1.274733650E0,4.063465800E0,1.082337159E0,4.394104449E0
1.006842500E1,-2.296367648E0,5.284636323E0,2.263229722E0,6.190548782E0
1.007850600E1,-2.097014578E0,7.041132889E0,1.095672904E0,7.428022725E0
1.008858700E1,-2.019514850E0,8.371718266E0,-6.663143434E-2,8.612116273E0
1.009866800E1,-2.197219189E0,9.268971169E0,-1.344257337E0,9.620219669E0
1.010874800E1,-2.930567182E0,9.772721077E0,-3.819742742E0,1.089425242E1
1.011882900E1,-6.285577317E0,9.594141848E0,-1.690279538E1,2.042695600E1
1.012891000E1,-8.433773596E0,8.652140204E0,-2.149615866E1,2.465913430E1
1.013899100E1,-7.115973156E0,7.696633245E0,-1.102049526E1,1.520942317E1
1.014907100E1,-5.514844712E0,7.346405493E0,-2.280941523E0,9.464981780E0
1.015915200E1,-2.713992162E0,7.852222976E0,3.048486811E0,8.849657110E0
1.016923300E1,-3.824160898E-1,8.644045903E0,5.093295547E0,1.004029039E1
1.017931400E1,1.048756892E0,9.483741154E0,6.089744124E0,1.131928535E1
1.018939400E1,2.074904062E0,1.014515772E1,7.085429056E0,1.254722109E1
1.019947500E1,3.031277578E0,1.080840272E1,7.898760381E0,1.372591085E1
1.020955600E1,3.859344179E0,1.132783310E1,8.008050689E0,1.439941721E1
1.021963700E1,4.443570193E0,1.175450560E1,7.644639219E0,1.470898456E1
1.022971700E1,4.453409595E0,1.190469601E1,6.617668176E0,1.432997475E1
1.023979800E1,4.009029976E0,1.158065618E1,4.886207049E0,1.319313982E1
1.024987900E1,3.518195983E0,1.122643654E1,3.088065444E0,1.216333542E1
1.025996000E1,3.118569784E0,1.116465953E1,1.870303409E0,1.174193914E1
1.027004100E1,2.851083056E0,1.120527897E1,9.451370676E-1,1.160087219E1
1.028012100E1,2.689874151E0,1.120485329E1,5.447079722E-1,1.153606809E1
1.029020200E1,2.547890307E0,1.122185466E1,4.394391601E-1,1.151585315E1
1.030028300E1,2.369051754E0,1.127766048E1,1.714744230E-1,1.152507855E1
1.031036400E1,2.167500862E0,1.133168174E1,-1.893373744E-1,1.153867062E1
1.032044400E1,1.866421296E0,1.130498686E1,-8.352127755E-1,1.148842186E1
1.033052500E1,1.378057021E0,1.090968234E1,-2.534728224E0,1.128472672E1
1.034060600E1,8.459016319E-1,9.897991240E0,-4.312824404E0,1.082987694E1
1.035068700E1,9.382271205E-1,9.551576457E0,-3.558835301E0,1.023612190E1
1.036076700E1,1.220325016E0,9.780142947E0,-1.653570367E0,9.993732245E0
1.037084800E1,1.238002173E0,9.906708269E0,-8.154234588E-1,1.001700721E1
1.038092900E1,2.828473628E-1,9.259739585E0,-7.029802154E0,1.162931202E1
1.039101000E1,-2.282965976E0,5.683722240E0,-2.503756692E1,2.577588776E1
1.040109000E1,-8.764876860E-1,3.805001326E0,-1.504336209E1,1.554184702E1
1.041117100E1,-3.490746814E-1,2.567085546E0,-4.946443895E0,5.583823828E0
1.042125200E1,-8.743179305E-1,-1.645669609E-1,-1.580836559E0,1.813989624E0
1.043133300E1,1.437156437E-1,-2.453410996E0,5.034514657E0,5.602340362E0
1.044141400E1,4.019700560E0,4.636836165E-1,1.759576294E1,1.805502336E1
1.045149400E1,7.114579765E0,-8.934194684E-2,1.767754794E1,1.905573217E1
1.046157500E1,6.702669150E0,-6.023594574E0,1.390163593E1,1.656698364E1
1.047165600E1,2.865711913E0,-1.371087052E1,5.418991891E0,1.501884644E1
1.048173700E1,-1.754786109E0,-2.194825836E1,-4.512879579E0,2.247601836E1
1.049181700E1,-3.883480316E0,-2.628124630E1,-5.542935905E0,2.713870788E1
1.050189800E1,-2.388231060E0,-2.551986164E1,-2.329214528E0,2.573698168E1
1.051197900E1,-1.859041379E0,-2.553252203E1,-6.560344997E-1,2.560851611E1
1.052206000E1,-2.397284158E0,-2.696667330E1,1.265704672E0,2.710259117E1
1.053214000E1,5.164415815E-1,-2.570144108E1,1.181610163E0,2.573377135E1
1.054222100E1,3.323436924E0,-1.995309950E1,-3.631716167E0,2.055141784E1
1.055230200E1,2.539691341E0,-1.446073032E1,-4.415093375E0,1.533152970E1
1.056238300E1,1.406604736E0,-1.085210130E1,-3.380468327E0,1.145313082E1
1.057246300E1,7.425265136E-1,-8.226467582E0,-4.715002913E0,9.510907789E0
1.058254400E1,2.212168327E-1,-5.899078116E0,-5.219190778E0,7.879594652E0
1.059262500E1,1.501725778E-2,-3.680848566E0,-4.459098351E0,5.782078328E0
1.060270600E1,-4.170225433E-1,-1.928874822E0,-3.429424725E0,3.956693041E0
1.061278600E1,-1.250894260E0,-3.705965281E-1,-2.606170675E0,2.914481741E0
1.062286700E1,-1.974410306E0,1.034501672E0,-1.083977888E0,2.478608042E0
1.063294800E1,-1.861524838E0,2.026870063E0,1.337158817E0,3.059652051E0
1.064302900E1,-1.064506660E0,2.698936166E0,3.360355074E0,4.439528926E0
1.065311000E1,-6.816321480E-1,3.857316949E0,4.051684245E0,5.635571103E0
1.066319000E1,-4.269818133E-1,5.378092956E0,4.015687616E0,6.725469823E0
1.067327100E1,-4.208103696E-1,6.815629755E0,3.714398135E0,7.773457649E0
1.068335200E1,-5.376136185E-1,7.923967727E0,3.453966658E0,8.660726218E0
1.069343300E1,-6.430606976E-1,8.748412271E0,3.218609211E0,9.343858388E0
1.070351300E1,-8.142991854E-1,9.288934148E0,2.803012512E0,9.736747912E0
1.071359400E1,-8.905104786E-1,9.474603125E0,2.262338022E0,9.781578943E0
1.072367500E1,-9.536649393E-1,9.223124905E0,1.720299962E0,9.430532424E0
1.073375600E1,-1.160863511E0,7.913263230E0,1.302310581E0,8.103292657E0
1.074383600E1,-1.037293864E0,6.263887070E0,1.141914439E0,6.451064128E0
1.075391700E1,-6.243791360E-1,4.932905252E0,1.276279947E0,5.133448552E0
1.076399800E1,-3.234765945E-1,3.549845792E0,1.614716789E0,3.913227895E0
1.077407900E1,-1.847601740E-1,1.971529675E0,2.114907496E0,2.897222687E0
1.078415900E1,-1.741218960E-1,5.948723316E-2,2.560847737E0,2.567449765E0
1.079424000E1,-3.420068595E-1,-1.591360086E0,6.476785362E-1,1.751822794E0
1.080432100E1,-5.384953786E-1,-2.323164268E0,-2.192317615E0,3.239340366E0
1.081440200E1,-6.648855762E-1,-2.617359322E0,-3.417146741E0,4.355402909E0
1.082448300E1,-5.852871372E-1,-2.908063003E0,-3.231977116E0,4.386920052E0
1.083456300E1,-1.803246224E-1,-3.625564896E0,-2.463551238E0,4.387063082E0
1.084464400E1,4.216101225E-1,-4.828883286E0,-2.108693075E0,5.286062369E0
1.085472500E1,1.070438075E0,-5.932010804E0,-2.921522709E0,6.698498697E0
1.086480600E1,1.861311999E0,-7.269881228E0,-3.806434479E0,8.414546860E0
1.087488600E1,2.216551107E0,-8.436285560E0,-2.992717237E0,9.221733532E0
1.088496700E1,1.063918137E0,-7.574507715E0,-1.054201527E0,7.721167643E0
1.089504800E1,-5.371154357E-1,-3.301756033E0,7.989495134E-1,3.439245007E0
1.090512900E1,-9.054246792E-1,4.161293811E-1,2.073084701E0,2.300138624E0
1.091520900E1,-1.288542289E0,2.624471290E0,2.414482573E0,3.791822369E0
1.092529000E1,-1.433733185E0,4.053934253E0,2.193035653E0,4.826943044E0
1.093537100E1,-1.120420074E0,4.790215648E0,1.305560464E0,5.089793240E0
1.094545200E1,-3.326236863E-1,4.512274100E0,2.663114369E-1,4.532347940E0
1.095553200E1,5.174242061E-1,2.770354058E0,-1.992731460E-1,2.825296304E0
1.096561300E1,8.796577540E-1,1.084773109E0,-6.052371061E-1,1.522117741E0
1.097569400E1,9.796293542E-1,2.818521667E-1,-1.397862271E0,1.730067410E0
1.098577500E1,8.624803886E-1,-1.173968875E-1,-1.434189852E0,1.677663549E0
1.099585500E1,7.065266687E-1,-2.732889193E-1,-8.301818311E-1,1.123863266E0
1.100593600E1,7.352902919E-1,-3.798322052E-1,-5.779937589E-1,1.009455845E0
1.101601700E1,8.651677689E-1,-5.077792239E-1,6.830487091E-2,1.005495183E0
1.102609800E1,8.135780776E-1,-7.220077568E-1,7.786491501E-1,1.337721566E0
1.103617900E1,5.010464475E-1,-9.483172220E-1,1.334229362E0,1.711876481E0
1.104625900E1,2.779288311E-1,-1.055480313E0,1.671364614E0,1.996182055E0
1.105634000E1,4.213679016E-2,-1.019483684E0,1.216223195E0,1.587551999E0
1.106642100E1,-4.185219155E-1,-7.062249523E-1,-7.997190070E-1,1.146064905E0
1.107650200E1,-7.063439432E-1,-7.422046244E-2,-2.996078217E0,3.079109470E0
1.108658200E1,-8.411137855E-1,3.115396500E-1,-2.673299049E0,2.819761898E0
1.109666300E1,-9.799006650E-1,3.164641750E-1,-1.017404999E0,1.447573079E0
1.110674400E1,-9.561405042E-1,4.079970735E-1,-5.408077697E-1,1.171810275E0
1.111682500E1,-9.731889385E-1,4.321232700E-1,-7.183725429E-1,1.284479015E0
1.112690500E1,-1.231944603E0,1.125916457E-1,-8.022789180E-1,1.474454423E0
1.113698600E1,-1.388458779E0,-2.896447510E-1,-6.310311478E-2,1.419751339E0
1.114706700E1,-1.230515251E0,-3.457084394E-1,6.162100641E-1,1.418942195E0
1.115714800E1,-8.830865613E-1,2.080790162E-2,9.264316785E-1,1.280058787E0
1.116722800E1,-6.588250834E-1,3.442986757E-1,1.021337836E0,1.263219317E0
1.117730900E1,-6.118006057E-1,4.087449324E-1,7.167341530E-1,1.027170992E0
1.118739000E1,-3.872192851E-1,4.065300071E-1,-1.417879629E-1,5.790589330E-1
1.119747100E1,1.242012924E-1,4.126257294E-1,-1.124469783E0,1.204208556E0
1.120755104E1,6.156995291E-1,2.753360295E-1,-1.197549454E0,1.374416434E0
1.121763204E1,8.499457124E-1,-2.188729763E-2,-5.438096937E-1,1.009264956E0
1.122771304E1,9.037696248E-1,-1.703352392E-1,-3.717659712E-2,9.204323592E-1
1.123779404E1,8.707080057E-1,-1.391900450E-1,1.480761317E-1,8.941100831E-1
1.124787504E1,9.172948194E-1,-6.986136317E-2,2.692047123E-1,9.585309451E-1
1.125795504E1,1.200395659E0,-4.001600504E-2,4.453812468E-1,1.280982230E0
1.126803604E1,1.715326758E0,3.234094977E-3,7.408843962E-1,1.868492985E0
1.127811704E1,2.298606985E0,2.345897073E-1,8.098265771E-1,2.448355670E0
1.128819804E1,2.624595836E0,5.472911990E-1,6.173431083E-1,2.751207639E0
1.129827804E1,2.684875367E0,8.549137992E-1,5.363148057E-1,2.868286406E0
1.130835904E1,2.631104664E0,8.912098056E-1,6.095674078E-1,2.844035706E0
1.131844004E1,2.720593668E0,6.690208733E-1,8.827482998E-1,2.937424620E0
1.132852104E1,2.666526512E0,2.736064231E-1,1.166242365E0,2.923242269E0
1.133860104E1,2.064895383E0,1.321353793E-2,1.273356339E0,2.425985142E0
1.134868204E1,5.310765776E-1,6.477779388E-2,8.761608267E-1,1.026594510E0
1.135876304E1,-1.065861752E0,2.735514593E-1,3.279972962E-1,1.148248188E0
1.136884404E1,-2.183354125E0,4.302509916E-1,-3.015409112E-2,2.225547218E0
1.137892404E1,-2.627199016E0,4.099126214E-1,-2.510794401E-3,2.658986523E0
1.138900504E1,-2.644176114E0,1.103118163E-1,4.706555441E-2,2.646894631E0
1.139908604E1,-2.335041424E0,-4.590187079E-1,-5.454516649E-2,2.380355394E0
1.140916704E1,-1.594182244E0,-9.513431561E-1,1.633197498E-1,1.863637349E0
1.141924704E1,-6.488479793E-1,-1.076201091E0,5.991456230E-1,1.392188193E0
1.142932804E1,1.366275027E-1,-8.883779991E-1,8.363847037E-1,1.227771117E0
1.143940904E1,5.365317374E-1,-5.115495086E-1,6.992473237E-1,1.019066251E0
1.144949004E1,6.860789555E-1,6.667053759E-2,2.897975095E-1,7.477512222E-1
1.145957104E1,7.494861621E-1,6.289446419E-1,-2.059180315E-1,9.998515417E-1
1.146965104E1,6.741637918E-1,9.940898108E-1,-5.847320902E-1,1.335897821E0
1.147973204E1,5.192143312E-1,1.061832143E0,-9.374792616E-1,1.508621353E0
1.148981304E1,3.024106845E-1,8.319301486E-1,-1.406711301E0,1.662045932E0
1.149989404E1,-5.475917459E-4,4.238997459E-1,-2.011719196E0,2.055895284E0
1.150997404E1,-2.510165825E-1,4.928325713E-2,-2.469608953E0,2.482822294E0
1.152005504E1,-3.478792182E-1,-1.740897363E-1,-2.676037885E0,2.704164556E0
1.153013604E1,-3.017829859E-1,-2.855897069E-1,-2.545904592E0,2.579586138E0
1.154021704E1,-1.268003798E-1,-3.444495338E-1,-2.128020608E0,2.159443337E0
1.155029704E1,1.134105483E-1,-3.382240033E-1,-1.659647525E0,1.697553338E0
1.156037804E1,3.084388715E-1,-2.402281773E-1,-1.332515835E0,1.388683753E0
1.157045904E1,4.871981943E-1,-5.631453395E-3,-1.118653338E0,1.220155353E0
1.158054004E1,5.830393213E-1,3.278282386E-1,-8.776752555E-1,1.103503538E0
1.159062004E1,6.574653134E-1,6.414594376E-1,-6.866337101E-1,1.146820256E0
1.160070104E1,7.026441175E-1,8.344163847E-1,-6.259748411E-1,1.257697881E0
1.161078204E1,6.305780616E-1,7.763114333E-1,-5.975456786E-1,1.165053205E0
1.162086304E1,4.763942939E-1,6.150358701E-1,-4.494453540E-1,8.984552137E-1
1.163094304E1,3.519143817E-1,4.810919470E-1,-2.357097414E-1,6.409775937E-1
1.164102404E1,2.495240808E-1,4.121333939E-1,-9.779175818E-3,4.818836307E-1
1.165110504E1,1.015290061E-1,3.776488549E-1,1.093464410E-1,4.060584204E-1
1.166118604E1,1.994485259E-2,3.661456275E-1,1.306700671E-1,3.892750751E-1
1.167126704E1,-3.747919053E-2,4.119614857E-1,6.564800575E-2,4.188396067E-1
1.168134704E1,-5.399465114E-2,4.890312964E-1,-7.584715784E-3,4.920615399E-1
1.169142804E1,-3.837322980E-2,5.639399761E-1,5.626190901E-3,5.652720190E-1
1.170150904E1,-2.880601555E-2,6.151229936E-1,7.099893898E-2,6.198765467E-1
1.171159004E1,-4.538608789E-3,5.972158957E-1,1.063959360E-1,6.066362338E-1
1.172167004E1,-5.061671466E-2,5.493119967E-1,-8.272319108E-2,5.578071780E-1
1.173175104E1,-2.718525508E-1,5.263739544E-1,-6.169666207E-1,8.553485607E-1
1.174183204E1,-5.030546737E-1,4.828735936E-1,-1.243956538E0,1.426064087E0
1.175191304E1,-6.756062999E-1,2.832870734E-1,-1.113373741E0,1.332777748E0
1.176199304E1,-6.068211168E-1,7.414094031E-2,-5.470818686E-1,8.203824217E-1
1.177207404E1,-4.869780466E-1,3.412785888E-2,-3.065763871E-1,5.764559044E-1
1.178215504E1,-4.299536607E-1,1.064520693E-1,-1.236462454E-1,4.598701854E-1
1.179223604E1,-2.487607267E-1,2.413637066E-1,1.061237481E-1,3.624921902E-1
1.180231604E1,-9.106161296E-3,4.411110252E-1,3.062540594E-1,5.370785861E-1
1.181239704E1,9.969882756E-2,5.835082680E-1,3.911608931E-1,7.095270251E-1
1.182247804E1,3.844515055E-2,5.519783270E-1,3.402983031E-1,6.495852817E-1
1.183255904E1,-2.995265454E-2,4.750728232E-1,1.402058525E-1,4.962348536E-1
1.184263904E1,-3.646235973E-2,5.076885921E-1,-2.207087097E-1,5.547878376E-1
1.185272004E1,3.611152679E-2,6.036045635E-1,-6.457160644E-1,8.846421578E-1
1.186280104E1,9.765581042E-2,6.800902373E-1,-9.589420514E-1,1.179673364E0
1.187288204E1,1.661693904E-1,4.850388175E-1,-1.116117693E0,1.228248194E0
1.188296204E1,2.770866859E-1,7.866376162E-2,-1.082230740E0,1.119905528E0
1.189304304E1,3.869403729E-1,-2.772486538E-1,-1.061385123E0,1.163240323E0
1.190312404E1,4.559895578E-1,-3.637061691E-1,-1.176132345E0,1.312819846E0
1.191320504E1,4.265853721E-1,-9.560080647E-2,-1.240105562E0,1.314905472E0
1.192328604E1,2.702264401E-1,3.204706872E-1,-1.029092267E0,1.111195160E0
1.193336604E1,-3.845362902E-2,6.332493621E-1,-5.644595012E-1,8.491748729E-1
1.194344704E1,-3.824485418E-1,8.224757856E-1,-1.226615743E-1,9.153027733E-1
1.195352804E1,-6.417617387E-1,9.381845820E-1,8.016795784E-2,1.139506622E0
1.196360904E1,-7.934779814E-1,9.762446934E-1,4.501902893E-2,1.258843803E0
1.197368904E1,-7.988366622E-1,8.306151098E-1,-3.530183360E-2,1.152956067E0
1.198377004E1,-7.342936340E-1,4.288576001E-1,-4.541050002E-2,8.515680217E-1
1.199385104E1,-5.993197238E-1,-6.817034841E-2,-2.736100776E-1,6.623396428E-1
1.200393204E1,-3.713783008E-1,-4.023510021E-1,-8.595418704E-1,1.019127273E0
1.201401204E1,-1.311281964E-1,-5.089083213E-1,-1.390734369E0,1.486715968E0
1.202409304E1,-2.297575682E-2,-4.046992439E-1,-1.621234241E0,1.671140278E0
1.203417404E1,-1.475214502E-1,-2.428886604E-1,-1.605947134E0,1.630896587E0
1.204425504E1,-4.330164322E-1,-1.813578254E-1,-1.260593183E0,1.345172503E0
1.205433604E1,-7.700712848E-1,-2.861989868E-1,-7.262218451E-1,1.096502536E0
1.206441604E1,-9.578066683E-1,-4.060821104E-1,-2.348183334E-1,1.066506420E0
1.207449704E1,-9.803646415E-1,-4.381359619E-1,-1.564280753E-1,1.085148697E0
1.208457804E1,-9.338786924E-1,-4.326442569E-1,-4.988152961E-1,1.143733870E0
1.209465904E1,-8.776103514E-1,-4.123012090E-1,-6.108258748E-1,1.145993222E0
1.210473904E1,-7.909866290E-1,-4.170579189E-1,-6.498712420E-2,8.965603612E-1
1.211482004E1,-6.676347908E-1,-3.852239227E-1,8.587840712E-1,1.153968702E0
1.212490104E1,-3.391924484E-1,-1.561826384E-1,1.032256926E0,1.097724417E0
1.213498204E1,3.612304580E-1,1.902619654E-1,4.118356975E-1,5.799100801E-1
1.214506204E1,9.290801749E-1,3.365487760E-1,-3.287502714E-1,1.041408561E0
1.215514304E1,1.119105913E0,4.075257879E-1,-4.007471108E-1,1.256611936E0
1.216522404E1,9.056718703E-1,4.976442450E-1,-4.179297388E-1,1.114700228E0
1.217530504E1,4.848451285E-1,5.001374978E-1,-3.362278370E-1,7.734736412E-1
1.218538504E1,4.133718342E-2,4.400573570E-1,-1.305238867E-1,4.608641070E-1
1.219546604E1,-2.336706711E-1,3.165618235E-1,-1.061726455E-1,4.075365030E-1
1.220554704E1,-3.534424053E-1,5.612917721E-2,-4.118303619E-2,3.602333423E-1
1.221562738E1,-3.281100744E-1,-2.019335926E-1,4.012173001E-1,5.562451965E-1
1.222570737E1,-2.207168958E-1,-3.434736335E-1,9.109213543E-1,9.982323370E-1
1.223578837E1,-8.294290021E-2,-3.887533021E-1,1.230808489E0,1.293405656E0
1.224586937E1,1.401396328E-1,-2.701898950E-1,1.282135348E0,1.317768093E0
1.225595037E1,3.577966806E-1,-4.780098796E-2,1.049681556E0,1.110015661E0
1.226603038E1,5.777727342E-1,1.064146471E-1,7.431460992E-1,9.473180745E-1
1.227611138E1,7.849734986E-1,1.676770949E-1,6.167643801E-1,1.012273334E0
1.228619238E1,1.058524519E0,1.633004540E-1,7.571127585E-1,1.311625299E0
1.229627338E1,1.231261649E0,8.679723859E-2,6.251142041E-1,1.383584756E0
1.230635337E1,1.275206105E0,4.729286492E-2,2.011957470E-1,1.291846336E0
1.231643437E1,1.101775643E0,-3.725611925E-2,1.304583979E-1,1.110097734E0
1.232651537E1,8.600996947E-1,-1.798276091E-1,2.608350078E-1,9.165938878E-1
1.233659637E1,7.247930780E-1,-2.995844328E-1,3.605206791E-1,8.631633672E-1
1.234667737E1,6.384323341E-1,-3.950682950E-1,3.217243302E-1,8.168116965E-1
1.235675738E1,4.934139307E-1,-4.238810349E-1,3.840872240E-1,7.554173908E-1
1.236683838E1,2.926059271E-1,-3.302565873E-1,7.185304177E-1,8.431925066E-1
1.237691938E1,1.050924455E-1,-1.010884184E-1,1.026568609E0,1.036873376E0
1.238700038E1,2.730386585E-2,1.688202256E-1,1.037263312E0,1.051266355E0
1.239708037E1,1.881341636E-4,2.974905449E-1,9.542983389E-1,9.995929068E-1
1.240716137E1,6.446803764E-2,2.332840240E-1,8.050914288E-1,8.406841098E-1
1.241724237E1,9.234303027E-2,5.212441921E-2,8.068947101E-1,8.138324542E-1
1.242732337E1,-2.952405363E-2,-1.444993168E-1,1.023124672E0,1.033700061E0
1.243740338E1,-2.924188162E-1,-2.787350160E-1,9.496147192E-1,1.031973880E0
1.244748437E1,-6.211131737E-1,-3.039739376E-1,5.856828475E-1,9.062042414E-1
1.245756537E1,-8.975458485E-1,-2.313374859E-1,1.024666071E-1,9.325261327E-1
1.246764637E1,-1.074350886E0,-1.750966269E-1,-2.181970382E-1,1.110179536E0
1.247772638E1,-1.131854158E0,-5.506615341E-2,-2.232245107E-1,1.154969826E0
1.248780738E1,-1.135358249E0,7.185701787E-2,-9.058970612E-2,1.141231036E0
1.249788838E1,-1.064707219E0,1.095054853E-1,-6.341075141E-2,1.072200465E0
1.250796938E1,-9.085511854E-1,1.508511472E-1,-5.211155534E-2,9.224624325E-1
1.251804937E1,-6.957270075E-1,1.863981253E-1,-2.451620579E-2,7.206811878E-1
1.252813037E1,-4.446243247E-1,1.873085368E-1,-2.971675593E-2,4.833822128E-1
1.253821137E1,-2.212561552E-1,1.563627326E-1,-1.576880772E-2,2.713894723E-1
1.254829237E1,9.125895649E-3,2.330553979E-1,5.912594832E-2,2.406116751E-1
1.255837238E1,1.888229656E-1,3.762238884E-1,5.013760842E-2,4.239248829E-1
1.256845338E1,4.132971360E-1,6.105960792E-1,-1.324101619E-1,7.491158425E-1
1.257853438E1,4.862426130E-1,7.598199463E-1,-8.285153747E-2,9.058822257E-1
1.258861538E1,4.010695848E-1,8.298877162E-1,2.248241993E-1,9.487446200E-1
1.259869638E1,5.284773441E-1,9.998446405E-1,2.473360527E-1,1.157649658E0
1.260877637E1,9.785990748E-1,1.449886703E0,-2.698945376E-1,1.769935214E0
1.261885737E1,1.220449854E0,1.905498823E0,-8.680553433E-1,2.423622019E0
1.262893837E1,1.006263568E0,2.134108583E0,-5.672232608E-1,2.426670154E0
1.263901937E1,5.211216930E-1,2.318019887E0,1.646495529E-1,2.381573743E0
1.264909938E1,-6.660095572E-2,2.463441310E0,1.229777333E0,2.754147974E0
1.265918038E1,-9.656740969E-1,2.532606270E0,2.426173642E0,3.637710753E0
1.266926138E1,-1.402037768E0,2.610806932E0,1.816625969E0,3.475939103E0
1.267934238E1,-1.326559862E0,2.579395105E0,-3.649902177E-1,2.923398370E0
1.268942237E1,-1.573797681E0,2.111399751E0,-4.672964649E-1,2.674549315E0
1.269950337E1,-2.218668969E0,1.292448667E0,3.784833987E-1,2.595412344E0
1.270958437E1,-2.473536820E0,3.481116450E-1,-3.878842597E-1,2.527848951E0
1.271966537E1,-2.454434844E0,-5.796701556E-1,-2.367874417E0,3.459349238E0
1.272974537E1,-2.339072495E0,-1.057076603E0,-4.176289872E0,4.902047345E0
1.273982637E1,-1.796917198E0,-7.137275147E-1,-4.766620087E0,5.143829841E0
1.274990737E1,5.410604060E-2,3.198304170E-1,-6.431838984E0,6.440013329E0
1.275998837E1,2.343276058E0,5.236649394E-1,-7.812687027E0,8.173325287E0
1.277006838E1,2.202026331E0,-9.318000072E-1,-3.792606983E0,4.483418221E0
1.278014938E1,-5.904924747E-1,-2.774090429E0,3.657179037E0,4.628090057E0
1.279023038E1,-2.663538292E0,-2.304695837E0,7.582865725E0,8.360975525E0
1.280031138E1,-3.156941552E0,1.361049371E0,5.095302311E0,6.146612156E0
1.281039137E1,-2.883156788E0,5.179328554E0,3.337750323E0,6.802838713E0
1.282047237E1,-1.843997516E0,7.808798044E0,2.692680815E0,8.463343530E0
1.283055337E1,-1.819071713E-1,9.446314881E0,1.072245742E0,9.508715264E0
1.284063437E1,1.755891379E0,9.285364423E0,-1.720763938E0,9.605320168E0
1.285071537E1,3.747915837E0,6.576129556E0,-3.014820297E0,8.147483935E0
1.286079538E1,5.776422243E0,3.209239633E0,-3.974729917E0,7.711339110E0
1.287087638E1,6.447192019E0,-7.580523330E-1,-4.012511701E0,7.631590818E0
1.288095738E1,4.533483705E0,-4.556603011E0,1.851024700E0,6.688901101E0
1.289103838E1,7.507415593E-1,-6.813661582E0,3.329746947E0,7.620814377E0
1.290111837E1,-2.088179289E0,-7.949271553E0,1.360595627E0,8.330824175E0
1.291119937E1,-1.916540120E0,-8.574945263E0,5.550302812E-1,8.804025835E0
1.292128037E1,2.382214714E0,-9.171218002E0,1.658407769E-1,9.477008481E0
1.293136137E1,8.752732193E0,-1.234395873E1,-2.506107565E0,1.533832498E1
1.294144138E1,1.253925690E1,-2.037080822E1,-1.368311613E0,2.395986368E1
1.295152238E1,1.214241339E1,-2.862111490E1,-6.840153269E-1,3.109781822E1
1.296160338E1,1.206956527E1,-3.285070302E1,-8.156312689E0,3.593561647E1
1.297168438E1,8.895559207E0,-3.164804536E1,-9.892469130E0,3.433060871E1
1.298176437E1,5.797274584E0,-2.395540635E1,-4.481366887E0,2.505099869E1
1.299184537E1,4.323448503E0,-1.673815650E1,-2.126769011E0,1.741784247E1
1.300192638E1,3.549216339E0,-1.221073343E1,-1.943111769E0,1.286369429E1
1.301200738E1,3.746142376E0,-8.801427805E0,-5.317000370E-1,9.580261951E0
1.302208737E1,4.501887106E0,-5.917268804E0,1.844873722E0,7.660588532E0
1.303216837E1,4.436549149E0,-3.567863987E0,2.551078209E0,6.238639419E0
1.304224937E1,3.434115361E0,-1.512408056E0,5.472795776E-1,3.792102501E0
1.305233037E1,2.506733510E0,8.323897398E-1,-1.519420037E0,3.047166359E0
1.306241038E1,1.882197961E0,3.102418604E0,-1.372129844E0,3.879485877E0
1.307249138E1,8.260631986E-1,5.043125852E0,3.179002512E-1,5.120210868E0
1.308257238E1,-6.775921606E-1,6.540735190E0,2.785942150E0,7.141555967E0
1.309265338E1,-1.745705821E0,7.999935923E0,2.645696098E0,8.605008508E0
1.310273438E1,-1.394647326E0,9.673446465E0,1.772606814E-1,9.775071816E0
1.311281437E1,-1.535879218E0,1.045285224E1,-2.333003962E0,1.081960963E1
1.312289537E1,-3.066311171E0,1.138398742E1,-1.157791852E1,1.652409244E1
1.313297637E1,-4.623027381E0,1.186246859E1,-1.776253138E1,2.185401711E1
1.314305737E1,-3.716635864E0,1.157474114E1,-1.126795411E1,1.657572938E1
1.315313738E1,-1.936471232E0,1.185379834E1,-3.351263824E0,1.246970028E1
1.316321838E1,-3.381468201E-1,1.272191106E1,4.793053887E0,1.359907092E1
1.317329938E1,1.920200916E0,1.381622331E1,1.304780211E1,1.910027063E1
1.318338038E1,2.388747369E0,1.340859286E1,1.077947888E1,1.736933048E1
1.319346037E1,1.334797858E0,1.230668039E1,5.307953850E0,1.346886935E1
1.320354137E1,9.695741898E-1,1.158835463E1,5.030901078E0,1.267043814E1
1.321362275E1,4.778549284E-1,1.099516980E1,4.818443667E0,1.201413766E1
1.322370375E1,-3.260252497E-1,1.092047279E1,2.377969050E0,1.118113390E1
1.323378375E1,-7.610369711E-1,1.101989183E1,3.255203426E-1,1.105093465E1
1.324386475E1,-2.004404330E0,1.154706276E1,-9.689313469E0,1.520641610E1
1.325394575E1,-2.569658614E0,1.260774768E1,-1.832520426E1,2.239132774E1
1.326402675E1,-5.551474814E-1,1.203868963E1,-1.564673978E0,1.215263105E1
1.327410675E1,-2.335194475E-1,1.148388009E1,4.024573045E0,1.217091703E1
1.328418775E1,-5.014661314E-1,1.119034167E1,4.593011284E0,1.210664973E1
1.329426875E1,-7.718065922E-1,1.092708482E1,4.464217004E0,1.182903638E1
1.330434975E1,-1.140476097E0,1.035041020E1,3.710237256E0,1.105429950E1
1.331442975E1,-1.327592188E0,9.574175361E0,2.570582181E0,1.000176123E1
1.332451075E1,-1.376784228E0,9.045069587E0,9.617617249E-1,9.199663269E0
1.333459175E1,-1.363362529E0,8.768132590E0,-1.264146389E0,8.963089456E0
1.334467275E1,-1.222482785E0,8.654217719E0,-5.529354578E0,1.034232617E1
1.335475275E1,-8.428023152E-1,8.718516042E0,-7.392779176E0,1.146193795E1
1.336483375E1,-6.500575490E-1,8.847526084E0,-4.966683447E0,1.016706630E1
1.337491475E1,-5.751754741E-1,8.800646617E0,-3.969135593E0,9.671413809E0
1.338499575E1,-3.804990070E-1,8.643975736E0,-3.881720889E0,9.483187918E0
1.339507575E1,-3.845545627E-2,8.461068984E0,-3.943113145E0,9.334843782E0
1.340515675E1,1.445964537E-1,8.026003979E0,-2.151378773E0,8.310600378E0
1.341523775E1,-1.486698434E-2,7.217618814E0,5.441584070E-1,7.238117901E0
1.342531875E1,-1.786600663E-1,5.304467155E0,1.849171571E0,5.620384926E0
1.343539875E1,-4.216789734E-1,1.137071190E0,4.522538302E0,4.682317454E0
1.344547975E1,-6.854736225E-1,-2.478728271E0,-1.768697219E0,3.121259006E0
1.345556075E1,9.655466276E-1,-5.837263107E0,-5.779083896E0,8.270654844E0
1.346564175E1,2.492022500E0,-6.340461622E0,7.806326426E0,1.036100198E1
1.347572275E1,3.406722325E0,-1.497032686E1,5.745359495E0,1.639285207E1
1.348580275E1,4.245759764E0,-2.453965546E1,3.926698841E0,2.521190453E1
1.349588375E1,3.748371920E0,-3.001087644E1,2.631585013E0,3.035833059E1
1.350596475E1,1.036171345E0,-2.933031199E1,-3.608851215E0,2.956965775E1
1.351604575E1,1.130228486E0,-2.278458796E1,9.272748470E-1,2.283144111E1
1.352612575E1,5.315506114E0,-1.733524492E1,-4.475947103E-1,1.813741059E1
1.353620675E1,8.740086420E0,-1.562577167E1,-8.703189905E0,1.990726916E1
1.354628775E1,7.442188733E0,-1.395113846E1,-1.275168040E1,2.031319252E1
1.355636875E1,3.927922078E0,-1.225799531E1,-9.301825504E0,1.588115167E1
1.356644875E1,1.342585326E0,-9.814890611E0,-3.684062488E0,1.056914989E1
1.357652975E1,4.302331576E-1,-7.237251425E0,-2.589898750E0,7.698732643E0
1.358661075E1,3.586021346E-1,-4.602121246E0,-5.556242122E-1,4.649390682E0
1.359669175E1,5.955456385E-1,-2.218475134E0,2.089619750E0,3.105288590E0
1.360677175E1,1.133910478E0,-5.775558025E-1,2.789745179E0,3.066268391E0
1.361685275E1,1.648670693E0,8.051610106E-1,2.809099171E0,3.355210494E0
1.362693375E1,1.940207895E0,2.369631506E0,3.049459788E0,4.321893699E0
1.363701475E1,1.941605964E0,4.001771827E0,3.386396234E0,5.590321183E0
1.364709475E1,1.840205305E0,5.654552820E0,3.368067552E0,6.834047278E0
1.365717575E1,2.074140708E0,7.022294329E0,2.948753192E0,7.893657119E0
1.366725675E1,2.666685556E0,7.379273277E0,2.844085693E0,8.345879785E0
1.367733775E1,3.332074724E0,5.976001747E0,3.509814584E0,7.689871082E0
1.368741775E1,2.473224871E0,3.218203999E0,4.695260375E0,6.206379640E0
1.369749875E1,7.539215675E-1,4.103996944E-1,5.204982044E0,5.275288022E0
1.370757975E1,-6.530989051E-1,-1.540536087E0,5.138055983E0,5.403647740E0
1.371766075E1,-1.583594106E0,-2.325666876E0,3.954209991E0,4.853068448E0
1.372774075E1,-2.151641751E0,-1.627115225E0,1.276767604E0,2.984493541E0
1.373782175E1,-3.006764296E0,-6.373330575E-1,-1.243867661E0,3.315724916E0
1.374790275E1,-4.041202234E0,4.851434827E-2,-2.842752528E0,4.941144713E0
1.375798375E1,-4.399529549E0,1.007747737E0,-1.518727727E0,4.762137090E0
1.376806375E1,-3.813199415E0,2.005431247E0,-1.601327834E0,4.596356720E0
1.377814475E1,-3.402224354E0,2.354832788E0,-4.146284008E0,5.857647915E0
1.378822575E1,-2.544841276E0,2.641028851E0,-4.881795909E0,6.105995563E0
1.379830675E1,-1.318175101E0,2.971943834E0,-3.550175575E0,4.813915492E0
1.380838675E1,-4.208175324E-1,2.944015194E0,-1.753460691E0,3.452381388E0
1.381846775E1,7.824363917E-2,2.317007149E0,-6.617524188E-2,2.319272162E0
1.382854875E1,4.854066074E-1,1.521325645E0,1.332046012E0,2.079518663E0
1.383862975E1,8.683442688E-1,8.211964148E-1,2.280763768E0,2.574930812E0
1.384870975E1,1.116624501E0,1.132313311E-1,2.612055312E0,2.842974598E0
1.385879075E1,1.048479880E0,-4.479206926E-1,2.319375272E0,2.584462160E0
1.386887175E1,7.916182745E-1,-6.292580527E-1,1.676617752E0,1.957976577E0
1.387895275E1,5.250137459E-1,-5.169166678E-1,1.184332480E0,1.394806689E0
1.388903375E1,2.327855489E-1,-2.929683083E-1,9.920579034E-1,1.060282238E0
1.389911375E1,-2.112689647E-1,-3.112531364E-1,7.512947059E-1,8.402123692E-1
1.390919475E1,-7.196966448E-1,-6.244908178E-1,3.076939362E-1,1.001312938E0
1.391927575E1,-1.248170627E0,-1.026210905E0,-6.762614805E-1,1.751675862E0
1.392935675E1,-1.811624845E0,-1.345953614E0,-2.640260527E0,3.473406305E0
1.393943675E1,-2.200510148E0,-1.545074696E0,-4.553947206E0,5.288471980E0
1.394951775E1,-1.794327758E0,-1.221495044E0,-4.027773811E0,4.575437041E0
1.395959875E1,-1.097823217E0,-7.578435874E-1,-2.159898312E0,2.538642046E0
1.396967975E1,-7.124209544E-1,-4.572785765E-1,-8.672782483E-1,1.211948379E0
1.397975975E1,-2.763828273E-1,5.033049345E-2,-1.106925432E-1,3.019494410E-1
1.398984075E1,1.427727802E-1,5.210062104E-1,6.532876971E-1,8.477124237E-1
1.399992175E1,4.548190914E-1,8.463061130E-1,1.236285576E0,1.565725541E0
1.401000275E1,7.629983465E-1,9.977051443E-1,1.427509847E0,1.901411685E0
1.402008275E1,9.654966339E-1,8.854859662E-1,1.410843675E0,1.925291931E0
1.403016375E1,1.108060084E0,4.360917753E-1,1.029502376E0,1.574118270E0
1.404024475E1,1.139809588E0,-1.707503915E-2,2.812042221E-1,1.174109564E0
1.405032575E1,9.891781497E-1,-3.198105365E-1,-4.643227903E-1,1.138572723E0
1.406040575E1,6.810627754E-1,-4.617932117E-1,-1.209371427E0,1.462764070E0
1.407048675E1,2.440651202E-1,-5.037978548E-1,-1.711555304E0,1.800778060E0
1.408056775E1,-2.852378507E-1,-4.793746197E-1,-1.830737932E0,1.913834379E0
1.409064875E1,-7.953979146E-1,-4.703108507E-1,-1.715062026E0,1.948149864E0
1.410072875E1,-1.055002157E0,-5.348179185E-1,-1.596514991E0,1.986937310E0
1.411080975E1,-1.061786681E0,-5.939420396E-1,-1.507522708E0,1.937210060E0
1.412089075E1,-7.973823135E-1,-6.115164310E-1,-1.382943685E0,1.709474813E0
1.413097175E1,-3.295116520E-1,-5.631295520E-1,-1.072967581E0,1.255767594E0
1.414105175E1,1.319659562E-1,-4.780695212E-1,-5.851975286E-1,7.670864542E-1
1.415113275E1,4.720764175E-1,-3.559141695E-1,-9.636744954E-2,5.990139609E-1
1.416121375E1,6.736021668E-1,-1.629279864E-1,2.722218025E-1,7.445737825E-1
1.417129475E1,7.473269315E-1,1.395993501E-1,5.126055888E-1,9.169242121E-1
1.418137475E1,7.192395388E-1,5.517602259E-1,5.760045362E-1,1.074023318E0
1.419145575E1,5.994514324E-1,8.730050844E-1,5.174792431E-1,1.178670719E0
1.420153675E1,4.537101670E-1,9.494632763E-1,3.952021962E-1,1.124063256E0
1.421161775E1,3.529255114E-1,8.657802647E-1,1.965249912E-1,9.553815759E-1
1.422169775E1,2.860896438E-1,6.682320839E-1,-5.827218175E-2,7.292304502E-1
1.423177875E1,1.961270151E-1,4.103973556E-1,-2.317310035E-1,5.104811980E-1
1.424185975E1,5.051643491E-2,1.295555878E-1,-2.668026030E-1,3.008657333E-1
1.425194075E1,-7.962533623E-2,-8.683407605E-2,-2.294699583E-1,2.579473061E-1
1.426202075E1,-1.555809599E-1,-2.464817744E-1,-2.008881835E-1,3.539982521E-1
1.427210175E1,-1.566331664E-1,-3.254004747E-1,-2.159623054E-1,4.207839530E-1
1.428218275E1,-1.083769727E-1,-2.664605409E-1,-2.379033244E-1,3.732891370E-1
1.429226375E1,-5.164640933E-2,-1.876669711E-1,-1.544033307E-1,2.484484497E-1
1.430234375E1,-3.372586280E-2,-1.752398837E-1,1.463733494E-2,1.790550257E-1
1.431242475E1,-1.194938453E-1,-1.913939863E-1,1.745306164E-1,2.852566794E-1
1.432250575E1,-2.949411589E-1,-2.051916611E-1,2.412384300E-1,4.327700141E-1
1.433258675E1,-4.890058610E-1,-1.639185047E-1,2.043145057E-1,5.547435673E-1
1.434266675E1,-6.513219362E-1,-9.258598208E-2,2.345734812E-2,6.582876848E-1
1.435274775E1,-7.151451722E-1,9.091835618E-3,-2.770247785E-1,7.669797955E-1
1.436282875E1,-6.783607771E-1,7.175118327E-2,-5.545751486E-1,8.791331933E-1
1.437290975E1,-5.312351833E-1,3.303326011E-2,-7.112102884E-1,8.883254418E-1
1.438299075E1,-2.372567685E-1,-2.695741832E-2,-6.633163297E-1,7.049865459E-1
1.439307075E1,6.123189613E-2,-3.264734387E-2,-4.623977407E-1,4.675755177E-1
1.440315175E1,3.124867527E-1,2.558215320E-2,-2.274946958E-1,3.873709512E-1
1.441323275E1,5.167345271E-1,8.382159054E-2,-2.762173511E-2,5.242171218E-1
1.442331275E1,5.897010541E-1,1.617316461E-1,1.628396203E-1,6.327884326E-1
1.443339375E1,6.248666476E-1,2.388108122E-1,3.049462565E-1,7.351742315E-1
1.444347475E1,5.659379697E-1,2.793033653E-1,3.323895784E-1,7.132874507E-1
1.445355575E1,3.601421450E-1,1.753252530E-1,3.752099081E-1,5.488385775E-1
1.446363675E1,3.400199756E-2,3.905940056E-4,3.912534984E-1,3.927283901E-1
1.447371675E1,-2.211937362E-1,-6.594080508E-2,3.530712533E-1,4.218224373E-1
1.448379775E1,-3.197383234E-1,5.463229001E-2,7.706739865E-2,3.334016594E-1
1.449387875E1,-3.883938445E-1,1.855678207E-1,-2.752524874E-1,5.109296687E-1
1.450395975E1,-3.535880010E-1,2.574476427E-1,-5.417954741E-1,6.963089105E-1
1.451403975E1,-1.834366567E-1,2.215235192E-1,-6.159054241E-1,6.797508132E-1
1.452412075E1,-1.408228800E-2,1.142352980E-1,-5.134593554E-1,5.262019800E-1
1.453420175E1,1.855244051E-1,3.899508119E-2,-3.463306562E-1,3.948225483E-1
1.454428275E1,2.854977594E-1,2.897529244E-2,-1.916232703E-1,3.450623363E-1
1.455436275E1,3.096200091E-1,1.147106767E-2,-1.011405317E-1,3.259226021E-1
1.456444375E1,2.567988941E-1,-1.945017815E-2,-6.588467181E-2,2.658284624E-1
1.457452475E1,2.300800422E-1,-3.828990698E-2,-9.266908564E-2,2.509790872E-1
1.458460575E1,2.277225910E-1,-3.777535200E-2,-1.528509680E-1,2.768537052E-1
1.459468575E1,1.676319252E-1,-6.095079124E-2,-1.839930924E-1,2.562594766E-1
1.460476675E1,5.713329032E-2,-7.678154290E-2,-1.415417951E-1,1.708616340E-1
1.461484775E1,-1.021748310E-1,-5.887152135E-2,-4.718344890E-2,1.270111411E-1
1.462492875E1,-2.235343766E-1,-5.163091421E-3,-5.446206294E-2,2.301312481E-1
1.463500875E1,-2.352233993E-1,8.047055125E-2,-9.443538330E-2,2.659390885E-1
1.464508975E1,-1.384834090E-1,1.690044129E-1,-1.862092602E-1,2.870784470E-1
1.465517075E1,-4.463208944E-2,1.454500741E-1,-1.602991513E-1,2.210058039E-1
1.466525175E1,4.179925963E-2,1.418633920E-1,4.922873184E-2,1.558713191E-1
1.467533175E1,9.876093417E-2,1.435725331E-1,2.030819126E-1,2.675986876E-1
1.468541275E1,1.108936143E-1,1.087471014E-1,2.116896719E-1,2.625563614E-1
1.469549375E1,1.379090662E-1,4.935166955E-2,9.868989050E-2,1.766187768E-1
1.470557475E1,1.168310232E-1,1.497998178E-2,-4.551472664E-2,1.262754061E-1
1.471565475E1,4.570607677E-2,-2.187443376E-2,-1.684729741E-1,1.759280515E-1
1.472573575E1,5.159729272E-3,-5.794824600E-2,-2.729049034E-1,2.790371093E-1
1.473581675E1,-3.366651356E-2,-7.065892339E-2,-2.976357020E-1,3.077549816E-1
1.474589775E1,-3.743489787E-2,-4.586263597E-2,-3.613725454E-1,3.661896633E-1
1.475597775E1,-6.649336696E-2,2.242991924E-3,-4.327529421E-1,4.378373074E-1
1.476605875E1,-9.074966401E-2,-2.630954683E-2,-3.833439698E-1,3.948167840E-1
1.477613975E1,-6.417655393E-2,-9.454246044E-2,-2.528084618E-1,2.774329203E-1
1.478622075E1,-1.787376881E-2,-1.573298621E-1,-9.637205422E-2,1.853637774E-1
1.479630075E1,-9.242401421E-3,-1.140341538E-1,-7.472010702E-4,1.144105263E-1
1.480638175E1,-2.387973636E-2,4.455285966E-2,6.204312421E-2,8.002842230E-2
1.481646275E1,-3.106318697E-2,1.697581190E-1,1.057930881E-1,2.024226223E-1
1.482654375E1,-6.831521317E-2,1.923055673E-1,1.700592506E-1,2.656474134E-1
1.483662375E1,-7.377241954E-2,1.734377718E-1,2.694923222E-1,3.288603690E-1
1.484670475E1,1.686746299E-2,1.367511714E-1,3.418873570E-1,3.686086801E-1
1.485678575E1,1.268622141E-1,1.301677912E-1,3.216073493E-1,3.694170575E-1
1.486686675E1,2.407877558E-1,1.528620046E-1,1.740780419E-1,3.341387444E-1
1.487694675E1,2.643824404E-1,1.589208895E-1,5.832473360E-2,3.139358191E-1
1.488702775E1,2.607182828E-1,1.348034638E-1,-1.040161192E-2,2.936906372E-1
1.489710875E1,2.689068697E-1,1.090201664E-1,-1.244860883E-1,3.157421218E-1
1.490718975E1,3.002653411E-1,1.167203647E-1,-2.441241771E-1,4.042023410E-1
1.491726975E1,3.115191847E-1,1.134242892E-2,-2.691444494E-1,4.118392742E-1
1.492735075E1,2.213013250E-1,-7.939875662E-2,-1.699593363E-1,2.901113837E-1
1.493743175E1,1.786032021E-1,-4.780449629E-2,-7.265048504E-2,1.986516213E-1
1.494751275E1,2.472648628E-1,1.398010790E-1,-6.569171369E-2,2.915470036E-1
1.495759275E1,2.733320425E-1,2.485376555E-1,-8.605113387E-2,3.793233045E-1
1.496767375E1,2.701773235E-1,2.792162418E-1,-2.338126123E-2,3.892353777E-1
1.497775475E1,2.462904243E-1,2.665412325E-1,7.255583324E-2,3.700912734E-1
1.498783575E1,2.539426754E-1,2.290874773E-1,8.210192442E-2,3.517224483E-1
1.499791575E1,2.703515705E-1,2.070516604E-1,2.732111514E-2,3.416237771E-1
1.500799675E1,2.433130221E-1,1.859239161E-1,6.352941334E-2,3.127377746E-1
1.501807775E1,2.142197621E-1,1.560463983E-1,2.309066192E-1,3.515088216E-1
1.502815875E1,1.321282165E-1,7.448592603E-2,1.342831347E-1,2.025783281E-1
1.503823875E1,2.234460837E-1,7.498176992E-2,-3.046609855E-1,3.851866226E-1
1.504831975E1,3.834931469E-1,8.937586069E-2,-5.475093001E-1,6.744045313E-1
1.505840075E1,4.304809333E-1,-2.122890115E-2,-7.335478216E-1,8.507978061E-1
1.506848175E1,4.927954414E-1,-5.593621910E-2,-7.510205445E-1,9.000044811E-1
1.507856175E1,4.999943872E-1,-5.572513461E-2,-6.776010776E-1,8.439448431E-1
1.508864275E1,4.090975195E-1,-5.269510746E-3,-7.818750590E-1,8.824495204E-1
1.509872375E1,2.010293207E-1,1.347338820E-1,-1.205675987E0,1.229723787E0
1.510880475E1,8.680937156E-2,1.428381228E-1,-1.610455922E0,1.619106814E0
1.511888475E1,-8.523880944E-2,-2.085175574E-2,-1.196590583E0,1.199803932E0
1.512896575E1,-5.150727484E-1,-1.927850389E-1,-1.668982458E-1,5.747356190E-1
1.513904675E1,-9.252647205E-1,-1.532058209E-1,6.739079762E-1,1.154876092E0
1.514912775E1,-1.195633686E0,8.425253034E-2,1.306780193E0,1.773221045E0
1.515920775E1,-1.371443966E0,3.533823252E-1,1.631792997E0,2.160667953E0
1.516928875E1,-1.558686722E0,5.983964485E-1,1.751627004E0,2.419871849E0
1.517936975E1,-1.690436623E0,8.780471385E-1,1.810336558E0,2.627900532E0
1.518945075E1,-1.731269777E0,1.119508494E0,1.878826164E0,2.789369474E0
1.519953175E1,-1.651775564E0,1.322282916E0,1.846551872E0,2.808299920E0
1.520961175E1,-1.375793125E0,1.448824849E0,1.384688494E0,2.430897446E0
1.521969275E1,-8.396739087E-1,1.433996894E0,6.785109043E-3,1.661759731E0
1.522977375E1,-2.064447194E-1,1.147423101E0,-1.650802295E0,2.020976846E0
1.523985475E1,2.199614355E-1,6.951111495E-1,-1.711280047E0,1.860118798E0
1.524993475E1,2.756795534E-1,1.950572670E-1,-2.128257128E-1,3.991758229E-1
1.526001575E1,3.957483262E-2,-3.932843095E-1,1.581668326E0,1.630310832E0
1.527009675E1,-4.224993378E-2,-8.928312385E-1,2.410429283E0,2.570817381E0
1.528017775E1,2.248459071E-2,-1.112612287E0,1.595529735E0,1.945283217E0
1.529025775E1,-4.716598034E-2,-1.030720863E0,1.520299459E-1,1.042939706E0
1.530033875E1,-4.022249946E-1,-8.290170658E-1,-5.592196651E-1,1.077859395E0
1.531041975E1,-7.590641937E-1,-4.111493075E-1,-7.324551232E-1,1.132127515E0
1.532050075E1,-9.660199597E-1,2.032825452E-1,-6.129333575E-1,1.161983501E0
1.533058075E1,-8.638708565E-1,8.900187278E-1,-3.712044923E-1,1.294681029E0
1.534066175E1,-6.306461817E-1,1.519073297E0,-3.292263079E-1,1.677405214E0
1.535074275E1,-3.006462872E-1,2.153309669E0,-1.052158217E-1,2.176740934E0
1.536082375E1,-1.148504251E-1,2.617708400E0,7.527297588E-1,2.726204317E0
1.537090375E1,2.349750388E-1,3.029316130E0,1.070674303E0,3.221538909E0
1.538098475E1,7.021567520E-1,3.141529461E0,8.679783793E-1,3.334009287E0
1.539106575E1,9.404655808E-1,2.694521518E0,2.569196391E-1,2.865471937E0
1.540114675E1,5.191120049E-1,1.602875592E0,-1.991930903E0,2.608922413E0
1.541122675E1,-2.323791674E-1,4.820818806E-1,-3.907638087E0,3.944114405E0
1.542130775E1,-1.326198504E0,1.983562660E-1,-4.384650140E0,4.585117722E0
1.543138875E1,-2.570623989E0,1.303150826E0,-6.141027714E0,6.783695980E0
1.544146975E1,-1.892009881E0,3.448824617E0,-6.858926632E0,7.906893649E0
1.545154975E1,-5.910336345E-2,5.365327315E0,-4.162273804E0,6.790784463E0
1.546163075E1,9.630238464E-1,5.825372794E0,6.121733657E-1,5.936087882E0
1.547171175E1,1.049586904E-1,4.548012282E0,3.857659889E0,5.964643481E0
1.548179275E1,-1.149702346E0,2.854524143E0,5.422241188E0,6.234646988E0
1.549187375E1,-4.553212211E-1,2.520222452E0,3.208078961E0,4.104949359E0
1.550195375E1,1.372481262E0,2.719226589E0,7.740397900E-1,3.142775152E0
1.551203475E1,3.188299292E0,2.542819601E0,1.196997257E0,4.250174859E0
1.552211575E1,4.519379051E0,2.315381624E0,2.066284682E0,5.482272472E0
1.553219675E1,4.570605338E0,2.161917356E0,1.430213746E0,5.254505797E0
1.554227675E1,3.582020096E0,1.665388175E0,1.937930697E0,4.399995583E0
1.555235775E1,3.034730359E0,4.143313622E-1,3.582754506E0,4.713532506E0
1.556243875E1,3.002062842E0,-1.341940670E0,8.977697968E-1,3.408691344E0
1.557251975E1,2.249018649E0,-3.339945953E0,-2.017423009E0,4.503700640E0
1.558259975E1,4.569961560E-1,-5.208788581E0,-2.932091259E0,5.994787996E0
1.559268075E1,-9.336676079E-1,-6.609284438E0,-2.002247438E0,6.968742411E0
1.560276175E1,-1.085444954E0,-7.241140993E0,7.163321570E-1,7.356999755E0
1.561284275E1,-7.928649008E-1,-7.330841959E0,1.167090211E0,7.465385331E0
1.562292275E1,-1.666245961E-1,-6.823793052E0,3.465033683E-1,6.834616300E0
1.563300375E1,7.355393833E-1,-6.336359215E0,9.245652473E-1,6.445563372E0
1.564308475E1,3.146545787E0,-6.834202850E0,-1.168319588E0,7.613937854E0
1.565316575E1,5.682477368E0,-8.747308316E0,-3.492105999E0,1.100003437E1
1.566324575E1,7.895111133E0,-1.164892710E1,-4.848290194E0,1.488409219E1
1.567332675E1,9.590317184E0,-1.502290970E1,-6.737650702E0,1.905407926E1
1.568340775E1,9.702698915E0,-1.868351813E1,-7.897426046E0,2.248522969E1
1.569348875E1,8.653072250E0,-2.141350944E1,-7.617679462E0,2.431960292E1
1.570356975E1,7.837257028E0,-2.080369864E1,-6.251379876E0,2.309320734E1
1.571364975E1,6.753001982E0,-1.665216383E1,-4.282998927E0,1.847272790E1
1.572373075E1,5.196279048E0,-1.219101428E1,-2.350703484E0,1.345912152E1
1.573381175E1,3.874496069E0,-9.346416371E0,-9.290734506E-1,1.016023603E1
1.574389275E1,3.484896967E0,-7.219316846E0,7.104206219E-1,8.047840707E0
1.575397275E1,4.018252497E0,-5.397774099E0,2.873674066E0,7.317125186E0
1.576405375E1,4.600538112E0,-3.974140810E0,3.521560471E0,7.025676782E0
1.577413475E1,4.620668614E0,-3.176779985E0,1.943570044E0,5.934641862E0
1.578421575E1,4.227938620E0,-2.056079829E0,2.785414732E-1,4.709619368E0
1.579429575E1,3.262733178E0,-2.152477026E-2,-2.236676931E-1,3.270461488E0
1.580437675E1,2.340414577E0,2.531281291E0,5.879259125E-1,3.497224935E0
1.581445775E1,1.317150230E0,4.837420220E0,2.196056324E0,5.473406845E0
1.582453875E1,2.508421893E-1,6.705645382E0,4.212096759E0,7.922774824E0
1.583461875E1,-1.051478478E0,7.915734263E0,4.882352564E0,9.359584525E0
1.584469975E1,-1.898159252E0,8.675085847E0,2.481582881E0,9.220541015E0
1.585478075E1,-1.730798345E0,9.415094258E0,-3.098878115E-1,9.577875195E0
1.586486175E1,-1.876707718E0,1.019411529E1,-2.775158715E0,1.073049506E1
1.587494175E1,-3.241075968E0,1.104531786E1,-1.042920610E1,1.553293147E1
1.588502275E1,-5.341030380E0,1.113817632E1,-1.824774152E1,2.203555418E1
1.589510375E1,-5.830390874E0,1.013297914E1,-1.469575564E1,1.877860373E1
1.590518475E1,-4.831483250E0,9.474196159E0,-7.096048769E0,1.278505109E1
1.591526475E1,-3.564067682E0,9.692007866E0,2.223980287E0,1.056331781E1
1.592534575E1,-1.787255405E0,1.151756005E1,1.583417228E1,1.966137033E1
1.593542675E1,-1.561115363E0,1.152189634E1,1.045397257E1,1.563575131E1
1.594550775E1,-1.519890738E0,1.090925783E1,4.608817477E0,1.193998211E1
1.595558875E1,-6.735594821E-1,1.111771575E1,4.459477251E0,1.199767574E1
1.596566875E1,-5.475058649E-2,1.123198204E1,3.454468349E0,1.175133055E1
1.597574975E1,3.914802973E-1,1.132306762E1,2.224635175E0,1.154617334E1
1.598583075E1,4.812622471E-1,1.139524799E1,5.450867987E-1,1.141842414E1
1.599591175E1,2.137245029E-1,1.162124405E1,-1.395717512E0,1.170670828E1
1.600599175E1,-6.132340506E-2,1.224887365E1,-4.483081291E0,1.304364535E1
1.601607275E1,2.701852173E-2,1.271238594E1,-6.644585248E0,1.434419741E1
1.602615375E1,2.961563565E-1,1.226162993E1,-5.714801946E0,1.353123197E1
1.603623475E1,5.867126884E-1,1.158602860E1,-3.215116085E0,1.203815858E1
1.604631475E1,6.991607849E-1,1.092568851E1,-1.544669484E0,1.105646865E1
1.605639575E1,5.373939094E-1,1.028528508E1,-3.928942637E-1,1.030680587E1
1.606647675E1,3.160574646E-1,9.767865549E0,9.539034326E-2,9.773443048E0
1.607655775E1,7.202446751E-2,9.553614796E0,4.593385506E-1,9.564922117E0
1.608663775E1,-1.598391216E-1,9.439665427E0,1.072387537E0,9.501728630E0
1.609671875E1,-3.806695265E-1,9.365479463E0,1.590568957E0,9.507209079E0
1.610679975E1,-6.171803364E-1,9.272311099E0,1.943280022E0,9.493840209E0
1.611688075E1,-8.578874738E-1,9.125362383E0,1.993679513E0,9.379923643E0
1.612696075E1,-1.070020803E0,8.931534786E0,1.480962900E0,9.116496545E0
1.613704175E1,-1.080075968E0,8.027062910E0,-2.663156469E0,8.526001726E0
1.614712275E1,-7.431991627E-1,4.418335657E0,-1.430590190E1,1.499109282E1
1.615720375E1,-1.202571773E0,2.621358232E0,-3.978708362E0,4.914042947E0
1.616728375E1,-2.809955496E-1,-7.445885342E-1,5.794317062E0,5.848716167E0
1.617736475E1,8.416182540E-1,-3.986153330E0,6.879477257E0,7.995307810E0
1.618744575E1,1.883034551E0,-5.130673288E0,4.077880940E0,6.818998495E0
1.619752675E1,3.783435041E0,-1.166501045E1,3.218693411E0,1.267859759E1
1.620760675E1,5.327427417E0,-2.139847274E1,2.516800661E0,2.219482832E1
1.621768763E1,4.545553527E0,-3.019508010E1,2.427156852E0,3.063161781E1
1.622776863E1,3.820805765E0,-3.335391674E1,4.095643905E0,3.382094938E1
1.623784963E1,5.304323899E0,-2.831335021E1,-4.975537594E-1,2.881022756E1
1.624792962E1,2.896760043E0,-1.925122780E1,-3.192061683E0,1.972790532E1
1.625801062E1,3.803364106E0,-1.199648443E1,-3.025874459E0,1.294361362E1
1.626809162E1,3.941275949E0,-1.015422208E1,-5.538901327E0,1.221970990E1
1.627817262E1,2.010985517E0,-9.665548630E0,-1.002779709E1,1.407208611E1
1.628825362E1,1.517077643E-1,-9.156021674E0,-5.677572724E0,1.077453387E1
1.629833363E1,1.171784940E-1,-8.114139646E0,-9.700739805E-1,8.172761866E0
1.630841463E1,5.517833224E-1,-6.117855783E0,6.088740742E-1,6.172791253E0
1.631849563E1,1.021203057E0,-3.674530064E0,1.634037158E0,4.149108858E0
1.632857663E1,1.883648655E0,-1.397130784E0,2.276724511E0,3.268574794E0
1.633865662E1,2.569073892E0,4.397036004E-1,2.678229421E0,3.737163731E0
1.634873762E1,2.843748894E0,1.831492953E0,2.833651922E0,4.412579452E0
1.635881862E1,2.926738425E0,2.934481893E0,2.762808226E0,4.980972906E0
1.636889962E1,2.639241649E0,3.834302893E0,2.554680094E0,5.309789595E0
1.637897963E1,1.734275684E0,4.336272908E0,2.524841752E0,5.309030115E0
1.638906063E1,3.975156471E-1,4.215162454E0,2.480757254E0,4.907114199E0
1.639914163E1,-8.677300188E-1,3.475292038E0,2.147091740E0,4.176196006E0
1.640922262E1,-1.628973762E0,2.246841731E0,1.587188097E0,3.197032896E0
1.641930262E1,-2.038378845E0,1.293763121E0,9.135081625E-1,2.581338508E0
1.642938362E1,-2.622144975E0,1.228497670E0,1.870851914E-1,2.901698066E0
1.643946463E1,-3.089210621E0,1.759371641E0,-3.991484821E-1,3.577419509E0
1.644954563E1,-3.376517656E0,2.415469583E0,-9.410239899E-1,4.256863979E0
1.645962562E1,-3.192237684E0,3.080547094E0,-1.380552174E0,4.646081805E0
