"Time (s)","Linear Acceleration x (m/s^2)","Linear Acceleration y (m/s^2)","Linear Acceleration z (m/s^2)","Absolute acceleration (m/s^2)"
5.948999999E-3,-1.407138586E0,-4.450264962E0,-1.000171383E1,1.103717250E1
1.591800000E-2,-1.518029569E0,-4.480537752E0,-9.233009623E0,1.037439632E1
2.588800000E-2,-1.622091882E0,-4.350189282E0,-8.318944221E0,9.526812784E0
3.585800000E-2,-1.474746140E0,-4.147068704E0,-7.532992483E0,8.724622099E0
4.582700000E-2,-1.326226863E0,-4.035525464E0,-6.501310923E0,7.766040638E0
5.579700000E-2,-1.137801215E0,-3.872109236E0,-4.603333958E0,6.121969052E0
6.576700000E-2,-1.184297982E0,-3.089599754E0,-2.418608369E0,4.098518609E0
7.573600000E-2,-1.870252976E0,-1.815926496E0,-9.750495225E-1,2.783191838E0
8.570600000E-2,-3.046827663E0,-1.587331939E-1,1.417903018E-1,3.054252695E0
9.567600000E-2,-4.401338385E0,2.205597226E0,1.508262965E0,5.148912106E0
1.056460000E-1,-5.458381659E0,4.520183628E0,3.400352368E0,7.860558924E0
1.156150000E-1,-5.150401209E0,5.546376992E0,6.201598436E0,9.785129203E0
1.255850000E-1,-3.302499507E0,5.184068307E0,9.934709415E0,1.168244488E1
1.355550000E-1,-7.317619358E-1,3.842603601E0,1.520131059E1,1.569652578E1
1.455240000E-1,1.577234236E0,2.475215848E0,2.022931963E1,2.044112849E1
1.554940000E-1,2.914223922E0,1.001119334E0,2.383568578E1,2.403403540E1
1.654640000E-1,3.257961558E0,-1.125103694E-1,2.500330692E1,2.521492274E1
1.754330000E-1,2.939103825E0,5.014917129E-1,2.354408747E1,2.373212760E1
1.854030000E-1,2.418501072E0,1.807483701E0,2.031500707E1,2.053815126E1
1.953730000E-1,1.968454917E0,2.573971227E0,1.632031330E1,1.663889325E1
2.053430000E-1,1.597377017E0,2.915146613E0,1.184225593E1,1.229994791E1
2.153120000E-1,1.346565671E0,3.130859754E0,7.650837268E0,8.375609399E0
2.252820000E-1,8.863794208E-1,3.498148804E0,4.354608023E0,5.655556963E0
2.352520000E-1,4.371087523E-1,3.907690712E0,2.040464255E0,4.429966720E0
2.452210000E-1,5.730696724E-1,4.079620779E0,7.295372164E-1,4.183770919E0
2.551910000E-1,1.211045924E0,4.014918415E0,-1.270822155E-1,4.195515701E0
2.651610000E-1,1.764287249E0,3.707505437E0,-8.448408008E-1,4.191904346E0
2.751300000E-1,2.246118869E0,3.179827554E0,-1.820268053E0,4.297642264E0
2.851000000E-1,2.698670118E0,2.689721831E0,-3.284833022E0,5.030661181E0
2.950700000E-1,2.796249622E0,2.374464229E0,-5.097566938E0,6.280308990E0
3.050390000E-1,2.462821505E0,2.388571222E0,-6.785557525E0,7.603588177E0
3.150090000E-1,1.962659741E0,2.394873643E0,-8.094466104E0,8.666477631E0
3.249790000E-1,1.580816386E0,2.076115021E0,-8.849592490E0,9.226295100E0
3.349490000E-1,1.385963041E0,1.628592816E0,-9.143583477E0,9.390331565E0
3.449180000E-1,1.248557712E0,1.270439748E0,-9.085648679E0,9.258613581E0
3.548880000E-1,1.159390597E0,8.228874296E-1,-8.679144400E0,8.794821078E0
3.648580000E-1,1.047624432E0,3.913190603E-1,-8.159662558E0,8.235942000E0
3.748270000E-1,9.567483222E-1,3.638254523E-2,-7.575594712E0,7.635857927E0
3.847970000E-1,9.840764540E-1,-3.490635717E-1,-7.140971757E0,7.216905811E0
3.947670000E-1,9.518658972E-1,-7.700376633E-1,-7.011209763E0,7.117307709E0
4.047360000E-1,8.808481009E-1,-1.210371301E0,-7.227149191E0,7.380554010E0
4.147060000E-1,9.175211797E-1,-1.635002241E0,-7.578482067E0,7.806949973E0
4.246760000E-1,1.073944796E0,-1.863999964E0,-7.822446615E0,8.112861661E0
4.346460000E-1,1.392289290E0,-1.913865604E0,-8.079655691E0,8.419155962E0
4.446150000E-1,1.716672641E0,-2.101626130E0,-8.262461872E0,8.696670256E0
4.545850000E-1,1.977671444E0,-2.407935154E0,-8.317340330E0,8.881862767E0
4.645550000E-1,2.209001475E0,-2.655027085E0,-8.276744281E0,8.968464318E0
4.745240000E-1,2.370116532E0,-2.876040727E0,-8.182711698E0,8.991431108E0
4.844940000E-1,2.434554018E0,-3.238430688E0,-7.836934846E0,8.822246560E0
4.944640000E-1,2.458151334E0,-3.750340970E0,-7.229013868E0,8.506832952E0
5.044340000E-1,2.316603253E0,-4.178723191E0,-6.616525630E0,8.161298276E0
5.144030000E-1,1.985699087E0,-4.521751267E0,-5.711782444E0,7.550741292E0
5.243730000E-1,1.630682903E0,-4.916574563E0,-4.440719383E0,6.822889476E0
5.343430000E-1,1.066255708E0,-4.982545774E0,-3.061447164E0,5.944335317E0
5.443120000E-1,2.367088844E-1,-4.162102481E0,-1.962538996E0,4.607677014E0
5.542820000E-1,-8.747924320E-1,-2.610882361E0,-1.061725139E0,2.951140250E0
5.642520000E-1,-2.447070860E0,-3.852414644E-1,2.266462648E-1,2.487556092E0
5.742210000E-1,-4.137925998E0,2.503916906E0,1.971795723E0,5.223026882E0
5.841910000E-1,-5.509742432E0,4.616256305E0,5.079241764E0,8.801464698E0
5.941610000E-1,-5.666543705E0,5.200170954E0,9.981448549E0,1.260082579E1
6.041310000E-1,-4.366412382E0,4.417709420E0,1.652569792E1,1.765447267E1
6.141000000E-1,-2.739691259E0,3.082916386E0,2.265643570E1,2.302877244E1
6.240700000E-1,-1.207792825E0,1.548168458E0,2.648300331E1,2.655569719E1
6.340400000E-1,-2.280234303E-1,4.775918037E-2,2.755770518E1,2.755868992E1
6.440090000E-1,2.433358262E-1,5.823025721E-1,2.645549333E1,2.646301978E1
6.539790000E-1,6.761899982E-1,2.394320789E0,2.366706845E1,2.379748168E1
6.639490000E-1,1.152497315E0,3.512937582E0,2.018286467E1,2.051869896E1
6.739180000E-1,1.600931978E0,4.037329038E0,1.636633322E1,1.693280461E1
6.838880000E-1,2.007655528E0,4.171446331E0,1.251807478E1,1.334667904E1
6.938580000E-1,2.344363640E0,3.861458825E0,9.177931775E0,1.022943482E1
7.038280000E-1,2.392428630E0,3.420692493E0,6.212476012E0,7.484631592E0
7.137970000E-1,2.313330859E0,3.004036862E0,3.560228693E0,5.201054266E0
7.237670000E-1,2.300161175E0,2.493349526E0,1.259117784E0,3.618412757E0
7.337370000E-1,2.137256577E0,1.903444111E0,-6.179711723E-1,2.927943567E0
7.437060000E-1,1.907960793E0,1.251105344E0,-2.145128245E0,3.131637616E0
7.536760000E-1,1.753459960E0,7.099151301E-1,-3.470093279E0,3.952233380E0
7.636460000E-1,1.665628203E0,3.667054984E-1,-4.714511747E0,5.013522838E0
7.736160000E-1,1.566164141E0,7.090567589E-2,-5.834818386E0,6.041771539E0
7.835850000E-1,1.516859688E0,-1.923883054E-1,-6.828279621E0,6.997376591E0
7.935585417E-1,1.718662887E0,-5.382683605E-1,-7.845391089E0,8.049453167E0
8.035285417E-1,1.946132732E0,-8.413739866E-1,-8.741789129E0,8.995233181E0
8.134975417E-1,2.106030399E0,-1.008148856E0,-9.480212944E0,9.763511951E0
8.234675417E-1,2.153974498E0,-1.103354976E0,-1.014686277E1,1.043148227E1
8.334375417E-1,2.119570066E0,-1.221809917E0,-1.072724687E1,1.100269159E1
8.434075417E-1,2.102876996E0,-1.320266796E0,-1.113486212E1,1.140834565E1
8.533765417E-1,2.056600085E0,-1.455307072E0,-1.132207710E1,1.159900653E1
8.633465417E-1,1.918903711E0,-1.687903756E0,-1.150016341E1,1.178070325E1
8.733165417E-1,1.672928598E0,-1.977052370E0,-1.148269544E1,1.177113931E1
8.832855417E-1,1.414924008E0,-2.291835178E0,-1.143200359E1,1.174500849E1
8.932555417E-1,1.151427859E0,-2.668581516E0,-1.139161804E1,1.175653329E1
9.032255417E-1,8.996843214E-1,-3.104958050E0,-1.134108172E1,1.179280845E1
9.131955417E-1,7.961988370E-1,-3.517727621E0,-1.105714210E1,1.163050866E1
9.231645417E-1,6.105336602E-1,-3.864203800E0,-1.055447451E1,1.125618739E1
9.331345417E-1,3.459347266E-1,-4.146342480E0,-1.006812066E1,1.089398368E1
9.431045417E-1,1.955762073E-1,-4.355386287E0,-9.751220280E0,1.068147634E1
9.530735417E-1,2.364026365E-1,-4.503017372E0,-9.396984261E0,1.042287700E1
9.630435417E-1,1.795894812E-1,-4.611348152E0,-8.859151518E0,9.989061507E0
9.730135417E-1,1.287710376E-1,-4.883366472E0,-8.034743813E0,9.403241899E0
9.829835417E-1,1.188936286E-1,-5.114623851E0,-7.065152081E0,8.722951723E0
9.929525417E-1,6.077522859E-2,-5.002473085E0,-6.288429589E0,8.035718841E0
1.002922542E0,6.648284197E-3,-4.803225119E0,-5.431075162E0,7.250351243E0
1.012892542E0,-2.431813136E-1,-4.488992826E0,-4.168454311E0,6.130758932E0
1.022861542E0,-9.753065076E-1,-3.739794931E0,-2.657925550E0,4.690613728E0
1.032831542E0,-2.356913812E0,-2.703798711E0,-5.481267661E-1,3.628500122E0
1.042801542E0,-5.480043254E0,-2.783303887E-1,2.098140605E0,5.874566866E0
1.052771542E0,-9.209727180E0,3.661504222E0,4.994619690E0,1.109828427E1
1.062740542E0,-1.120493749E1,6.778965374E0,8.072524427E0,1.538410369E1
1.072710542E0,-1.096494905E1,8.077053680E0,1.293402816E1,1.878185263E1
1.082680542E0,-8.463293265E0,7.154281189E0,2.030780798E1,2.313478198E1
1.092649542E0,-4.473812869E0,5.009717200E0,2.594080971E1,2.679622878E1
1.102619542E0,8.724026019E-1,2.094761207E0,2.830424493E1,2.839505928E1
1.112589542E0,5.245931264E0,-7.293202847E-2,2.927076628E1,2.973723042E1
1.122559542E0,7.326947129E0,3.598519769E-1,2.937750604E1,3.027955595E1
1.132528542E0,7.812712170E0,2.339175406E0,2.666627142E1,2.788548448E1
1.142498542E0,7.678496937E0,3.960328809E0,2.232091545E1,2.393463570E1
1.152468542E0,6.928996741E0,5.224137522E0,1.774225557E1,1.975070230E1
1.162437542E0,5.984420568E0,5.999418676E0,1.311237759E1,1.561219908E1
1.172407542E0,5.116765101E0,5.980892943E0,8.914835722E0,1.189229420E1
1.182377542E0,4.416684110E0,5.175310932E0,5.353703635E0,8.657544940E0
1.192347542E0,3.628753967E0,4.183809392E0,2.574313290E0,6.107307532E0
1.202316542E0,2.819467454E0,3.351854685E0,3.711847579E-1,4.395691604E0
1.212286542E0,2.339400377E0,2.525460680E0,-1.637182961E0,3.811969808E0
1.222256542E0,2.187097805E0,1.606329250E0,-3.520964055E0,4.445320950E0
1.232226542E0,2.274628138E0,7.850772867E-1,-5.290312216E0,5.811857092E0
1.242195542E0,2.648678763E0,1.345809773E-1,-7.027978408E0,7.511730275E0
1.252165542E0,2.926613880E0,-4.427830365E-1,-8.333484492E0,8.843533762E0
1.262135542E0,3.150430677E0,-9.725109538E-1,-9.468050736E0,1.002571572E1
1.272104542E0,3.440996364E0,-1.495109069E0,-1.058165354E1,1.122707436E1
1.282074542E0,3.483377860E0,-1.960309453E0,-1.152495093E1,1.219841090E1
1.292044542E0,3.190883177E0,-2.360268944E0,-1.220333553E1,1.283253689E1
1.302014542E0,2.754706324E0,-2.730209414E0,-1.266538953E1,1.324592550E1
1.311983542E0,2.155514947E0,-3.106201168E0,-1.291140294E1,1.345358898E1
1.321953542E0,1.533098429E0,-3.553563452E0,-1.265636143E1,1.323486640E1
1.331923542E0,1.285700396E0,-3.894328070E0,-1.227009436E1,1.293731163E1
1.341892542E0,1.193345086E0,-4.150309231E0,-1.216094205E1,1.290494676E1
1.351862542E0,6.898460242E-1,-4.891891712E0,-1.168214280E1,1.268380670E1
1.361832542E0,2.479286862E-1,-5.440858723E0,-1.119670461E1,1.245112872E1
1.371802542E0,7.690113673E-2,-5.418679649E0,-1.091163180E1,1.218325537E1
1.381771542E0,-1.007124424E-2,-5.197644957E0,-1.071121732E1,1.190570413E1
1.391741542E0,-7.281391472E-2,-5.149628792E0,-1.050164726E1,1.169651973E1
1.401711542E0,-2.510867491E-1,-5.284607087E0,-9.744286067E0,1.108788652E1
1.411680542E0,-2.755728418E-1,-5.281191144E0,-8.771661969E0,1.024250819E1
1.421650542E0,1.213873199E-1,-5.246083292E0,-8.653850514E0,1.012053623E1
1.431620542E0,4.034403384E-2,-5.460452158E0,-7.939324855E0,9.635924686E0
1.441590542E0,9.578119308E-2,-5.738694838E0,-7.018622863E0,9.066579254E0
1.451559542E0,3.692809045E-1,-5.878526908E0,-6.153178813E0,8.517925598E0
1.461529542E0,5.898767629E-1,-5.950535953E0,-5.308018169E0,7.995741967E0
1.471499542E0,7.726893756E-1,-5.977075880E0,-4.728840349E0,7.660575435E0
1.481469542E0,7.334682995E-1,-5.872453405E0,-4.128903744E0,7.216060620E0
1.491438542E0,4.535156009E-1,-5.395239916E0,-3.484568061E0,6.438672590E0
1.501408542E0,-6.430944105E-2,-4.555913039E0,-2.978484530E0,5.443514437E0
1.511378542E0,-6.964381751E-1,-3.508654497E0,-2.515852827E0,4.373236554E0
1.521347542E0,-1.606091561E0,-1.935471650E0,-1.458958073E0,2.907600260E0
1.531317542E0,-3.178947255E0,3.606357962E-1,7.796969712E-1,3.292976039E0
1.541287542E0,-5.092352976E0,2.919643414E0,4.201187024E0,7.218472754E0
1.551257542E0,-6.684376720E0,5.592732548E0,7.744809625E0,1.165940074E1
1.561226542E0,-7.316887579E0,7.173118579E0,1.096776156E1,1.500940597E1
1.571196542E0,-7.318725359E0,7.525157214E0,1.440712422E1,1.782573870E1
1.581166542E0,-6.408943627E0,7.053564654E0,1.671625750E1,1.924215678E1
1.591135542E0,-4.992939200E0,5.748148032E0,1.815833642E1,1.968999312E1
1.601105542E0,-3.683580970E0,4.578639997E0,1.941255248E1,2.028250248E1
1.611075542E0,-2.306373549E0,3.833080240E0,2.032610742E1,2.081255645E1
1.621045542E0,-9.191565728E-1,3.307489228E0,2.036179415E1,2.064914029E1
1.631014542E0,-3.189941190E-1,3.271731458E0,1.913915305E1,1.941940173E1
1.640984542E0,-1.692720875E-1,3.269998636E0,1.679519375E1,1.711140196E1
1.650954542E0,4.319091158E-1,2.849272174E0,1.449766601E1,1.478131311E1
1.660924542E0,7.970805971E-1,2.658838885E0,1.336261153E1,1.364786241E1
1.670893542E0,4.315372328E-1,2.689450521E0,1.290604455E1,1.319035081E1
1.680863542E0,9.530259848E-2,2.453886375E0,1.188448920E1,1.213555621E1
1.690833542E0,5.166781014E-1,1.818468573E0,1.049753433E1,1.066639635E1
1.700803542E0,1.306096653E0,1.264619721E0,8.992148193E0,9.174087455E0
1.710772542E0,1.843460450E0,9.789747584E-1,6.725818861E0,7.042256553E0
1.720742542E0,2.178963451E0,8.308984074E-1,3.977285442E0,4.610539380E0
1.730712542E0,2.461488925E0,7.570881271E-1,1.136964186E0,2.815101725E0
1.740681542E0,2.662079412E0,6.253550363E-1,-1.503394573E0,3.120565807E0
1.750651542E0,3.043265832E0,4.006371832E-1,-3.751646653E0,4.847352853E0
1.760621542E0,3.233014412E0,5.094211221E-2,-5.590504174E0,6.458228411E0
1.770591542E0,3.042763264E0,-3.236805162E-1,-7.028519275E0,7.665719833E0
1.780560542E0,2.727688095E0,-6.966399041E-1,-8.222861604E0,8.691435006E0
1.790526917E0,2.417940763E0,-1.112222570E0,-9.206966125E0,9.583929351E0
1.800496917E0,2.151563983E0,-1.616701918E0,-9.997275792E0,1.035318675E1
1.810466917E0,1.849797808E0,-2.047551665E0,-1.051222019E1,1.086834823E1
1.820435917E0,1.605398666E0,-2.338518763E0,-1.094702617E1,1.130855237E1
1.830405917E0,1.499610694E0,-2.556597688E0,-1.127495673E1,1.165803042E1
1.840375917E0,1.486185341E0,-2.712884991E0,-1.142933375E1,1.184053047E1
1.850344917E0,1.670722589E0,-2.890946157E0,-1.144834422E1,1.192532888E1
1.860314917E0,1.956745283E0,-3.028412443E0,-1.135650668E1,1.191513231E1
1.870284917E0,2.137527450E0,-3.077277916E0,-1.119815940E1,1.180836301E1
1.880254917E0,2.323659965E0,-3.098474658E0,-1.109161845E1,1.174835907E1
1.890223917E0,2.474671472E0,-3.254939132E0,-1.094227589E1,1.168126831E1
1.900193917E0,2.465119461E0,-3.474628379E0,-1.089079934E1,1.169441604E1
1.910163917E0,2.401727457E0,-3.705113926E0,-1.076238747E1,1.163293377E1
1.920133917E0,2.225833855E0,-3.953086740E0,-1.028339409E1,1.123963634E1
1.930102917E0,1.978903599E0,-4.292292491E0,-9.675668991E0,1.076839843E1
1.940072917E0,1.746589920E0,-4.647342442E0,-8.973150589E0,1.025503777E1
1.950042917E0,1.439725996E0,-4.775989373E0,-8.133175256E0,9.541038999E0
1.960011917E0,1.128881288E0,-4.819585043E0,-6.950958883E0,8.533381648E0
1.969981917E0,9.546404010E-1,-4.801155789E0,-5.515037670E0,7.374149151E0
1.979951917E0,7.030905524E-1,-4.505255687E0,-4.003002082E0,6.067593493E0
1.989921917E0,2.181014362E-1,-3.913483549E0,-2.177010189E0,4.483558306E0
1.999890917E0,-5.480027686E-1,-2.755278767E0,-5.254354763E-1,2.857962658E0
2.009860917E0,-1.711420380E0,-6.770648879E-1,4.241272026E-1,1.888719265E0
2.019830917E0,-3.189517267E0,2.038781426E0,1.747743284E0,4.169443210E0
2.029800917E0,-5.077828492E0,4.912745807E0,3.988078818E0,8.113210598E0
2.039769917E0,-6.637424748E0,7.334528629E0,6.439520472E0,1.180331061E1
2.049739917E0,-6.496284657E0,8.100374715E0,9.145787877E0,1.383702355E1
2.059709917E0,-5.217771658E0,7.693619006E0,1.227939845E1,1.540131621E1
2.069679917E0,-3.509036905E0,6.648133339E0,1.487220824E1,1.666414099E1
2.079648917E0,-1.824137156E0,5.367387289E0,1.676369830E1,1.769626807E1
2.089618917E0,-4.560328272E-1,4.599473627E0,1.785182304E1,1.844046391E1
2.099588917E0,8.404713227E-1,4.284246138E0,1.809832762E1,1.861748156E1
2.109558917E0,1.758120191E0,4.350805871E0,1.774370100E1,1.835373051E1
2.119527917E0,1.663811911E0,4.567710966E0,1.695952156E1,1.764249486E1
2.129497917E0,1.940107615E0,4.041808590E0,1.587834565E1,1.649915437E1
2.139467917E0,2.685533763E0,3.111268365E0,1.600210314E1,1.652148260E1
2.149436917E0,2.720060695E0,2.654197365E0,1.619057060E1,1.663063649E1
2.159406917E0,2.890535975E0,1.956360536E0,1.535393578E1,1.574566254E1
2.169376917E0,3.334931088E0,1.096548817E0,1.375658873E1,1.419746168E1
2.179346917E0,3.466673535E0,7.968965560E-1,1.123976702E1,1.178919981E1
2.189315917E0,3.506192527E0,8.391017586E-1,8.098751528E0,8.864945240E0
2.199285917E0,3.673096912E0,8.394964457E-1,4.577353025E0,5.928621756E0
2.209255917E0,3.979278173E0,6.736585924E-1,1.097758021E0,4.182528345E0
2.219225917E0,4.307951919E0,4.250180259E-1,-2.287761131E0,4.896217015E0
2.229194917E0,4.447028821E0,6.281108290E-2,-5.051282133E0,6.730190321E0
2.239164917E0,4.004932247E0,-2.934124044E-1,-7.152138770E0,8.202357108E0
2.249134917E0,3.294954552E0,-6.540712970E-1,-8.742538158E0,9.365709167E0
2.259104917E0,2.758066427E0,-1.258490085E0,-9.727424451E0,1.018889170E1
2.269073917E0,2.314545325E0,-1.980768861E0,-1.001255223E1,1.046574257E1
2.279043917E0,1.662820224E0,-2.282830466E0,-1.050109645E1,1.087424998E1
2.289013917E0,1.129772257E0,-2.299462287E0,-1.105314144E1,1.134618208E1
2.298982917E0,8.815608765E-1,-2.429015243E0,-1.120368853E1,1.149782159E1
2.308952917E0,6.399874011E-1,-2.670773637E0,-1.104019102E1,1.137666179E1
2.318922917E0,4.352114770E-1,-2.974126015E0,-1.082360665E1,1.123322284E1
2.328892917E0,3.353386217E-1,-3.512961556E0,-1.072704573E1,1.129260204E1
2.338861917E0,1.107910980E0,-3.875817540E0,-1.062603508E1,1.136494830E1
2.348831917E0,1.876809021E0,-4.037878384E0,-1.063388204E1,1.152850039E1
2.358801917E0,1.706053221E0,-4.474573592E0,-1.056534449E1,1.159995390E1
2.368771917E0,1.557228134E0,-4.822815045E0,-1.047284738E1,1.163464811E1
2.378740917E0,1.512383498E0,-4.966449559E0,-1.069266995E1,1.188638362E1
2.388710917E0,1.232224539E0,-5.388440773E0,-1.077576824E1,1.211077423E1
2.398680917E0,8.433758540E-1,-5.824189902E0,-1.065154414E1,1.216913569E1
2.408650917E0,5.482852256E-1,-6.075372838E0,-1.047718017E1,1.212361646E1
2.418619917E0,5.025896008E-1,-6.506174052E0,-1.016381619E1,1.207833004E1
2.428589917E0,5.701395596E-1,-6.891959893E0,-9.838064296E0,1.202545963E1
2.438559917E0,4.925358251E-1,-7.133093804E0,-9.385582775E0,1.179884667E1
2.448529917E0,2.977295499E-1,-7.183553520E0,-8.392432027E0,1.105101803E1
2.458498917E0,1.729780345E-1,-6.708697044E0,-7.234194501E0,9.867629275E0
2.468468917E0,2.208138134E-1,-6.186876901E0,-6.894621545E0,9.266175629E0
2.478438917E0,-2.625088464E-1,-5.840792486E0,-6.107468204E0,8.454876441E0
2.488408917E0,-1.247367366E0,-4.590272448E0,-5.013255351E0,6.910807167E0
2.498377917E0,-2.949736109E0,-2.110710949E0,-4.023698886E0,5.417212988E0
2.508347917E0,-5.076919835E0,6.176589310E-1,-2.795582455E0,5.828541741E0
2.518317917E0,-7.461254164E0,3.275462859E0,-1.045914853E0,8.215406777E0
2.528286917E0,-9.401615841E0,6.378021796E0,6.837535179E-1,1.138143494E1
2.538256917E0,-1.036741273E1,8.688679454E0,2.276039218E0,1.371702416E1
2.548226917E0,-1.082057311E1,1.100004404E1,3.615354488E0,1.584791972E1
2.558196917E0,-8.646654346E0,1.132035685E1,5.384034312E0,1.522835960E1
2.568165917E0,-4.091894085E0,8.546282796E0,9.178857974E0,1.319219392E1
2.578135917E0,4.666654041E-1,5.625951165E0,1.388969942E1,1.499309352E1
2.588105917E0,4.467724456E0,3.804005545E0,1.796849838E1,1.890232668E1
2.598075917E0,8.985806302E0,2.101006910E0,2.047957812E1,2.246268161E1
2.608044917E0,1.283518215E1,1.095927258E0,2.019803703E1,2.395628638E1
2.618014917E0,1.385283156E1,1.911932222E0,1.831087624E1,2.304006545E1
2.627984917E0,1.267560812E1,3.556444375E0,1.652312280E1,2.112659284E1
2.637954917E0,1.168953835E1,3.815180452E0,1.451313307E1,1.902188056E1
2.647923917E0,1.052459173E1,3.108320784E0,1.235149579E1,1.652235266E1
2.657893917E0,8.724410620E0,2.425492296E0,9.513409342E0,1.313405158E1
2.667863917E0,6.970547640E0,2.077840827E0,6.464873999E0,9.731420900E0
2.677833917E0,4.989919113E0,2.115462981E0,3.887932386E0,6.670119535E0
2.687802917E0,2.633603179E0,2.211754344E0,1.642938375E0,3.811426175E0
2.697772917E0,6.482268588E-1,2.127568180E0,-1.418101823E-1,2.228644105E0
2.707742917E0,-5.603529286E-1,1.985852722E0,-1.117481849E0,2.346566027E0
2.717712917E0,-1.077578841E0,1.743663243E0,-1.452820836E0,2.512414385E0
2.727681917E0,-1.081735042E0,1.470775588E0,-1.474532132E0,2.346822648E0
2.737651917E0,-8.017612202E-1,1.286009421E0,-1.499044830E0,2.131613634E0
2.747621917E0,-4.118537508E-1,1.074686808E0,-1.786871096E0,2.125437264E0
2.757591917E0,-1.054449595E-1,9.380863488E-1,-2.373797647E0,2.554611498E0
2.767560917E0,-1.555008531E-2,9.399016169E-1,-3.222650222E0,3.356952682E0
2.777530917E0,-1.345488176E-2,1.010218771E0,-4.103011104E0,4.225567786E0
2.787500917E0,-8.329958037E-2,1.019632349E0,-4.962617878E0,5.066968043E0
2.797470667E0,-1.305205245E-1,1.014839094E0,-5.971631538E0,6.058656387E0
2.807439667E0,-7.504082680E-2,1.108991691E0,-7.066792810E0,7.153674183E0
2.817409667E0,-1.162101951E-1,1.025702782E0,-8.073221415E0,8.138948030E0
2.827379667E0,-2.739074086E-1,7.305259806E-1,-8.716980563E0,8.751825159E0
2.837349667E0,-4.962996778E-1,4.368308634E-1,-9.051488076E0,9.075603063E0
2.847318667E0,-7.252751809E-1,9.186063498E-2,-9.152782901E0,9.181933200E0
2.857288667E0,-1.038949503E0,-3.370095366E-1,-8.975811657E0,9.042023357E0
2.867258667E0,-1.355736152E0,-8.241589066E-1,-8.536727861E0,8.682913163E0
2.877228667E0,-1.483391249E0,-1.350999469E0,-8.112822268E0,8.357244421E0
2.887197667E0,-1.435513662E0,-1.929720914E0,-7.618044328E0,7.988687105E0
2.897167667E0,-1.356906618E0,-2.500187844E0,-7.017041776E0,7.571724381E0
2.907137667E0,-1.251429572E0,-3.027237445E0,-6.556016888E0,7.328819820E0
2.917107667E0,-9.693945341E-1,-3.528649343E0,-6.201354607E0,7.200547959E0
2.927076667E0,-6.333617748E-1,-3.949518769E0,-5.778382815E0,7.027770173E0
2.937046667E0,-4.756811529E-1,-4.260297404E0,-5.128916200E0,6.684473645E0
2.947016667E0,-5.028135491E-1,-4.334581017E0,-4.805472788E0,6.491069463E0
2.956986667E0,-5.810506833E-1,-4.156628025E0,-4.541198521E0,6.183660764E0
2.966955667E0,-7.415770720E-1,-3.701797093E0,-3.589333794E0,5.209275895E0
2.976925667E0,-9.968150519E-1,-3.228502408E0,-1.955587242E0,3.903996607E0
2.986895667E0,-1.469649561E0,-3.003529616E0,3.790545255E-1,3.365225449E0
2.996865667E0,-1.824010125E0,-2.733825040E0,3.642244663E0,4.905788262E0
3.006834667E0,-1.873792004E0,-1.463945456E0,6.108294416E0,6.554806896E0
3.016804667E0,-2.212627333E0,5.918879128E-1,7.597976099E0,7.935697312E0
3.026774667E0,-3.099247952E0,2.658139558E0,9.041332047E0,9.920520599E0
3.036743667E0,-3.952480676E0,4.428643128E0,9.999992409E0,1.162905119E1
3.046713667E0,-4.630344294E0,6.359927003E0,1.032892402E1,1.298366016E1
3.056683667E0,-4.886634188E0,8.164557847E0,1.135646224E1,1.481581699E1
3.066653667E0,-4.270712757E0,8.539908162E0,1.279556025E1,1.596544333E1
3.076622667E0,-3.108312013E0,7.656296813E0,1.404322743E1,1.629394737E1
3.086592667E0,-1.994704968E0,7.010281225E0,1.497101683E1,1.665095300E1
3.096562667E0,-7.976308201E-1,6.190895693E0,1.577566153E1,1.696569778E1
3.106532667E0,4.373581360E-1,5.131532829E0,1.596465640E1,1.677480746E1
3.116501667E0,1.337337157E0,4.229331135E0,1.523530279E1,1.586789727E1
3.126471667E0,1.681794877E0,3.479335388E0,1.341279467E1,1.395841214E1
3.136441667E0,1.662568501E0,2.800662516E0,1.082558184E1,1.130491339E1
3.146411667E0,1.449790809E0,2.043121229E0,8.094137490E0,8.472974652E0
3.156381667E0,1.418616817E0,1.136292341E0,5.094980714E0,5.409478943E0
3.166350667E0,1.674779972E0,3.314117047E-1,2.106341910E0,2.711346144E0
3.176320667E0,1.911254530E0,-1.952990493E-1,-3.113572168E-1,1.946273083E0
3.186290667E0,1.996445830E0,-3.255677050E-1,-2.239075459E0,3.017490546E0
3.196260667E0,2.028886914E0,-3.588778308E-1,-3.655299157E0,4.195996584E0
3.206229667E0,2.007352349E0,-4.515839732E-1,-4.656293945E0,5.090625191E0
3.216199667E0,1.896729023E0,-4.913818771E-1,-5.452273657E0,5.793645240E0
3.226169667E0,1.846609614E0,-5.203621396E-1,-6.023376473E0,6.321535253E0
3.236139667E0,2.010250083E0,-6.510377616E-1,-6.417929628E0,6.756831822E0
3.246108667E0,2.371331145E0,-8.562592435E-1,-6.846836345E0,7.296270227E0
3.256078667E0,2.626338891E0,-1.115274525E0,-7.353989916E0,7.888134185E0
3.266048667E0,2.847384985E0,-1.376570805E0,-7.915646555E0,8.524084045E0
3.276018667E0,3.002418938E0,-1.573334874E0,-8.404247496E0,9.062079126E0
3.285987667E0,3.012080292E0,-1.768243329E0,-8.865203387E0,9.528438657E0
3.295957667E0,2.974970646E0,-2.047927348E0,-9.246464651E0,9.926810430E0
3.305927667E0,2.871995038E0,-2.346115758E0,-9.414974974E0,1.011901025E1
3.315897667E0,2.668589409E0,-2.587926485E0,-9.435640204E0,1.014150083E1
3.325866667E0,2.478204945E0,-2.885450066E0,-9.372746968E0,1.011512272E1
3.335836667E0,2.304265628E0,-3.220159893E0,-9.286942586E0,1.009585917E1
3.345806667E0,2.151618362E0,-3.544247668E0,-9.234821091E0,1.012289848E1
3.355776667E0,2.027571875E0,-3.862815086E0,-9.215435232E0,1.019591264E1
3.365745667E0,1.945556197E0,-4.284536160E0,-8.967622631E0,1.012722542E1
3.375715667E0,1.790900267E0,-4.701019882E0,-8.706335707E0,1.005520726E1
3.385685667E0,1.640132004E0,-5.009942318E0,-8.551132477E0,1.004546772E1
3.395655667E0,1.549216864E0,-5.308391222E0,-8.280497024E0,9.957194445E0
3.405624667E0,1.475055604E0,-5.643668228E0,-8.031914345E0,9.926652414E0
3.415594667E0,1.325509263E0,-5.885971583E0,-7.794478213E0,9.856750321E0
3.425564667E0,1.131888365E0,-6.035956757E0,-7.596089787E0,9.768035898E0
3.435534667E0,9.207679193E-1,-6.122217806E0,-7.325376567E0,9.591168139E0
3.445503667E0,6.756463534E-1,-6.100952067E0,-6.961418383E0,9.281134630E0
3.455473667E0,3.411512657E-1,-5.896567322E0,-6.489077963E0,8.774623820E0
3.465443667E0,-2.174345613E-2,-5.458668757E0,-5.885033689E0,8.026902198E0
3.475413667E0,-3.157008941E-1,-4.881272584E0,-5.159759093E0,7.109824399E0
3.485382667E0,-7.436966877E-1,-3.965277600E0,-4.347344027E0,5.930928367E0
3.495352667E0,-1.374607602E0,-2.423724682E0,-3.055680640E0,4.135356281E0
3.505322667E0,-2.468388054E0,6.811304569E-2,-1.580076129E0,2.931589935E0
3.515292667E0,-4.315800052E0,3.203473109E0,2.894126165E-1,5.382576494E0
3.525261667E0,-6.260681042E0,6.414651679E0,2.901261522E0,9.421316346E0
3.535231667E0,-7.105745791E0,8.675670569E0,5.813593578E0,1.263157763E1
3.545201667E0,-6.474442382E0,9.378300068E0,9.945288198E0,1.512546441E1
3.555171667E0,-4.505422917E0,8.549573025E0,1.545679532E1,1.822927744E1
3.565140667E0,-2.044113356E0,6.585511998E0,2.157042064E1,2.264575930E1
3.575110667E0,9.561076136E-1,5.219816430E0,2.485385676E1,2.541406739E1
3.585080667E0,4.173005784E0,4.560921472E0,2.557107390E1,2.630771374E1
3.595050667E0,5.614384788E0,5.285778869E0,2.538894716E1,2.653411790E1
3.605020667E0,4.931427661E0,6.762203745E0,2.380123165E1,2.522984356E1
3.614989667E0,3.778983555E0,7.386918511E0,2.076891940E1,2.236504628E1
3.624959667E0,2.722263048E0,7.073010739E0,1.750970713E1,1.907951888E1
3.634929667E0,1.707991134E0,6.398937871E0,1.450361146E1,1.594422732E1
3.644899667E0,6.331827039E-1,5.504035549E0,1.153768850E1,1.279896807E1
3.654868667E0,-4.678232990E-1,4.581170672E0,8.824223760E0,9.953537479E0
3.664838667E0,-1.356032314E0,3.569982726E0,6.564973653E0,7.594898246E0
3.674808667E0,-1.621419452E0,2.517383044E0,4.466926603E0,5.377699481E0
3.684778667E0,-1.174758688E0,1.688229153E0,2.435006885E0,3.187386732E0
3.694747667E0,-3.797641582E-1,1.153980169E0,7.917071521E-1,1.450065950E0
3.704717667E0,8.301927947E-1,4.782382134E-1,-7.705981189E-1,1.229533784E0
3.714687667E0,2.264825281E0,-3.464299858E-1,-2.612404976E0,3.474781583E0
3.724657667E0,3.584981126E0,-1.128538349E0,-4.774860275E0,6.076592724E0
3.734626667E0,4.375657414E0,-1.503417085E0,-6.921892374E0,8.325817364E0
3.744596667E0,4.420908139E0,-1.780929156E0,-8.748651422E0,9.962682326E0
3.754566667E0,4.103167809E0,-2.335225319E0,-9.892059824E0,1.096093568E1
3.764536667E0,3.757145082E0,-2.971791222E0,-1.041609665E1,1.146484852E1
3.774506667E0,3.438051122E0,-3.401012519E0,-1.075123332E1,1.178881248E1
3.784475667E0,3.014032093E0,-3.672412203E0,-1.080287476E1,1.180140262E1
3.794446042E0,2.537845667E0,-3.967593682E0,-1.074043234E1,1.172771705E1
3.804416042E0,2.141985367E0,-4.432647302E0,-1.062171983E1,1.170715147E1
3.814386042E0,1.780118293E0,-4.737372022E0,-1.063392180E1,1.177674860E1
3.824355042E0,1.384150697E0,-4.930516080E0,-1.064473447E1,1.181254562E1
3.834325042E0,1.079530788E0,-5.065184473E0,-1.058245695E1,1.178176029E1
3.844295042E0,8.525958167E-1,-5.170327350E0,-1.033227915E1,1.158512827E1
3.854265042E0,7.327929461E-1,-5.474887179E0,-1.000469708E1,1.142826928E1
3.864234042E0,8.636738053E-1,-5.932112546E0,-9.682964562E0,1.138840175E1
3.874204042E0,9.737447894E-1,-6.266263964E0,-9.167845328E0,1.114735982E1
3.884174042E0,1.043513401E0,-6.622911959E0,-8.443180012E0,1.078142717E1
3.894144042E0,1.091900280E0,-7.032388963E0,-7.719121052E0,1.049912237E1
3.904114042E0,1.196785588E0,-7.290442377E0,-7.111221124E0,1.025438012E1
3.914083042E0,1.272209407E0,-7.417404140E0,-6.441508525E0,9.906030134E0
3.924053042E0,1.274634540E0,-7.535456500E0,-5.859525211E0,9.630256153E0
3.934023042E0,1.315542830E0,-7.533073760E0,-5.657305689E0,9.512253196E0
3.943993042E0,1.360100660E0,-7.418835538E0,-5.659466820E0,9.429663792E0
3.953962042E0,1.327027931E0,-7.099138438E0,-5.589480327E0,9.132418081E0
3.963932042E0,1.259991650E0,-6.585162334E0,-5.557140546E0,8.708257747E0
3.973902042E0,1.029640882E0,-5.865791087E0,-5.139431248E0,7.866474367E0
3.983872042E0,7.667004380E-1,-4.959111888E0,-4.083603610E0,6.469655225E0
3.993841042E0,2.614453840E-1,-3.655727173E0,-2.562165114E0,4.471843571E0
4.003811042E0,-8.322304031E-1,-1.542948064E0,-1.016639013E0,2.026536714E0
4.013781042E0,-2.163658949E0,1.289162532E0,4.426827568E-1,2.557211001E0
4.023751042E0,-3.942158002E0,4.675921293E0,2.297666899E0,6.533308720E0
4.033720042E0,-5.658493259E0,7.907769186E0,3.788037384E0,1.043554439E1
4.043690042E0,-6.499760242E0,1.006358205E1,5.300170621E0,1.310016700E1
4.053660042E0,-6.647015936E0,1.110252351E1,6.545629894E0,1.450152130E1
4.063630042E0,-5.839318403E0,1.114840778E1,8.321526936E0,1.508749303E1
4.073600042E0,-4.839712914E0,1.022744676E1,1.195550364E1,1.646078842E1
4.083569042E0,-4.062184967E0,8.610084690E0,1.656143610E1,1.910277652E1
4.093539042E0,-2.801833713E0,6.683273351E0,2.118080897E1,2.238622530E1
4.103509042E0,-7.625668220E-1,4.716292809E0,2.270534649E1,2.320253618E1
4.113479042E0,9.699123050E-1,3.152302371E0,2.248942519E1,2.272997988E1
4.123448042E0,1.321354378E0,2.654576849E0,2.219629959E1,2.239349171E1
4.133418042E0,9.489588077E-1,2.381921768E0,2.108057366E1,2.123592852E1
4.143388042E0,7.540895288E-1,1.948352774E0,1.872203841E1,1.883824440E1
4.153358042E0,7.100152637E-1,1.792631189E0,1.579610340E1,1.591334442E1
4.163328042E0,6.542736107E-1,1.746778493E0,1.197371888E1,1.211813735E1
4.173297042E0,7.405539554E-1,1.778518057E0,8.111781464E0,8.337418375E0
4.183267042E0,1.186013409E0,1.919524247E0,4.897299802E0,5.392100378E0
4.193237042E0,1.746984753E0,1.889433306E0,2.528859374E0,3.607914034E0
4.203207042E0,2.303464121E0,1.626004838E0,1.013396147E0,2.996132581E0
4.213176042E0,2.861164241E0,1.235520176E0,-2.144641757E-1,3.123902335E0
4.223146042E0,3.220882024E0,8.425849450E-1,-1.361132986E0,3.596764297E0
4.233116042E0,3.290296368E0,2.812463951E-1,-2.480557280E0,4.130171200E0
4.243086042E0,3.197488191E0,-3.611915740E-1,-3.744587894E0,4.937238964E0
4.253056042E0,3.074074519E0,-9.076507142E-1,-5.139562225E0,6.057133302E0
4.263025042E0,2.809283943E0,-1.359030327E0,-6.483448264E0,7.195425011E0
4.272995042E0,2.556941797E0,-1.765728149E0,-7.713106021E0,8.315512717E0
4.282965042E0,2.350816774E0,-2.120893291E0,-8.817066768E0,9.368307972E0
4.292935042E0,2.176179299E0,-2.436245910E0,-9.666735030E0,1.020376483E1
4.302904042E0,2.044574555E0,-2.782541994E0,-1.029455876E1,1.085821188E1
4.312874042E0,1.979369183E0,-3.082246295E0,-1.072413031E1,1.133248055E1
4.322844042E0,1.961157884E0,-3.347137443E0,-1.091938989E1,1.158803455E1
4.332814042E0,2.001689321E0,-3.589237899E0,-1.082246761E1,1.157649316E1
4.342784042E0,2.174086873E0,-3.852170230E0,-1.064248914E1,1.152512231E1
4.352753042E0,2.326075742E0,-4.120518837E0,-1.036235372E1,1.139156172E1
4.362723042E0,2.428585765E0,-4.519841566E0,-9.939231652E0,1.118549607E1
4.372693042E0,2.659622119E0,-5.101613796E0,-9.464299162E0,1.107578493E1
4.382663042E0,2.743161874E0,-5.561342940E0,-8.937594255E0,1.087814614E1
4.392632042E0,2.568768083E0,-5.682529993E0,-8.329065167E0,1.040495282E1
4.402602042E0,2.342148130E0,-5.655439843E0,-7.841778095E0,9.948021983E0
4.412572042E0,2.153799081E0,-5.837878819E0,-7.454606465E0,9.710346911E0
4.422542042E0,1.958270529E0,-6.077556188E0,-7.014149158E0,9.485241225E0
4.432512042E0,1.874633418E0,-6.243382055E0,-6.653862441E0,9.314931847E0
4.442481042E0,1.831428049E0,-6.304410614E0,-6.405645213E0,9.172350434E0
4.452451042E0,1.754957286E0,-6.241900370E0,-6.165857331E0,8.947569051E0
4.462421042E0,1.676818312E0,-6.032620336E0,-5.938797083E0,8.629805245E0
4.472391042E0,1.360030786E0,-5.789687821E0,-5.299194721E0,7.965653363E0
4.482360042E0,7.136067697E-1,-5.576058043E0,-3.913825611E0,6.849794802E0
4.492330042E0,7.576237321E-2,-5.046958117E0,-2.385255851E0,5.582738722E0
4.502300042E0,-8.843071675E-1,-3.535571569E0,-1.006939652E0,3.781030673E0
4.512270042E0,-2.672013539E0,-4.692051423E-1,6.851872551E-1,2.798087095E0
4.522240042E0,-4.807828047E0,3.610886046E0,2.459296219E0,6.496294825E0
4.532209042E0,-5.903140762E0,6.873643489E0,3.490090756E0,9.709520027E0
4.542179042E0,-6.274446557E0,8.712262444E0,3.666363258E0,1.134523759E1
4.552149042E0,-6.298797287E0,1.043258579E1,2.998800681E0,1.255015933E1
4.562119042E0,-5.698674155E0,1.229759265E1,3.335777473E0,1.395826219E1
4.572088042E0,-4.377518291E0,1.280003570E1,4.638498529E0,1.430102266E1
4.582058042E0,-3.097090914E0,1.120767750E1,7.358877604E0,1.376070807E1
4.592028042E0,-2.076894601E0,8.272861730E0,1.133814642E1,1.418828026E1
4.601998042E0,-9.081373487E-1,5.407112103E0,1.550814791E1,1.644883662E1
4.611968042E0,5.804364333E-1,2.588524362E0,1.751325639E1,1.771303232E1
4.621937042E0,2.570654394E0,-1.156739762E0,1.660450435E1,1.684208644E1
4.631907042E0,2.651183710E0,-3.598032404E0,1.627718657E1,1.687961537E1
4.641877042E0,1.244033429E0,-3.326099162E0,1.598101691E1,1.637081111E1
4.651847042E0,-2.257000026E-1,-2.187211095E0,1.446476607E1,1.463093607E1
4.661816042E0,-1.253369679E0,-1.199832718E0,1.206522664E1,1.218934895E1
4.671786042E0,-1.684414430E0,1.722195044E-2,9.345346915E0,9.495949533E0
4.681756042E0,-1.456283557E0,9.299600346E-1,6.614558042E0,6.836517063E0
4.691726042E0,-6.963079284E-1,1.047817171E0,4.687551405E0,4.853442462E0
4.701696042E0,1.295438202E-1,5.750515862E-1,3.837097862E0,3.882111015E0
4.711665042E0,8.795981855E-1,-6.747409120E-2,3.442302048E0,3.553545991E0
4.721635042E0,1.901528856E0,-2.187800056E-1,2.972868864E0,3.535763844E0
4.731605042E0,2.716160602E0,-4.417154811E-2,2.473520740E0,3.673933096E0
4.741575042E0,3.099818348E0,1.183822896E-1,1.752179566E0,3.562726679E0
4.751545042E0,3.675888957E0,3.258954415E-1,7.325432700E-1,3.762311405E0
4.761514042E0,3.845562584E0,5.116177748E-1,-5.172990757E-1,3.913783677E0
4.771484042E0,3.353679601E0,6.644211611E-1,-2.121761017E0,4.023741065E0
4.781454042E0,2.679164391E0,6.260473466E-1,-3.870293090E0,4.748581443E0
4.791423500E0,2.232258044E0,2.988001750E-1,-5.388805055E0,5.840503184E0
4.801392500E0,1.854004880E0,-3.083809841E-1,-6.581914206E0,6.845000186E0
4.811362500E0,1.653880562E0,-1.127457491E0,-7.580915093E0,7.840711381E0
4.821332500E0,1.667584535E0,-1.903393825E0,-8.160329141E0,8.543694630E0
4.831302500E0,1.652916210E0,-2.632587810E0,-8.508833134E0,9.058857096E0
4.841272500E0,1.729862352E0,-3.326544135E0,-8.779853334E0,9.546944234E0
4.851241500E0,1.761672374E0,-3.975462865E0,-8.808884175E0,9.823656903E0
4.861211500E0,1.576304529E0,-4.608286550E0,-8.722048929E0,9.989753672E0
4.871181500E0,1.473892593E0,-5.191289034E0,-8.748390051E0,1.027891870E1
4.881151500E0,1.455836830E0,-5.726539062E0,-8.810150682E0,1.060808491E1
4.891121500E0,1.268603868E0,-6.279198589E0,-8.767649025E0,1.085860765E1
4.901090500E0,1.062347283E0,-6.847397093E0,-8.702251427E0,1.112405540E1
4.911060500E0,9.537855381E-1,-7.357314059E0,-8.663465676E0,1.140593769E1
4.921030500E0,7.900266623E-1,-7.871404767E0,-8.677915900E0,1.174263086E1
4.931000500E0,6.198951986E-1,-8.319338908E0,-8.725905168E0,1.207216182E1
4.940969500E0,6.115699330E-1,-8.631749793E0,-8.651825624E0,1.223663389E1
4.950939500E0,6.427057716E-1,-8.888116286E0,-8.634289239E0,1.240816797E1
4.960909500E0,7.034355381E-1,-8.953474123E0,-8.779283230E0,1.255927285E1
4.970879500E0,5.705596089E-1,-8.836292998E0,-8.517683480E0,1.228643740E1
4.980849500E0,1.541345049E-1,-8.267527900E0,-7.987509420E0,1.149678571E1
4.990818500E0,-2.868769714E-1,-7.311899319E0,-7.290195624E0,1.032923629E1
5.000788500E0,-1.052740600E0,-6.008511681E0,-6.630509831E0,9.009669029E0
5.010758500E0,-2.092252020E0,-4.043540243E0,-5.714720669E0,7.306556545E0
5.020728500E0,-3.493948749E0,-8.252514589E-1,-4.847758098E0,6.032369054E0
5.030697500E0,-5.586398844E0,3.218447828E0,-3.786622943E0,7.476949363E0
5.040667500E0,-7.413467209E0,7.020100454E0,-1.891591805E0,1.038361334E1
5.050637500E0,-7.624937611E0,1.031095903E1,-3.461423028E-1,1.282869300E1
5.060607500E0,-6.361800451E0,1.225942787E1,1.241671447E0,1.386750968E1
5.070577500E0,-4.850681121E0,1.326668561E1,3.469524930E0,1.454550301E1
5.080546500E0,-3.405285372E0,1.310764018E1,6.555737391E0,1.504605903E1
5.090516500E0,-2.063099265E0,1.160605883E1,1.090504784E1,1.605855063E1
5.100486500E0,-6.096818671E-1,9.453539701E0,1.711036803E1,1.955775598E1
5.110456500E0,1.520013091E0,7.501288880E0,2.173755745E1,2.304563253E1
5.120426500E0,3.010582235E0,5.323830210E0,2.366560431E1,2.444315039E1
5.130395500E0,3.205053611E0,3.317875637E0,2.482074281E1,2.524579056E1
5.140365500E0,3.070522920E0,2.181564877E0,2.577488211E1,2.604864457E1
5.150335500E0,3.261261141E0,1.079217669E0,2.498303111E1,2.521809625E1
5.160305500E0,3.133317339E0,6.413635433E-1,2.232287076E1,2.255082224E1
5.170275500E0,2.562305740E0,9.330527732E-1,1.886499699E1,1.906106266E1
5.180244500E0,1.911837205E0,1.121534846E0,1.506848524E1,1.523063391E1
5.190214500E0,1.512346953E0,1.472165910E0,1.111269416E1,1.131134109E1
5.200184500E0,1.469609946E0,1.443129368E0,7.698359928E0,7.969135546E0
5.210154500E0,1.677994041E0,8.519716264E-1,4.875637622E0,5.226218697E0
5.220123500E0,1.937460581E0,2.403281647E-1,2.315939448E0,3.029040550E0
5.230093500E0,2.518291701E0,-3.372352391E-1,-1.560083914E-1,2.545556779E0
5.240063500E0,3.267366219E0,-8.161289254E-1,-2.395466843E0,4.132796853E0
5.250033500E0,3.894671302E0,-1.157481481E0,-4.471970996E0,6.042081804E0
5.260003500E0,4.378999390E0,-1.393590880E0,-6.479851642E0,7.943941622E0
5.269972500E0,4.669290843E0,-1.426646652E0,-8.445777345E0,9.755447330E0
5.279942500E0,4.731074570E0,-1.460979456E0,-1.052374856E1,1.163042611E1
5.289912500E0,4.655678233E0,-1.558037681E0,-1.217383516E1,1.312650310E1
5.299882500E0,4.038246759E0,-1.913661244E0,-1.311248518E1,1.385304313E1
5.309852500E0,3.070594549E0,-2.482110885E0,-1.369764295E1,1.425534453E1
5.319821500E0,2.393512411E0,-3.217895559E0,-1.364458064E1,1.422175567E1
5.329791500E0,1.861966010E0,-4.139201860E0,-1.298986790E1,1.375996285E1
5.339761500E0,1.669066512E0,-4.981950527E0,-1.177747580E1,1.289629987E1
5.349731500E0,1.649467376E0,-5.556561087E0,-1.043923291E1,1.194042284E1
5.359701500E0,1.796423839E0,-6.095781959E0,-9.270748723E0,1.123977216E1
5.369670500E0,2.057965263E0,-6.702841058E0,-8.577961257E0,1.107902155E1
5.379640500E0,2.137512832E0,-7.382469950E0,-8.098249837E0,1.116474246E1
5.389610500E0,2.022163493E0,-7.798274226E0,-7.979425644E0,1.133902375E1
5.399580500E0,1.874527876E0,-7.863432673E0,-8.437183692E0,1.168475489E1
5.409549500E0,1.599760049E0,-7.911568122E0,-9.345939823E0,1.234903776E1
5.419519500E0,1.451655778E0,-8.115299149E0,-1.021414785E1,1.312608857E1
5.429489500E0,1.308451912E0,-8.206701654E0,-1.057913339E1,1.345288303E1
5.439459500E0,1.175990258E0,-8.071372526E0,-1.061886522E1,1.338993301E1
5.449429500E0,1.118767651E0,-8.065503091E0,-1.035032833E1,1.316940689E1
5.459398500E0,1.225513105E0,-8.149926360E0,-9.787185334E0,1.279500601E1
5.469368500E0,1.270903286E0,-7.982504788E0,-9.093588029E0,1.216671365E1
5.479338500E0,9.838058741E-1,-7.540745891E0,-8.498754289E0,1.140436526E1
5.489308500E0,3.974807100E-1,-6.913205166E0,-7.886619222E0,1.049519697E1
5.499278500E0,-5.176671579E-1,-5.769645320E0,-6.933964536E0,9.035300249E0
5.509247500E0,-1.389461869E0,-4.254941647E0,-5.830946360E0,7.350854927E0
5.519217500E0,-2.383384449E0,-2.522206997E0,-4.562054955E0,5.731875346E0
5.529187500E0,-3.970484253E0,9.097682834E-2,-3.235241032E0,5.122480505E0
5.539157500E0,-5.984832212E0,3.589152530E0,-1.582454776E0,7.155724674E0
5.549126500E0,-8.076945507E0,7.612118760E0,7.280602098E-1,1.112256591E1
5.559096500E0,-9.671311061E0,1.196498899E1,2.878857915E0,1.565193413E1
5.569066500E0,-9.508837404E0,1.416314213E1,5.553432827E0,1.794026755E1
5.579036500E0,-7.453604836E0,1.319715169E1,1.051388314E1,1.844621307E1
5.589006500E0,-4.358973846E0,1.014128453E1,1.656927254E1,1.990947255E1
5.598975500E0,-1.464760412E0,7.187781057E0,2.443588609E1,2.551317794E1
5.608945500E0,1.353353119E0,4.777625716E0,3.004776067E1,3.045529828E1
5.618915500E0,4.066392331E0,2.917786338E0,3.179717509E1,3.218865277E1
5.628885500E0,4.880609802E0,3.512219836E0,3.270902966E1,3.325712948E1
5.638855500E0,4.160168514E0,4.681752137E0,3.131970549E1,3.193978330E1
5.648824500E0,3.950758087E0,5.572330443E0,2.707810018E1,2.792638296E1
5.658794500E0,3.416869291E0,6.076213667E0,2.318254945E1,2.420797322E1
5.668764500E0,2.270507752E0,6.612783412E0,1.977482959E1,2.097446055E1
5.678734500E0,1.759242272E0,6.742755321E0,1.615996042E1,1.759840912E1
5.688704500E0,1.750074861E0,5.164811087E0,1.312450823E1,1.421234505E1
5.698673500E0,1.857840507E0,3.362114502E0,1.018909955E1,1.088912921E1
5.708643500E0,2.013095485E0,1.835681606E0,6.937892695E0,7.453632365E0
5.718613500E0,2.135241188E0,6.172630745E-1,3.591938143E0,4.224013289E0
5.728583500E0,2.227553228E0,-2.512735677E-1,2.111780405E-1,2.251605640E0
5.738553500E0,2.628114105E0,-1.186601200E0,-2.837251468E0,4.045367975E0
5.748522500E0,2.976630962E0,-2.117595753E0,-5.243276044E0,6.390343287E0
5.758492500E0,2.934899969E0,-2.981360191E0,-7.504182082E0,8.591559529E0
5.768462500E0,3.003543357E0,-3.743042475E0,-9.384327963E0,1.054026807E1
5.778432500E0,3.008984776E0,-4.364430760E0,-1.074441313E1,1.198101242E1
5.788402500E0,2.788288638E0,-5.008119741E0,-1.193718431E1,1.324206125E1
5.798371500E0,2.568640321E0,-5.835138813E0,-1.288158214E1,1.437295782E1
5.808341500E0,2.301579856E0,-6.539832965E0,-1.309470263E1,1.481681214E1
5.818311500E0,2.155909195E0,-7.184380901E0,-1.280189395E1,1.483751199E1
5.828281500E0,2.038882729E0,-7.725765828E0,-1.224943030E1,1.462508267E1
5.838250500E0,2.041414427E0,-7.895642645E0,-1.184069824E1,1.437743650E1
5.848220500E0,2.084977792E0,-8.010676673E0,-1.154034548E1,1.420202968E1
5.858190500E0,2.092968597E0,-8.441686049E0,-1.111986051E1,1.411714839E1
5.868160500E0,1.942181184E0,-8.823008124E0,-1.082053218E1,1.409615042E1
5.878130500E0,1.780617792E0,-8.876928808E0,-1.093422544E1,1.419604701E1
5.888099500E0,1.670069748E0,-8.841937900E0,-1.126632624E1,1.441870680E1
5.898069500E0,1.624322741E0,-8.928655617E0,-1.145151926E1,1.461152315E1
5.908039500E0,1.509998273E0,-8.870451847E0,-1.152474628E1,1.462138118E1
5.918009500E0,1.393994338E0,-8.853920015E0,-1.148319011E1,1.456704414E1
5.927979500E0,1.253273784E0,-8.973295015E0,-1.116676804E1,1.438010525E1
5.937948500E0,1.094484457E0,-9.090155713E0,-1.064172900E1,1.403834831E1
5.947918500E0,1.061269349E0,-8.933224631E0,-1.003643226E1,1.347808471E1
5.957888500E0,1.098880979E0,-8.660175447E0,-9.672789822E0,1.302954493E1
5.967858500E0,1.113119533E0,-8.632370183E0,-9.288173425E0,1.272898329E1
5.977828500E0,1.145826373E0,-8.595975358E0,-8.963508530E0,1.247189623E1
5.987797500E0,1.176260253E0,-8.375282144E0,-8.595970096E0,1.205900664E1
5.997767500E0,1.047237347E0,-7.966560016E0,-8.108692964E0,1.141550201E1
6.007737500E0,7.806379344E-1,-7.191051990E0,-7.706111582E0,1.056904821E1
6.017707500E0,1.259784074E-1,-5.884275890E0,-6.919396783E0,9.083976285E0
6.027677500E0,-8.710182005E-1,-4.150050200E0,-5.678513541E0,7.087108395E0
6.037646500E0,-2.110306761E0,-1.835676636E0,-4.180721769E0,5.030063404E0
6.047616500E0,-3.870293090E0,1.321999910E0,-2.257478401E0,4.671515932E0
6.057586500E0,-5.960996622E0,5.379561192E0,4.156154108E-1,8.040267129E0
6.067556500E0,-8.127927965E0,9.986651402E0,4.358879998E0,1.359397860E1
6.077525500E0,-8.912868719E0,1.344253127E1,9.303253394E0,1.861965089E1
6.087495500E0,-6.612926084E0,1.298207005E1,1.436181414E1,2.045792364E1
6.097465500E0,-2.869173172E0,1.165523274E1,2.054881383E1,2.379769642E1
6.107435500E0,2.038474155E0,9.482166499E0,2.769485747E1,2.934402816E1
6.117405500E0,6.999734017E0,6.500952489E0,3.378259249E1,3.510729575E1
6.127374500E0,1.016725318E1,5.091609210E0,3.825800691E1,3.991206101E1
6.137344500E0,1.035293035E1,5.762096565E0,4.044988715E1,4.214947561E1
6.147314500E0,8.554913871E0,7.011899149E0,3.946088442E1,4.098188234E1
6.157284500E0,6.551261932E0,8.361894944E0,3.536899355E1,3.692974444E1
6.167254500E0,4.755109550E0,9.022254921E0,3.012570640E1,3.180519355E1
6.177223500E0,3.358000985E0,9.102900304E0,2.473562606E1,2.657047537E1
6.187193500E0,2.961990996E0,8.450553351E0,1.925234579E1,2.123294754E1
6.197163500E0,3.457278521E0,6.995900583E0,1.376883046E1,1.582643649E1
6.207133500E0,4.286755763E0,5.047249893E0,8.499244870E0,1.077442202E1
6.217103500E0,5.312058595E0,2.537520270E0,3.504059170E0,6.850942001E0
6.227072500E0,6.082998192E0,2.468840629E-1,-1.236211317E0,6.212248962E0
6.237042500E0,6.459023860E0,-1.473931038E0,-5.109508706E0,8.366513082E0
6.247012500E0,6.562327203E0,-3.070895095E0,-8.098403034E0,1.086640082E1
6.256982500E0,6.337347980E0,-4.533025283E0,-1.010761977E1,1.276222061E1
6.266952500E0,5.889726080E0,-5.718472828E0,-1.163592640E1,1.424024536E1
6.276921500E0,5.348013124E0,-6.513767247E0,-1.290239706E1,1.541110827E1
6.286891500E0,4.763874527E0,-7.232633879E0,-1.368107779E1,1.619189250E1
6.296861500E0,4.050246999E0,-8.060148211E0,-1.348339980E1,1.622259412E1
6.306831500E0,3.413315061E0,-8.844113649E0,-1.289863730E1,1.600762038E1
6.316801500E0,3.009597857E0,-9.795333429E0,-1.265119717E1,1.628063347E1
6.326770500E0,2.999515210E0,-1.093473766E1,-1.251721641E1,1.688923580E1
6.336740500E0,2.664589621E0,-1.134231549E1,-1.176013998E1,1.655442692E1
6.346710500E0,2.060504417E0,-1.138378394E1,-1.116946127E1,1.608082959E1
6.356680500E0,1.670286387E0,-1.129360467E1,-1.099746893E1,1.585180387E1
6.366650500E0,1.618859541E0,-1.123365668E1,-1.092252867E1,1.575174216E1
6.376619500E0,1.415252475E0,-1.116775388E1,-1.083517127E1,1.562442328E1
6.386589500E0,1.168141540E0,-1.090787438E1,-1.080352848E1,1.539683428E1
6.396559500E0,1.181906763E0,-1.059524247E1,-1.081574565E1,1.518671856E1
6.406529500E0,1.247718637E0,-1.026182839E1,-1.078117340E1,1.493638589E1
6.416498500E0,1.274790661E0,-9.915054585E0,-1.060264037E1,1.457221265E1
6.426468500E0,1.390017647E0,-9.624847332E0,-1.049509487E1,1.430792967E1
6.436438500E0,1.404947342E0,-9.373924597E0,-1.038602442E1,1.406107544E1
6.446408500E0,1.191398841E0,-9.012661979E0,-1.006505204E1,1.356291929E1
6.456378500E0,1.016299290E0,-8.646722174E0,-9.719027265E0,1.304830102E1
6.466347500E0,9.085485542E-1,-8.565851088E0,-9.234635734E0,1.262845052E1
6.476317500E0,8.240064405E-1,-8.434332590E0,-8.360651826E0,1.190451393E1
6.486287500E0,7.534704548E-1,-7.978125808E0,-7.168028578E0,1.075169023E1
6.496257500E0,6.658677623E-1,-7.521063579E0,-5.661727354E0,9.437421992E0
6.506227500E0,6.221067618E-1,-6.531551553E0,-4.262981569E0,7.824397380E0
6.516196500E0,4.691205038E-1,-4.788455637E0,-3.166460234E0,5.759848248E0
6.526166500E0,3.799272224E-1,-3.228779858E0,-2.026897545E0,3.831145746E0
6.536136500E0,2.507112117E-1,-1.219377183E0,-8.324447036E-1,1.497565027E0
6.546106500E0,-3.473241712E-1,2.279509540E0,5.858828223E-1,2.379087326E0
6.556076500E0,-1.715677738E0,6.317824126E0,3.029624863E0,7.213673031E0
6.566045500E0,-3.574374862E0,1.029123170E1,5.156995699E0,1.205322405E1
6.576015500E0,-4.985041950E0,1.406489019E1,6.936158996E0,1.645545748E1
6.585985500E0,-5.481581072E0,1.650024148E1,9.904129647E0,2.000993463E1
6.595955500E0,-5.259705550E0,1.798620024E1,1.347657142E1,2.308215498E1
6.605925500E0,-4.329368516E0,1.762274316E1,1.781521362E1,2.543002840E1
6.615894500E0,-1.739870885E0,1.396655640E1,2.221526796E1,2.629847864E1
6.625864500E0,9.157192871E-1,1.044863991E1,2.587322292E1,2.791838609E1
6.635834500E0,2.500621415E0,8.422841057E0,2.734174879E1,2.871878455E1
6.645804500E0,3.410992547E0,6.878901891E0,2.734025658E1,2.839795400E1
6.655774500E0,3.349790325E0,6.481562537E0,2.619208796E1,2.718928502E1
6.665743500E0,3.272911426E0,6.101608125E0,2.368647887E1,2.467774001E1
6.675713500E0,3.401341133E0,4.930215533E0,1.928882423E1,2.019739802E1
6.685683500E0,3.636523163E0,4.003144169E0,1.358133598E1,1.461855502E1
6.695653500E0,3.538537862E0,3.484960994E0,8.462230825E0,9.812010695E0
6.705623500E0,3.414847908E0,3.117859932E0,4.066398763E0,6.157745991E0
6.715592500E0,3.298647069E0,2.792047228E0,6.298632395E-1,4.367302132E0
6.725562500E0,3.259389448E0,2.102411996E0,-1.688778207E0,4.230334219E0
6.735532500E0,3.377920110E0,9.819094759E-1,-3.229209044E0,4.775173457E0
6.745502500E0,3.549642894E0,-1.772220898E-1,-4.594188913E0,5.808437321E0
6.755472500E0,3.962361594E0,-1.385293096E0,-5.366383907E0,6.813033289E0
6.765441500E0,4.464084857E0,-2.668925917E0,-5.695018476E0,7.712616586E0
6.775411500E0,4.700508251E0,-3.880424561E0,-6.245894018E0,8.727179652E0
6.785381500E0,4.718301328E0,-4.991289700E0,-6.986532174E0,9.797294122E0
6.795351375E0,4.310759168E0,-5.783700857E0,-7.709068519E0,1.055763125E1
6.805320375E0,3.798248377E0,-6.311483406E0,-8.466634948E0,1.122254075E1
6.815290375E0,3.243940519E0,-6.648482417E0,-9.063840904E0,1.169951625E1
6.825260375E0,2.492059922E0,-6.809698924E0,-9.515982116E0,1.196395744E1
6.835230375E0,1.814717584E0,-7.005242094E0,-9.933642883E0,1.228999095E1
6.845200375E0,1.200420217E0,-7.153334525E0,-1.027931624E1,1.258076094E1
6.855169375E0,6.877993526E-1,-7.210654196E0,-1.070457605E1,1.292495842E1
6.865139375E0,4.571015520E-1,-7.312278804E0,-1.126107778E1,1.343466546E1
6.875109375E0,4.608135107E-1,-7.403103604E0,-1.161068982E1,1.377775055E1
6.885079375E0,5.116932039E-1,-7.501602291E0,-1.171786344E1,1.392279391E1
6.895049375E0,6.275277154E-1,-7.585523869E0,-1.169856412E1,1.395673192E1
6.905018375E0,6.536546829E-1,-7.634480851E0,-1.169858984E1,1.398461893E1
6.914988375E0,6.301057528E-1,-7.660761162E0,-1.155800407E1,1.388062509E1
6.924958375E0,6.085833214E-1,-7.632364159E0,-1.121974030E1,1.358329595E1
6.934928375E0,4.532644629E-1,-7.615738186E0,-1.082037781E1,1.323954277E1
6.944898375E0,3.422205752E-1,-7.724667721E0,-1.042656316E1,1.298078679E1
6.954867375E0,2.489416981E-1,-7.811293636E0,-1.003646734E1,1.272041497E1
6.964837375E0,2.610942587E-2,-7.698499677E0,-9.736326252E0,1.241223702E1
6.974807375E0,-1.713794057E-1,-7.461061206E0,-9.570928402E0,1.213669954E1
6.984777375E0,-3.208758261E-1,-7.364643543E0,-9.550334508E0,1.206440322E1
6.994747375E0,-4.999743605E-1,-7.085902680E0,-9.399099784E0,1.178147138E1
7.004716375E0,-7.247158948E-1,-6.646146455E0,-8.761176158E0,1.102064805E1
7.014686375E0,-8.081451371E-1,-6.264768831E0,-7.796738162E0,1.003441842E1
7.024656375E0,-8.554056962E-1,-5.637104144E0,-6.472851940E0,8.625918749E0
7.034626375E0,-7.105410746E-1,-4.602432318E0,-4.298971766E0,6.337855323E0
7.044596375E0,-6.125073878E-1,-2.431713148E0,-1.980308100E0,3.195311300E0
7.054565375E0,-1.590725078E0,1.044247811E0,2.306141853E-3,1.902857084E0
7.064535375E0,-3.615620536E0,4.961657181E0,2.217801535E0,6.527587417E0
7.074505375E0,-5.254572279E0,8.776752555E0,5.407492756E0,1.157077755E1
7.084475375E0,-5.499756557E0,1.140334288E1,1.006247576E1,1.617210466E1
7.094445375E0,-3.630016381E0,1.132045626E1,1.616551879E1,2.006623399E1
7.104414375E0,7.335938685E-1,8.244892743E0,2.489697647E1,2.623691776E1
7.114384375E0,6.253974870E0,4.679162990E0,3.362703316E1,3.452222657E1
7.124354375E0,1.126612627E1,1.721618509E0,3.888795786E1,4.052360840E1
7.134324375E0,1.330708403E1,7.109439477E-1,4.180939286E1,4.388176452E1
7.144294375E0,1.287040344E1,1.891680098E0,4.232321810E1,4.427731393E1
7.154263375E0,1.248329905E1,2.940705670E0,3.853896562E1,4.061689767E1
7.164233375E0,1.230490518E1,4.029133288E0,3.074355361E1,3.335881735E1
7.174203375E0,1.214954466E1,5.145814653E0,2.192918007E1,2.559257279E1
7.184173375E0,1.146672436E1,5.840786639E0,1.472853280E1,1.955838016E1
7.194143375E0,9.608630079E0,6.325436032E0,9.330346468E0,1.481189651E1
7.204112375E0,7.735714281E0,5.819802736E0,5.249047245E0,1.101198785E1
7.214082375E0,6.154575713E0,4.550310530E0,2.087745425E0,7.933650426E0
7.224052375E0,4.652375141E0,3.372258836E0,-4.896996331E-1,5.766847478E0
7.234022375E0,3.521892593E0,2.244782342E0,-3.023344953E0,5.155908252E0
7.243991375E0,2.884309275E0,1.013086537E0,-5.609469618E0,6.388406196E0
7.253961375E0,2.617501117E0,-1.869717371E-1,-7.687061938E0,8.122634534E0
7.263931375E0,2.511150204E0,-1.293052685E0,-9.614191951E0,1.002050635E1
7.273901375E0,2.394256762E0,-2.169364370E0,-1.142561960E1,1.187364268E1
7.283871375E0,2.228249193E0,-2.682114896E0,-1.303732390E1,1.349557888E1
7.293840375E0,1.958903636E0,-2.871189292E0,-1.434466660E1,1.475975918E1
7.303810375E0,1.433125805E0,-3.182563466E0,-1.493171886E1,1.533423581E1
7.313780375E0,9.695819373E-1,-3.544837359E0,-1.494752506E1,1.539267574E1
7.323750375E0,5.420396684E-1,-3.641849976E0,-1.480439223E1,1.525538946E1
7.333720375E0,1.925277615E-1,-3.824654403E0,-1.460148683E1,1.509531272E1
7.343689375E0,-1.565153450E-3,-4.184105553E0,-1.422891395E1,1.483134295E1
7.353659375E0,-1.373850095E-1,-4.586719972E0,-1.406465630E1,1.479430403E1
7.363629375E0,-3.032029822E-2,-5.050321435E0,-1.372305963E1,1.462289408E1
7.373599375E0,1.068957268E-1,-5.393010957E0,-1.326123952E1,1.431630076E1
7.383569375E0,1.521460131E-1,-5.746835332E0,-1.300245345E1,1.421664730E1
7.393538375E0,2.630916676E-1,-6.121888608E0,-1.281853279E1,1.420779786E1
7.403508375E0,4.155506529E-1,-6.302651771E0,-1.245394018E1,1.396412288E1
7.413478375E0,5.990680012E-1,-6.436829583E0,-1.209563333E1,1.371480963E1
7.423448375E0,8.950599048E-1,-6.594517295E0,-1.182226430E1,1.356667696E1
7.433418375E0,1.196232295E0,-6.846056911E0,-1.167250659E1,1.358480316E1
7.443387375E0,1.217269115E0,-7.168674695E0,-1.120547895E1,1.335793395E1
7.453357375E0,1.175206000E0,-7.307957126E0,-1.069480769E1,1.300639297E1
7.463327375E0,1.035798877E0,-7.299622505E0,-1.026316740E1,1.263684981E1
7.473297375E0,7.477657650E-1,-7.256375914E0,-9.900965134E0,1.229809968E1
7.483267375E0,4.551395188E-1,-7.129224116E0,-9.317354540E0,1.174078720E1
7.493236375E0,5.639902622E-2,-6.900935369E0,-8.705355713E0,1.110897421E1
7.503206375E0,-4.134348379E-1,-6.624278453E0,-8.068099839E0,1.044730723E1
7.513176375E0,-7.722406018E-1,-6.252382089E0,-7.355268703E0,9.684452231E0
7.523146375E0,-9.894860056E-1,-5.576610020E0,-6.740231078E0,8.803884192E0
7.533116375E0,-1.405197311E0,-4.683506886E0,-5.316770867E0,7.223424997E0
7.543085375E0,-1.511450721E0,-3.008543311E0,-3.101683025E0,4.577800097E0
7.553055375E0,-2.039190439E0,-1.461379990E-1,-2.108488423E-1,2.055264264E0
7.563025375E0,-3.638483442E0,3.923648933E0,3.241027436E0,6.256024420E0
7.572995375E0,-5.414487196E0,8.200028227E0,7.690921100E0,1.247827720E1
7.582965375E0,-5.471530293E0,1.072720126E1,1.315736958E1,1.783611126E1
7.592934375E0,-2.913233112E0,1.024438614E1,2.009713046E1,2.274486815E1
7.602904375E0,1.070225967E0,7.407105439E0,3.019382178E1,3.110751466E1
7.612874375E0,5.696127108E0,4.044875162E0,3.823473265E1,3.886774575E1
7.622844375E0,9.501369925E0,8.106046222E-1,4.257291760E1,4.362781708E1
7.632814375E0,1.066214748E1,4.964376721E-1,4.429184931E1,4.555980416E1
7.642783375E0,1.043553162E1,1.920598673E0,4.254287694E1,4.384615603E1
7.652753375E0,9.979108493E0,3.200353619E0,3.597581759E1,3.747111315E1
7.662723375E0,8.615912025E0,4.865992347E0,2.761007518E1,2.932964495E1
7.672693375E0,6.641589135E0,5.874197044E0,1.972620883E1,2.162730246E1
7.682663375E0,4.494035172E0,6.491220968E0,1.309666612E1,1.529231720E1
7.692632375E0,2.809382176E0,6.132444001E0,8.285951892E0,1.068440435E1
7.702602375E0,2.058202368E0,4.862932792E0,4.583890212E0,6.992593353E0
7.712572375E0,1.838996685E0,3.532020555E0,2.069070003E0,4.487552639E0
7.722542375E0,1.867182019E0,2.264114114E0,3.100801849E-1,2.951055935E0
7.732511375E0,1.943129018E0,9.385658205E-1,-1.278884296E0,2.508426045E0
7.742481375E0,2.321879927E0,-6.148739022E-1,-2.994099519E0,3.838466913E0
7.752451375E0,3.088908905E0,-2.089389370E0,-5.077374748E0,6.299733367E0
7.762421375E0,3.513255086E0,-2.883222277E0,-7.853167886E0,9.073487634E0
7.772391375E0,3.457016273E0,-3.494556275E0,-1.016045287E1,1.128705841E1
7.782361375E0,3.395135483E0,-4.350889193E0,-1.126830611E1,1.254718711E1
7.792330375E0,3.249100687E0,-4.986040070E0,-1.191576245E1,1.331925845E1
7.802304500E0,2.991606266E0,-5.269230664E0,-1.243615763E1,1.383374557E1
7.812274500E0,2.762292502E0,-5.390298434E0,-1.288478876E1,1.423739296E1
7.822244500E0,2.423793533E0,-5.511389592E0,-1.329177835E1,1.459183204E1
7.832213500E0,2.042506833E0,-5.469255726E0,-1.369919246E1,1.489135543E1
7.842183500E0,1.680658178E0,-5.384300945E0,-1.412205491E1,1.520683213E1
7.852153500E0,1.276806781E0,-5.493784211E0,-1.472324691E1,1.576660712E1
7.862123500E0,8.904072753E-1,-5.608264507E0,-1.512728367E1,1.615797534E1
7.872093500E0,5.441215695E-1,-5.674460251E0,-1.515373530E1,1.619046821E1
7.882062500E0,3.210369900E-1,-5.807553989E0,-1.499677732E1,1.608521303E1
7.892032500E0,3.497545664E-1,-6.025746934E0,-1.458739504E1,1.578683149E1
7.902002500E0,5.466618924E-1,-6.243341709E0,-1.396648623E1,1.530819691E1
7.911972500E0,7.551666590E-1,-6.342851964E0,-1.324780028E1,1.470735394E1
7.921942500E0,9.345484909E-1,-6.509795233E0,-1.240051534E1,1.403650938E1
7.931911500E0,9.772963151E-1,-6.586461001E0,-1.152931061E1,1.331396184E1
7.941881500E0,9.332849076E-1,-6.497127825E0,-1.073935879E1,1.258640211E1
7.951851500E0,8.650617881E-1,-6.499046881E0,-9.867349491E0,1.184696283E1
7.961821500E0,7.740241487E-1,-6.601818128E0,-9.224192022E0,1.136964531E1
7.971791500E0,6.428708824E-1,-6.666336306E0,-8.552994230E0,1.086310421E1
7.981760500E0,6.253446575E-1,-6.861924500E0,-7.732637476E0,1.035715917E1
7.991730500E0,6.801806498E-1,-7.083917550E0,-6.807741276E0,9.848343762E0
8.001700500E0,6.936377243E-1,-7.108785759E0,-5.757139295E0,9.173909806E0
8.011670500E0,6.874015957E-1,-6.877036629E0,-4.285303314E0,8.132034078E0
8.021640500E0,8.687611753E-1,-6.291061420E0,-3.147874274E0,7.088110624E0
8.031609500E0,1.100824154E0,-5.702964842E0,-2.373156207E0,6.274351934E0
8.041579500E0,1.136033602E0,-4.569604295E0,-1.426481468E0,4.920031010E0
8.051549500E0,6.793065642E-1,-2.763648471E0,6.022164345E-2,2.846548248E0
8.061519500E0,-3.436838409E-1,-7.544393384E-1,2.467173003E0,2.602737006E0
8.071489500E0,-1.561064492E0,1.581034487E0,4.756477214E0,5.249825510E0
8.081458500E0,-2.951208438E0,4.447072967E0,7.082704253E0,8.868527993E0
8.091428500E0,-4.392072595E0,7.129360356E0,1.017485456E1,1.317747116E1
8.101398500E0,-5.777012812E0,8.704516053E0,1.386498909E1,1.736031104E1
8.111368500E0,-6.856257378E0,9.796977666E0,1.778362579E1,2.143003460E1
8.121338500E0,-6.573629286E0,9.915291982E0,2.158676478E1,2.464779971E1
8.131307500E0,-5.683442159E0,8.937296632E0,2.583621004E1,2.792286760E1
8.141277500E0,-4.432582982E0,7.694876157E0,3.047456298E1,3.174205254E1
8.151247500E0,-1.910570698E0,6.287061340E0,3.214935289E1,3.281399567E1
8.161217500E0,4.708769343E-1,4.895430739E0,3.178614022E1,3.216435415E1
8.171187500E0,1.686402483E0,4.622862489E0,2.945786081E1,2.986604049E1
8.181156500E0,1.968554612E0,5.328964650E0,2.545081304E1,2.607713474E1
8.191126500E0,1.845290628E0,5.576631070E0,2.058790598E1,2.140947884E1
8.201096500E0,1.568453618E0,5.474725796E0,1.538569785E1,1.640586382E1
8.211066500E0,1.155548977E0,4.999364120E0,1.048910849E1,1.167691449E1
8.221036500E0,6.172012402E-1,3.963973086E0,6.497642380E0,7.636319565E0
8.231005500E0,2.777170157E-1,2.665654107E0,3.299978480E0,4.251199422E0
8.240975500E0,1.410493865E-1,1.371455076E0,7.569150496E-1,1.572801433E0
8.250945500E0,1.709978018E-1,2.432146427E-1,-1.418751449E0,1.449568655E0
8.260915500E0,4.478721607E-1,-8.023075694E-1,-3.418775775E0,3.540100946E0
8.270884500E0,9.897552699E-1,-1.853484916E0,-5.260533516E0,5.664647800E0
8.280854500E0,1.900738605E0,-2.860729208E0,-6.797615068E0,7.616045526E0
8.290824500E0,2.842045015E0,-3.777577885E0,-8.311660345E0,9.561956506E0
8.300794500E0,3.539182517E0,-4.446340311E0,-9.768946114E0,1.130168409E1
8.310764500E0,3.963199207E0,-4.812759588E0,-1.109244642E1,1.272446346E1
8.320733500E0,4.064064555E0,-4.862411220E0,-1.232162471E1,1.385576050E1
8.330703500E0,3.994437372E0,-4.705143338E0,-1.342110824E1,1.477227302E1
8.340673500E0,3.703424081E0,-4.533580769E0,-1.421115010E1,1.536962888E1
8.350643500E0,3.324473051E0,-4.511156112E0,-1.455883490E1,1.560007450E1
8.360613500E0,3.063886623E0,-4.636404641E0,-1.458903109E1,1.561164557E1
8.370582500E0,2.825003013E0,-4.771479415E0,-1.435643236E1,1.539008798E1
8.380552500E0,2.506418345E0,-4.874220257E0,-1.390890870E1,1.494984606E1
8.390522500E0,2.294867983E0,-5.073047808E0,-1.338073088E1,1.449297043E1
8.400492500E0,2.287183280E0,-5.400659115E0,-1.276309650E1,1.404617238E1
8.410462500E0,2.242214391E0,-5.713086373E0,-1.191539992E1,1.340312041E1
8.420431500E0,2.119560564E0,-5.998983058E0,-1.098875073E1,1.269775481E1
8.430401500E0,2.131927864E0,-6.279284543E0,-1.022206030E1,1.218462341E1
8.440371500E0,2.147452660E0,-6.529249504E0,-9.742224923E0,1.192281839E1
8.450341500E0,2.112169099E0,-6.724819572E0,-9.376169343E0,1.173017511E1
8.460311500E0,2.106903681E0,-6.757452298E0,-9.176754731E0,1.158943623E1
8.470280500E0,2.025720354E0,-6.713592333E0,-9.049836237E0,1.144881657E1
8.480250500E0,1.860351448E0,-6.694411712E0,-8.920471269E0,1.130711561E1
8.490220500E0,1.772831055E0,-6.638940346E0,-8.740531978E0,1.111824438E1
8.500190500E0,1.605402028E0,-6.481332157E0,-8.459161037E0,1.077693777E1
8.510160500E0,1.363599926E0,-6.395556427E0,-8.083202028E0,1.039714873E1
8.520129500E0,1.065721565E0,-6.278348404E0,-7.667097790E0,9.966835488E0
8.530099500E0,6.585262907E-1,-5.913288020E0,-7.170521831E0,9.317564886E0
8.540069500E0,1.559433411E-1,-5.282502674E0,-6.740335743E0,8.565119892E0
8.550039500E0,-3.816278851E-1,-4.502946036E0,-6.383218217E0,7.820974214E0
8.560009500E0,-1.063141919E0,-3.469728997E0,-5.549635060E0,6.630817398E0
8.569978500E0,-1.811174464E0,-2.115995955E0,-4.302702289E0,5.125528149E0
8.579948500E0,-2.633027521E0,-6.110352051E-1,-2.434819189E0,3.637931065E0
8.589918500E0,-3.766121728E0,1.149618438E0,6.809614724E-1,3.996123615E0
8.599888500E0,-4.992819917E0,3.320505130E0,4.134908250E0,7.283644093E0
8.609858500E0,-6.141009003E0,5.790866620E0,7.945077930E0,1.159182432E1
8.619827500E0,-6.290407702E0,7.405519674E0,1.241689339E1,1.576674323E1
8.629797500E0,-4.478120221E0,6.541550292E0,1.820293898E1,1.985427985E1
8.639767500E0,-1.067624687E0,4.697814146E0,2.426165544E1,2.473534323E1
8.649737500E0,3.064646761E0,2.676919353E0,2.896407047E1,2.924850996E1
8.659707500E0,6.728787493E0,7.494656968E-1,3.164720804E1,3.236331344E1
8.669676500E0,8.357129463E0,5.166874570E-1,3.299431297E1,3.404017138E1
8.679646500E0,8.631280847E0,1.514335299E0,3.271244210E1,3.386585431E1
8.689616500E0,8.432546850E0,2.747279191E0,3.078916891E1,3.204104105E1
8.699586500E0,7.729439633E0,4.121699390E0,2.730321564E1,2.867399915E1
8.709556500E0,7.413180696E0,5.124852970E0,2.351120975E1,2.517928414E1
8.719525500E0,7.262582148E0,5.547935860E0,2.015880455E1,2.213373201E1
8.729495500E0,7.175934014E0,5.302499567E0,1.689965776E1,1.911044121E1
8.739465500E0,6.868716041E0,4.717563702E0,1.375841423E1,1.608504366E1
8.749435500E0,6.050794652E0,3.968421941E0,1.051293005E1,1.276253058E1
8.759405500E0,5.047780235E0,3.125432953E0,6.991124577E0,9.171926695E0
8.769374500E0,4.192716748E0,2.368845640E0,3.207023538E0,5.785784594E0
8.779344500E0,3.514796704E0,1.670930166E0,-4.097804743E-1,3.913275294E0
8.789314500E0,2.774524000E0,1.015538275E0,-3.522481408E0,4.597518535E0
8.799280625E0,2.217726983E0,2.888925067E-1,-6.172575781E0,6.565246654E0
8.809249625E0,1.946532390E0,-5.585830495E-1,-8.279522878E0,8.523585070E0
8.819219625E0,1.636106342E0,-1.519632876E0,-9.897801790E0,1.014655648E1
8.829189625E0,1.080890265E0,-2.441525653E0,-1.123835316E1,1.155118838E1
8.839159625E0,6.618871240E-1,-3.185105835E0,-1.221599826E1,1.264174068E1
8.849129625E0,4.259918797E-1,-3.745671968E0,-1.294327729E1,1.348109619E1
8.859098625E0,2.328162467E-1,-4.262485432E0,-1.345926366E1,1.412001288E1
8.869068625E0,2.847944856E-2,-4.665393966E0,-1.382433925E1,1.459037585E1
8.879038625E0,-2.107748750E-1,-4.838751047E0,-1.406820439E1,1.487858571E1
8.889008625E0,-3.324016383E-1,-4.933558971E0,-1.419104621E1,1.502785039E1
8.898978625E0,-4.118961431E-1,-4.986376870E0,-1.415184881E1,1.501027773E1
8.908947625E0,-4.626442008E-1,-5.050340146E0,-1.395227983E1,1.484540629E1
8.918917625E0,-4.899478474E-1,-5.270097806E0,-1.389282768E1,1.486689749E1
8.928887625E0,-4.900615758E-1,-5.549770131E0,-1.361638770E1,1.471210804E1
8.938857625E0,-4.813825536E-1,-5.831105989E0,-1.323221979E1,1.446807405E1
8.948827625E0,-5.384898238E-1,-6.146773773E0,-1.284927979E1,1.425400961E1
8.958796625E0,-6.039901143E-1,-6.462473132E0,-1.246103870E1,1.405011916E1
8.968766625E0,-6.142719314E-1,-6.711280344E0,-1.205219203E1,1.380847372E1
8.978736625E0,-6.877794720E-1,-6.943760961E0,-1.166446316E1,1.359222416E1
8.988706625E0,-8.962667701E-1,-7.128572152E0,-1.117543829E1,1.328571624E1
8.998676625E0,-1.022766237E0,-7.243306217E0,-1.074884766E1,1.300189454E1
9.008645625E0,-1.169745139E0,-7.300719443E0,-1.034493135E1,1.271559723E1
9.018615625E0,-1.335585478E0,-7.449470270E0,-9.841722314E0,1.241522831E1
9.028585625E0,-1.579147445E0,-7.493676975E0,-9.468384612E0,1.217781624E1
9.038555625E0,-1.856185891E0,-7.428525544E0,-9.205900762E0,1.197401464E1
9.048525625E0,-2.276993191E0,-7.257827777E0,-8.704411973E0,1.155973831E1
9.058494625E0,-2.926802745E0,-6.977547342E0,-7.830241538E0,1.088875676E1
9.068464625E0,-3.498479757E0,-6.402014676E0,-7.228619766E0,1.027025298E1
9.078434625E0,-3.918310133E0,-5.633197619E0,-6.511356440E0,9.459589441E0
9.088404625E0,-4.154527413E0,-4.709037584E0,-5.148258204E0,8.120326073E0
9.098374625E0,-4.056397685E0,-3.546284545E0,-3.324175428E0,6.330927146E0
9.108343625E0,-3.503018366E0,-2.027466479E0,-1.457208586E0,4.301768806E0
9.118313625E0,-3.129589446E0,8.398180425E-2,7.489388627E-1,3.219051485E0
9.128283625E0,-2.847933454E0,2.617421010E0,4.184510765E0,5.698398726E0
9.138253625E0,-1.990874311E0,5.105016291E0,8.545237899E0,1.015115080E1
9.148223625E0,-1.262966421E-1,6.500532074E0,1.263284744E1,1.420780428E1
9.158192625E0,2.742855188E0,6.704867703E0,1.736772971E1,1.881798451E1
9.168162625E0,6.055019850E0,6.181443669E0,2.334977514E1,2.490151623E1
9.178132625E0,8.955566257E0,5.107040012E0,2.830359939E1,3.012271175E1
9.188102625E0,1.075111755E1,4.399458798E0,3.222922118E1,3.425878667E1
9.198072625E0,1.109369655E1,4.349844296E0,3.516250498E1,3.712671551E1
9.208041625E0,1.034317368E1,4.423682935E0,3.643942695E1,3.813636124E1
9.218011625E0,9.164723500E0,4.789941706E0,3.581634063E1,3.727929659E1
9.227981625E0,7.711891555E0,5.094082582E0,3.370379541E1,3.494808684E1
9.237951625E0,5.964345907E0,5.056626488E0,3.024743607E1,3.124180344E1
9.247921625E0,4.206204520E0,4.889024822E0,2.604876569E1,2.683529232E1
9.257890625E0,2.615835537E0,4.713868261E0,2.148267265E1,2.214877815E1
9.267860625E0,1.502306406E0,4.533036978E0,1.661850960E1,1.729104422E1
9.277830625E0,1.139892545E0,4.194896005E0,1.171835460E1,1.249865361E1
9.287800625E0,1.575141956E0,3.411595687E0,7.237619800E0,8.154949275E0
9.297770625E0,2.347475675E0,2.507365009E0,3.116361875E0,4.637804725E0
9.307739625E0,3.267546606E0,1.662217814E0,-8.354735613E-1,3.760032574E0
9.317709625E0,4.056508783E0,1.031435392E0,-4.534463698E0,6.170938624E0
9.327679625E0,4.548049119E0,8.190279749E-1,-8.059689789E0,9.290541271E0
9.337649625E0,4.883844774E0,6.983072376E-1,-1.101773421E1,1.207186977E1
9.347619625E0,5.134187465E0,4.349167773E-1,-1.305133617E1,1.403162176E1
9.357588625E0,5.054669425E0,-5.726938426E-2,-1.428885960E1,1.515666426E1
9.367558625E0,4.584398043E0,-7.218639153E-1,-1.487094758E1,1.557828215E1
9.377528625E0,4.073717138E0,-1.264449860E0,-1.478611618E1,1.538906223E1
9.387498625E0,3.628344955E0,-1.703651769E0,-1.399132052E1,1.455418725E1
9.397467625E0,3.416241592E0,-1.952046168E0,-1.285665195E1,1.344524787E1
9.407437625E0,3.476959080E0,-2.100747879E0,-1.192794688E1,1.260072628E1
9.417407625E0,3.706423995E0,-2.254988657E0,-1.131268063E1,1.211607592E1
9.427377625E0,3.919514952E0,-2.487145630E0,-1.099902078E1,1.193846510E1
9.437347625E0,4.036571531E0,-2.853908723E0,-1.104839584E1,1.210395618E1
9.447316625E0,4.111290177E0,-3.405919795E0,-1.147214122E1,1.265357739E1
9.457286625E0,3.971091487E0,-3.918359250E0,-1.202044398E1,1.325195006E1
9.467256625E0,3.583690646E0,-4.399678361E0,-1.249385561E1,1.372211487E1
9.477226625E0,3.134306395E0,-5.029784260E0,-1.274204653E1,1.405284156E1
9.487196625E0,2.619009406E0,-5.570593235E0,-1.274211202E1,1.415104724E1
9.497165625E0,2.030621344E0,-6.049573168E0,-1.261127355E1,1.413382394E1
9.507135625E0,1.492928496E0,-6.612945964E0,-1.252187430E1,1.423928460E1
9.517105625E0,1.011638036E0,-7.072373393E0,-1.233737126E1,1.425666884E1
9.527075625E0,5.738258636E-1,-7.474226797E0,-1.181707899E1,1.399416658E1
9.537045625E0,2.087103693E-1,-7.798874735E0,-1.121505669E1,1.366175331E1
9.547014625E0,-1.460591347E-1,-8.075932769E0,-1.069332484E1,1.340109023E1
9.556984625E0,-3.854668745E-1,-8.358843867E0,-1.008299363E1,1.310288579E1
9.566954625E0,-5.263809711E-1,-8.533400211E0,-9.194781112E0,1.255547672E1
9.576924625E0,-7.260905752E-1,-8.631685474E0,-8.431846354E0,1.208839256E1
9.586894625E0,-9.538540967E-1,-8.522244308E0,-8.011853133E0,1.173576910E1
9.596863625E0,-1.295782896E0,-8.256507068E0,-7.826002307E0,1.144968447E1
9.606833625E0,-1.868761206E0,-7.800985579E0,-7.662021237E0,1.109298039E1
9.616803625E0,-2.553542225E0,-7.057633147E0,-7.264695917E0,1.044540905E1
9.626773625E0,-3.182058266E0,-6.014911458E0,-6.426848386E0,9.359969810E0
9.636743625E0,-3.823401052E0,-4.932953784E0,-4.641333259E0,7.777814800E0
9.646712625E0,-4.566477204E0,-3.813992590E0,-2.161116872E0,6.330061584E0
9.656682625E0,-5.044910422E0,-2.035202930E0,4.134215355E-2,5.440117766E0
9.666652625E0,-5.454178680E0,-2.907118678E-1,3.466076826E0,6.468869069E0
9.676622625E0,-5.751020769E0,2.202929726E0,8.288149275E0,1.032572311E1
9.686592625E0,-5.383887547E0,4.949824755E0,1.429111546E1,1.605375318E1
9.696561625E0,-4.034574707E0,5.579041293E0,2.106757413E1,2.216407396E1
9.706531625E0,-1.130314148E0,4.193935015E0,2.636288045E1,2.671831145E1
9.716501625E0,2.114752983E0,2.497453979E0,2.963273232E1,2.981288784E1
9.726471625E0,3.802672965E0,2.113552988E0,3.211901520E1,3.241232119E1
9.736441625E0,4.687626542E0,2.233015990E0,3.347822854E1,3.387848859E1
9.746410625E0,5.356609701E0,2.816883569E0,3.284088203E1,3.339388617E1
9.756380625E0,5.292313718E0,4.240323316E0,3.073166505E1,3.147100512E1
9.766350625E0,4.418914531E0,5.661001714E0,2.727890058E1,2.820837044E1
9.776320625E0,3.556028346E0,6.402723944E0,2.283872849E1,2.398432260E1
9.786290625E0,3.147678977E0,6.733027893E0,1.857083176E1,2.000293328E1
9.796259625E0,3.038950587E0,6.685550841E0,1.412169004E1,1.591709585E1
9.806229625E0,3.188635507E0,6.103725402E0,9.994881942E0,1.213756669E1
9.816199625E0,3.485158045E0,5.078702066E0,6.421922691E0,8.898349978E0
9.826169625E0,3.706162916E0,4.107711096E0,3.310447335E0,6.447324683E0
9.836138625E0,3.922491184E0,3.288048990E0,5.225077754E-1,5.144921538E0
9.846108625E0,4.212324800E0,2.548387028E0,-1.989297609E0,5.309921058E0
9.856078625E0,4.386111651E0,1.719552103E0,-4.240886695E0,6.338766032E0
9.866048625E0,4.423984359E0,7.149144995E-1,-6.177769278E0,7.632009801E0
9.876018625E0,4.438160641E0,-2.681617883E-1,-7.781872786E0,8.962517764E0
9.885987625E0,4.404137447E0,-1.198552617E0,-9.113708882E0,1.019277414E1
9.895957625E0,4.166518883E0,-2.058288907E0,-1.012968365E1,1.114481600E1
9.905927625E0,3.652831632E0,-2.816098580E0,-1.079202116E1,1.173632442E1
9.915897625E0,3.094329566E0,-3.361088900E0,-1.121167816E1,1.210675519E1
9.925867625E0,2.605287453E0,-3.579942580E0,-1.151250805E1,1.233455931E1
9.935836625E0,2.197387443E0,-3.800539316E0,-1.183505450E1,1.262303948E1
9.945806625E0,1.824993042E0,-4.182092357E0,-1.202310447E1,1.285984203E1
9.955776625E0,1.440785219E0,-4.542072095E0,-1.201309988E1,1.292365466E1
9.965746625E0,1.039192747E0,-4.779930981E0,-1.183468847E1,1.280576092E1
9.975716625E0,6.589353034E-1,-5.092492139E0,-1.141382109E1,1.251570948E1
9.985685625E0,2.420998710E-1,-5.572196542E0,-1.102956312E1,1.235958128E1
9.995655625E0,-1.369423753E-1,-6.089747048E0,-1.063080524E1,1.225225662E1
1.000562562E1,-3.603489903E-1,-6.450128490E0,-1.023653333E1,1.210457036E1
1.001559562E1,-3.615559652E-1,-6.494783676E0,-1.029777239E1,1.218019105E1
1.002556562E1,-3.470167539E-1,-6.686210407E0,-1.032185824E1,1.230311293E1
1.003553462E1,-2.555198157E-1,-7.129340476E0,-9.917244952E0,1.221656799E1
1.004550462E1,-2.086171062E-1,-7.404785264E0,-9.287636651E0,1.188000675E1
1.005547462E1,-1.811765617E-1,-7.587392639E0,-8.794062653E0,1.161623390E1
1.006544462E1,-2.727093141E-1,-7.778455088E0,-8.323417341E0,1.139552588E1
1.007541463E1,-5.825621885E-1,-7.897074044E0,-7.628606738E0,1.099539894E1
1.008538362E1,-9.996541674E-1,-7.945151020E0,-6.872628998E0,1.055261875E1
1.009535362E1,-1.353787421E0,-7.903532293E0,-6.359676742E0,1.023445413E1
1.010532362E1,-1.602969148E0,-7.672407061E0,-6.294524142E0,1.005267996E1
1.011529363E1,-1.901638199E0,-7.214718595E0,-6.418666377E0,9.842137487E0
1.012526362E1,-2.165725355E0,-6.400160524E0,-6.594076999E0,9.441094879E0
1.013523262E1,-2.470107136E0,-5.174125117E0,-6.662129234E0,8.789594184E0
1.014520263E1,-2.930765988E0,-3.690024601E0,-6.267112395E0,7.841069353E0
1.015517262E1,-3.394721500E0,-1.936508946E0,-4.992700049E0,6.340445941E0
1.016514262E1,-3.923499829E0,3.513609427E-1,-2.681276990E0,4.765139213E0
1.017511262E1,-5.059008644E0,3.256308550E0,4.651343107E-1,6.034356946E0
1.018508163E1,-6.281515256E0,6.380447221E0,4.170837636E0,9.877420070E0
1.019505162E1,-6.833467855E0,9.475134053E0,7.287644484E0,1.376895822E1
1.020502162E1,-6.099120135E0,1.174493020E1,1.036001834E1,1.680692214E1
1.021499162E1,-3.754964948E0,1.243856668E1,1.410967051E1,1.918073264E1
1.022496162E1,-7.901652414E-1,1.068394824E1,1.955610864E1,2.229826218E1
1.023493062E1,2.116264635E0,8.194183350E0,2.425761852E1,2.569154089E1
1.024490062E1,4.494351214E0,7.127819615E0,2.548011929E1,2.683731515E1
1.025487062E1,5.781466636E0,5.635056449E0,2.609640646E1,2.731669174E1
1.026484062E1,5.990873555E0,4.112404948E0,2.670779133E1,2.767866612E1
1.027481063E1,5.682762128E0,3.486011739E0,2.587123954E1,2.671642002E1
1.028477962E1,5.124307424E0,2.781591237E0,2.424637082E1,2.493756753E1
1.029474962E1,4.479679381E0,1.970955332E0,2.129221246E1,2.184743701E1
1.030471963E1,3.555186054E0,1.718689492E0,1.726306923E1,1.770894691E1
1.031468963E1,2.737635671E0,1.526470318E0,1.319704527E1,1.356417210E1
1.032465862E1,1.800054083E0,1.634870241E0,9.281102387E0,9.594365895E0
1.033462862E1,1.103648360E0,1.869331748E0,5.939796957E0,6.324051610E0
1.034459863E1,1.012320552E0,1.790856705E0,3.379562593E0,3.956438292E0
1.035456862E1,1.325704706E0,1.545967273E0,1.167401283E0,2.347409963E0
1.036453862E1,1.857137818E0,1.133774530E0,-8.980738521E-1,2.353920603E0
1.037450762E1,2.637436906E0,3.812580487E-1,-2.896442832E0,3.935836914E0
1.038447763E1,3.572275711E0,-5.671821110E-1,-4.579999475E0,5.836029857E0
1.039444762E1,4.309741752E0,-1.319756919E0,-5.908962834E0,7.431788081E0
1.040441762E1,4.559114682E0,-1.715588568E0,-7.048222053E0,8.567742114E0
1.041438762E1,4.934275839E0,-2.032274644E0,-7.960042709E0,9.583292661E0
1.042435663E1,4.817349945E0,-2.361864064E0,-8.538141718E0,1.008390432E1
1.043432662E1,4.128461110E0,-2.726565137E0,-9.068632112E0,1.033046160E1
1.044429662E1,3.444947620E0,-2.995256391E0,-9.619891816E0,1.064807699E1
1.045426662E1,2.874056767E0,-3.098397474E0,-1.032629043E1,1.115762265E1
1.046423662E1,2.321728484E0,-3.180787082E0,-1.087108487E1,1.156236636E1
1.047420562E1,1.769417304E0,-3.200079385E0,-1.124426587E1,1.182391054E1
1.048417562E1,1.294464641E0,-3.210841770E0,-1.168419400E1,1.218628463E1
1.049414562E1,9.132932773E-1,-3.367067386E0,-1.174913318E1,1.225615673E1
1.050411563E1,5.688769265E-1,-3.582548684E0,-1.168533538E1,1.223541331E1
1.051408563E1,3.516445692E-1,-3.926381922E0,-1.148316439E1,1.214097168E1
1.052405462E1,3.182417285E-1,-4.478078998E0,-1.120558653E1,1.207143897E1
1.053402462E1,4.071007319E-1,-5.059515597E0,-1.068591057E1,1.183017809E1
1.054399463E1,5.267342891E-1,-5.486993254E0,-1.018828211E1,1.158385239E1
1.055396462E1,6.577920265E-1,-5.775359804E0,-1.010035402E1,1.165352404E1
1.056393462E1,6.253234613E-1,-6.065180556E0,-1.017597489E1,1.186287948E1
1.057390362E1,4.581454262E-1,-6.207413492E0,-1.002660660E1,1.180147107E1
1.058387363E1,2.724891664E-1,-6.254280680E0,-9.800201236E0,1.162902496E1
1.059384362E1,5.220481843E-2,-6.311370555E0,-9.602931383E0,1.149140613E1
1.060381362E1,-1.800919032E-1,-6.393839099E0,-9.222903296E0,1.122388332E1
1.061378362E1,-4.683640203E-1,-6.412323902E0,-8.767521556E0,1.087229033E1
1.062375263E1,-7.466087472E-1,-6.320738379E0,-8.318560644E0,1.047414003E1
1.063372262E1,-1.000867465E0,-6.070247169E0,-7.955884169E0,1.005712331E1
1.064369262E1,-1.352814445E0,-5.623621634E0,-7.404836719E0,9.396107388E0
1.065366262E1,-1.635342403E0,-5.027233704E0,-6.419673268E0,8.316226810E0
1.066363262E1,-1.970002821E0,-4.018603038E0,-5.404287313E0,7.016865600E0
1.067360162E1,-2.474443139E0,-2.579106837E0,-4.237155586E0,5.543297609E0
1.068357162E1,-3.011207888E0,-5.859260917E-1,-2.674570234E0,4.069890448E0
1.069354162E1,-3.305123737E0,1.650069054E0,-7.153349143E-1,3.762748310E0
1.070351163E1,-3.865094331E0,4.439381832E0,1.986636541E0,6.212390038E0
1.071348162E1,-3.862441449E0,7.646074126E0,5.729548039E0,1.030575685E1
1.072345062E1,-3.448058047E0,1.022071427E1,1.212855432E1,1.623126411E1
1.073342062E1,-1.884263782E0,1.061625853E1,2.100096733E1,2.360711808E1
1.074339063E1,1.031643700E0,9.715186229E0,2.837181301E1,3.000681432E1
1.075336062E1,4.832384306E0,8.646756672E0,3.038455562E1,3.195840357E1
1.076332962E1,8.603472658E0,7.617015803E0,2.926185747E1,3.143715913E1
1.077329962E1,1.085583650E1,7.464426278E0,2.765557587E1,3.063327803E1
1.078326963E1,1.066552016E1,7.815479658E0,2.610232618E1,2.926032253E1
1.079323962E1,8.303250294E0,7.676082036E0,2.388019712E1,2.642215009E1
1.080320975E1,5.240721395E0,7.193291473E0,2.126845639E1,2.305549480E1
1.081317975E1,2.627020968E0,7.010769467E0,1.843059214E1,1.989318612E1
1.082314875E1,4.474141775E-1,6.572197888E0,1.608667727E1,1.738318584E1
1.083311875E1,-9.774867151E-1,6.121383993E0,1.398824723E1,1.530025760E1
1.084308875E1,-1.547767339E0,5.634404485E0,1.150565395E1,1.290434696E1
1.085305875E1,-1.144290455E0,4.588854498E0,8.674720981E0,9.880170563E0
1.086302775E1,-3.581502910E-1,3.198949118E0,5.533097380E0,6.401305626E0
1.087299775E1,4.793475763E-1,1.691132296E0,2.183052117E0,2.802752055E0
1.088296775E1,1.439002257E0,3.543070623E-1,-1.010495344E0,1.793700597E0
1.089293775E1,2.339353161E0,-7.595942438E-1,-3.840327280E0,4.560446277E0
1.090290775E1,2.864615560E0,-1.702438764E0,-6.134284705E0,6.980957591E0
1.091287675E1,3.144130887E0,-2.539510954E0,-7.851055872E0,8.830274810E0
1.092284675E1,3.201400271E0,-3.203396803E0,-9.190619649E0,1.024588719E1
1.093281675E1,2.950524314E0,-3.658717732E0,-1.021089914E1,1.124074154E1
1.094278675E1,2.586706463E0,-3.953035870E0,-1.091289246E1,1.189154173E1
1.095275675E1,2.216086400E0,-4.220168256E0,-1.141677159E1,1.237188476E1
1.096272575E1,1.687799821E0,-4.492589448E0,-1.176171171E1,1.270314490E1
1.097269575E1,1.158536831E0,-4.692655440E0,-1.190554620E1,1.284932889E1
1.098266575E1,6.508804715E-1,-4.821231619E0,-1.179955255E1,1.276312501E1
1.099263575E1,2.414053680E-1,-5.017302793E0,-1.160003386E1,1.264090144E1
1.100260575E1,-2.674333714E-2,-5.216192910E0,-1.155646742E1,1.267916886E1
1.101257475E1,-1.241505678E-1,-5.487715970E0,-1.163518732E1,1.286499218E1
1.102254475E1,3.590200643E-1,-6.363215477E0,-1.160844449E1,1.324293737E1
1.103251475E1,5.135094953E-1,-6.880170152E0,-1.118595392E1,1.314252634E1
1.104248475E1,2.228559534E-1,-6.949774822E0,-1.071601788E1,1.277427391E1
1.105245475E1,6.790795460E-2,-7.039108583E0,-1.060543183E1,1.272905517E1
1.106242375E1,2.287170562E-1,-7.222255071E0,-1.057128877E1,1.280489852E1
1.107239375E1,3.789049830E-1,-7.389203603E0,-1.049602107E1,1.284174276E1
1.108236375E1,3.487237023E-1,-7.554626012E0,-1.034912381E1,1.281789164E1
1.109233375E1,3.376998004E-1,-7.675804878E0,-1.011308224E1,1.270064778E1
1.110230375E1,3.539578374E-1,-7.618484039E0,-9.874939177E0,1.247721960E1
1.111227275E1,3.523648366E-1,-7.511181784E0,-9.724911903E0,1.229292171E1
1.112224275E1,4.295328073E-1,-7.631792886E0,-9.540579014E0,1.222503207E1
1.113221275E1,4.468494827E-1,-7.837954600E0,-9.119005290E0,1.203284938E1
1.114218275E1,4.465685239E-1,-7.865390906E0,-8.573256002E0,1.164321760E1
1.115215275E1,4.141115069E-1,-7.604867043E0,-8.106038913E0,1.112265067E1
1.116212175E1,1.990545698E-1,-7.194690712E0,-7.633388007E0,1.049151131E1
1.117209175E1,-1.613075767E-1,-6.605024741E0,-7.057158353E0,9.667256901E0
1.118206175E1,-5.245924540E-1,-5.562599507E0,-6.416486535E0,8.508173128E0
1.119203175E1,-9.431424361E-1,-4.337565728E0,-5.383133256E0,6.977257179E0
1.120200175E1,-9.198770960E-1,-2.927500318E0,-4.202444760E0,5.203553972E0
1.121197075E1,-6.179432519E-1,-1.101615429E0,-2.556609090E0,2.851606644E0
1.122194075E1,-1.033674438E0,1.653424187E0,-7.028353214E-2,1.951213509E0
1.123191075E1,-2.100451717E0,5.446480821E0,2.797267038E0,6.473079146E0
1.124188075E1,-3.263166749E0,9.644713247E0,5.706790091E0,1.167202656E1
1.125185075E1,-3.602001786E0,1.298526497E1,9.885829031E0,1.671290336E1
1.126181975E1,-2.663772765E0,1.399013939E1,1.624654950E1,2.160486186E1
1.127178975E1,-7.566677123E-1,1.286324177E1,2.257300763E1,2.599184888E1
1.128175975E1,2.056916127E0,1.020930753E1,2.821335581E1,3.007414687E1
1.129172975E1,5.103512387E0,7.153967779E0,3.298068662E1,3.413137536E1
1.130169875E1,8.405626270E0,3.822707280E0,3.453414213E1,3.574737217E1
1.131166875E1,1.081332373E1,2.174209665E0,3.371158624E1,3.547007478E1
1.132163875E1,1.070502394E1,3.127444103E0,3.181209952E1,3.371035628E1
1.133160875E1,8.645674353E0,3.619249026E0,2.898456613E1,3.046230001E1
1.134157875E1,6.391361049E0,3.166736223E0,2.492205401E1,2.592270222E1
1.135154775E1,4.501174330E0,3.139404875E0,1.985006221E1,2.059469356E1
1.136151775E1,2.922067670E0,3.047198962E0,1.452129812E1,1.512256592E1
1.137148775E1,2.010131823E0,2.781992649E0,9.401565555E0,1.000847381E1
1.138145775E1,1.772241071E0,2.387179292E0,5.089062747E0,5.893897101E0
1.139142775E1,2.048407259E0,1.550988277E0,1.572705714E0,3.012464140E0
1.140139675E1,2.552531534E0,3.677770007E-1,-1.426777337E0,2.947264957E0
1.141136675E1,2.898410420E0,-5.970080271E-1,-3.912589509E0,4.905665930E0
1.142133675E1,3.209475276E0,-1.394194605E0,-5.824477585E0,6.794781033E0
1.143130675E1,3.512274508E0,-2.183514631E0,-7.267172213E0,8.361554899E0
1.144127675E1,3.828882232E0,-2.847280612E0,-8.469238713E0,9.720871896E0
1.145124575E1,4.075350266E0,-3.338015202E0,-9.534630057E0,1.089311689E1
1.146121575E1,4.138260459E0,-3.639635051E0,-1.064422226E1,1.198630929E1
1.147118575E1,4.000078474E0,-3.682427899E0,-1.149763625E1,1.271835454E1
1.148115575E1,3.701498592E0,-3.669156473E0,-1.216598469E1,1.323536870E1
1.149112575E1,3.318524386E0,-3.712029720E0,-1.268740079E1,1.362945001E1
1.150109475E1,2.981112269E0,-3.650796216E0,-1.300660263E1,1.383427105E1
1.151106475E1,2.647143869E0,-3.610446043E0,-1.323912769E1,1.397559277E1
1.152103475E1,2.477004804E0,-3.674513692E0,-1.334616565E1,1.406263635E1
1.153100475E1,2.386244615E0,-3.762996098E0,-1.327473021E1,1.400259852E1
1.154097475E1,2.232106455E0,-3.918289083E0,-1.309110425E1,1.384602106E1
1.155094375E1,2.126159732E0,-4.158040420E0,-1.273597478E1,1.356520950E1
1.156091375E1,2.148165728E0,-4.496985385E0,-1.245997801E1,1.341970736E1
1.157088375E1,2.028819378E0,-4.884275129E0,-1.221613158E1,1.331187900E1
1.158085375E1,1.825251635E0,-5.282022033E0,-1.181805782E1,1.307278818E1
1.159082375E1,1.686392104E0,-5.641094284E0,-1.140045786E1,1.283106786E1
1.160079275E1,1.497564899E0,-6.078399357E0,-1.097140906E1,1.263176377E1
1.161076275E1,1.325872375E0,-6.484983158E0,-1.053877825E1,1.244503078E1
1.162073275E1,1.191924213E0,-6.621913254E0,-1.025257341E1,1.226318393E1
1.163070275E1,1.013419536E0,-6.727557238E0,-1.004170060E1,1.212941864E1
1.164067275E1,8.296270765E-1,-6.939882503E0,-9.781307713E0,1.202182311E1
1.165064175E1,6.209209464E-1,-7.010588204E0,-9.532615106E0,1.184924641E1
1.166061175E1,3.677999510E-1,-7.067694451E0,-9.247925286E0,1.164524382E1
1.167058175E1,2.315871620E-1,-6.996946065E0,-8.979818169E0,1.138630850E1
1.168055175E1,-3.538259827E-1,-6.674231216E0,-8.266347932E0,1.063028990E1
1.169052175E1,-1.210167672E0,-6.085438235E0,-7.434088000E0,9.683115650E0
1.170049075E1,-2.021111725E0,-4.888920157E0,-6.798502091E0,8.614294143E0
1.171046075E1,-3.125771799E0,-3.434587231E0,-5.286282899E0,7.036449792E0
1.172043075E1,-4.305490826E0,-1.820598713E0,-3.180959575E0,5.654231579E0
1.173040075E1,-5.372994184E0,5.230237922E-1,-9.789583862E-1,5.486435993E0
1.174036975E1,-6.025931121E0,3.456230700E0,2.263365378E0,7.306175426E0
1.175033975E1,-5.948001770E0,5.338766922E0,6.357968770E0,1.021297822E1
1.176030975E1,-4.949288566E0,7.048213867E0,1.126682676E1,1.418147247E1
1.177027975E1,-2.313252652E0,7.803694010E0,1.834362650E1,2.006831859E1
1.178024975E1,-1.318576366E-1,7.341593235E0,2.442127975E1,2.550128001E1
1.179021875E1,1.675418342E0,6.493186802E0,2.767603645E1,2.847685894E1
1.180018925E1,3.166207634E0,5.408056428E0,2.960691803E1,3.026287396E1
1.181015925E1,3.681548770E0,4.994453044E0,3.041290292E1,3.103937864E1
1.182012925E1,3.949080813E0,4.735482786E0,3.055916049E1,3.117502729E1
1.183009925E1,3.944420874E0,4.230697922E0,2.971854372E1,3.027621347E1
1.184006825E1,3.498482680E0,3.920589670E0,2.806976924E1,2.855735194E1
1.185003825E1,2.948469310E0,3.558917747E0,2.578023816E1,2.619122078E1
1.186000825E1,2.149781167E0,3.306037365E0,2.251967400E1,2.286235245E1
1.186997825E1,1.552227156E0,2.974061696E0,1.866587006E1,1.896494548E1
1.187994825E1,1.321195918E0,2.454538924E0,1.463014638E1,1.489333754E1
1.188991725E1,1.550812569E0,1.854994813E0,1.037085089E1,1.064897054E1
1.189988725E1,2.138307176E0,1.272338046E0,6.287541397E0,6.761980368E0
1.190985725E1,2.991323846E0,7.837309653E-1,2.429289477E0,3.932391123E0
1.191982725E1,4.057151392E0,4.204180214E-1,-1.121328732E0,4.230201751E0
1.192979725E1,4.905784112E0,2.621849106E-1,-3.892486197E0,6.267926888E0
1.193976625E1,5.304473587E0,1.695558053E-1,-6.126673384E0,8.105696513E0
1.194973625E1,5.387820969E0,7.418128610E-2,-8.066352106E0,9.700523386E0
1.195970625E1,5.245142475E0,-1.767437875E-2,-9.642452129E0,1.097673517E1
1.196967625E1,5.015631074E0,-1.567571273E-1,-1.081259166E1,1.192028801E1
1.197964625E1,4.771626180E0,-3.580504498E-1,-1.164122632E1,1.258629281E1
1.198961525E1,4.460322173E0,-5.655684257E-1,-1.225858237E1,1.305707407E1
1.199958525E1,4.103184181E0,-8.016889340E-1,-1.276071552E1,1.342813040E1
1.200955525E1,3.802596659E0,-1.110825963E0,-1.317188821E1,1.375471973E1
1.201952525E1,3.335385417E0,-1.374155320E0,-1.352788658E1,1.400060049E1
1.202949525E1,2.779540034E0,-1.663376732E0,-1.391695330E1,1.428895567E1
1.203946425E1,2.251628700E0,-2.138831086E0,-1.415643888E1,1.449307393E1
1.204943425E1,1.818152677E0,-2.788314366E0,-1.410426300E1,1.449174286E1
1.205940425E1,1.406407246E0,-3.498556940E0,-1.373992533E1,1.424792722E1
1.206937425E1,1.033944871E0,-4.221002361E0,-1.326668211E1,1.396032797E1
1.207934425E1,7.027750951E-1,-4.869406829E0,-1.269029633E1,1.361060750E1
1.208931325E1,4.047670716E-1,-5.482205554E0,-1.189219817E1,1.310125152E1
1.209928325E1,8.874099925E-2,-6.029252340E0,-1.088106840E1,1.244015307E1
1.210925325E1,-1.731861953E-1,-6.435061970E0,-9.961784363E0,1.186074044E1
1.211922325E1,-1.189028379E-1,-6.625112851E0,-9.387246308E0,1.149028509E1
1.212919325E1,-6.490701735E-3,-6.680727473E0,-9.298849272E0,1.144992399E1
1.213916225E1,6.140336573E-2,-6.890456573E0,-9.835912521E0,1.200946865E1
1.214913225E1,8.007089406E-2,-7.090250670E0,-1.052927068E1,1.269423518E1
1.215910225E1,1.339442155E-1,-7.122922572E0,-1.080502186E1,1.294227431E1
1.216907225E1,1.842909350E-1,-7.156447583E0,-1.083538177E1,1.298669332E1
1.217904125E1,5.535982981E-2,-7.211582149E0,-1.067789052E1,1.288515921E1
1.218901125E1,-1.559218526E-1,-7.242358968E0,-1.004650467E1,1.238581169E1
1.219898125E1,-4.903619765E-1,-6.983291647E0,-9.428288500E0,1.174305927E1
1.220895125E1,-1.125268293E0,-6.369733953E0,-8.557313569E0,1.072694527E1
1.221892125E1,-2.061534404E0,-5.802632972E0,-6.799758657E0,9.173722870E0
1.222889025E1,-2.729385834E0,-5.159642733E0,-4.666899040E0,7.473379879E0
1.223886025E1,-3.047979857E0,-4.119414298E0,-2.864822259E0,5.870857003E0
1.224883025E1,-3.354907808E0,-2.604550996E0,-8.409518176E-1,4.329698864E0
1.225880025E1,-3.692215553E0,-4.346820116E-3,1.679892193E0,4.056416197E0
1.226877025E1,-4.162916998E0,3.178566894E0,4.778652195E0,7.090041060E0
1.227873925E1,-4.082736176E0,5.629523814E0,8.231121966E0,1.077551121E1
1.228870925E1,-3.121522627E0,6.466159801E0,1.243629679E1,1.436024387E1
1.229867925E1,-1.702897917E0,6.582891276E0,1.699535329E1,1.830509089E1
1.230864925E1,-1.580306509E-1,6.101202328E0,2.205668445E1,2.288551884E1
1.231861925E1,1.784619772E0,4.318883874E0,2.729183930E1,2.768902522E1
1.232858825E1,4.245141714E0,2.256258672E0,3.164732265E1,3.201038835E1
1.233855825E1,6.191850543E0,8.144291398E-1,3.511684056E1,3.566783984E1
1.234852825E1,7.410858766E0,-4.469452308E-1,3.745445447E1,3.818319980E1
1.235849825E1,7.780189372E0,-1.031822917E0,3.722424491E1,3.804261314E1
1.236846825E1,8.444279873E0,-7.093793790E-1,3.434816091E1,3.537803329E1
1.237843725E1,9.123867835E0,-8.804678857E-2,3.016262805E1,3.151248717E1
1.238840725E1,8.619844862E0,9.896067506E-1,2.498917537E1,2.645259784E1
1.239837725E1,7.856539391E0,1.906078428E0,1.913562835E1,2.077331506E1
1.240834725E1,7.086745849E0,2.449780460E0,1.344411353E1,1.539375131E1
1.241831725E1,6.308519452E0,2.751498542E0,8.097677979E0,1.062734918E1
1.242828625E1,5.777676471E0,2.433257106E0,3.387952763E0,7.126044447E0
1.243825625E1,5.183459027E0,1.860716314E0,-4.033614010E-1,5.522066018E0
1.244822625E1,4.562136523E0,1.341468654E0,-3.441546587E0,5.869997506E0
1.245819625E1,4.263656337E0,8.738160932E-1,-6.179729850E0,7.558530343E0
1.246816625E1,4.001763641E0,4.602948627E-1,-8.552046981E0,9.453226495E0
1.247813525E1,3.730775017E0,9.214510202E-2,-1.049034693E1,1.113438600E1
1.248810525E1,3.584618599E0,-2.668429488E-1,-1.207861208E1,1.260212544E1
1.249807525E1,3.417925590E0,-6.909619653E-1,-1.320558923E1,1.365822941E1
1.250804525E1,3.113779745E0,-9.510127884E-1,-1.386015812E1,1.423741665E1
1.251801525E1,2.860423691E0,-1.181842151E0,-1.432462000E1,1.465515311E1
1.252798425E1,2.701597526E0,-1.444775359E0,-1.462461140E1,1.494206357E1
1.253795425E1,2.580278911E0,-1.600143773E0,-1.473011856E1,1.503977035E1
1.254792425E1,2.235391713E0,-1.733289843E0,-1.469352669E1,1.496332170E1
1.255789425E1,1.634851383E0,-1.963639150E0,-1.420786163E1,1.443578712E1
1.256786425E1,2.741829294E0,-2.231048109E0,-1.396314396E1,1.440363124E1
1.257783325E1,3.045239852E0,-2.943361475E0,-1.398487455E1,1.461210385E1
1.258780325E1,2.181575548E0,-3.826780158E0,-1.357837846E1,1.427500893E1
1.259777325E1,1.621766776E0,-4.136953898E0,-1.325319375E1,1.397825667E1
1.260774325E1,1.448107980E0,-4.373907927E0,-1.305874576E1,1.384770480E1
1.261771325E1,1.014882217E0,-4.815379141E0,-1.273206065E1,1.365002676E1
1.262768225E1,3.067846942E-1,-5.302470916E0,-1.201750868E1,1.313890519E1
1.263765225E1,-3.621914479E-1,-5.704534235E0,-1.091186686E1,1.231834940E1
1.264762225E1,9.569056123E-2,-6.253741567E0,-1.117424663E1,1.280555458E1
1.265759225E1,-1.139177942E-1,-6.906201371E0,-1.075704896E1,1.278368871E1
1.266756125E1,-2.948560819E-1,-7.268664422E0,-1.041794904E1,1.270645839E1
1.267753125E1,-2.866648637E-1,-7.436430979E0,-1.070990286E1,1.304165257E1
1.268750125E1,-4.169074993E-1,-7.421107766E0,-1.093861085E1,1.322497107E1
1.269747125E1,-4.596256489E-1,-7.409072442E0,-1.123207091E1,1.346347010E1
1.270744125E1,-6.285984868E-1,-7.588537524E0,-1.103647804E1,1.340838862E1
1.271741025E1,-1.189535041E0,-7.549637752E0,-1.055860148E1,1.303441940E1
1.272738025E1,-2.039520953E0,-7.078167399E0,-9.744383131E0,1.221528150E1
1.273735025E1,-2.993896329E0,-6.120499309E0,-8.253082938E0,1.070221029E1
1.274732025E1,-3.908753736E0,-5.253612751E0,-6.182277482E0,9.005518173E0
1.275729025E1,-4.486779655E0,-4.568070570E0,-3.317429495E0,7.211365949E0
1.276725925E1,-4.968744591E0,-3.130909747E0,1.153795981E-1,5.874038739E0
1.277722925E1,-5.253623861E0,-1.044541342E0,3.478979877E0,6.387090987E0
1.278719925E1,-5.288787847E0,6.937165886E-1,7.979282387E0,9.597992864E0
1.279716925E1,-5.702633890E0,2.148823393E0,1.316686312E1,1.450874769E1
1.280713862E1,-5.834241850E0,2.633159375E0,1.887761645E1,1.993329649E1
1.281710763E1,-4.056898207E0,1.355437213E0,2.427251723E1,2.464651549E1
1.282707762E1,-1.953150853E0,1.086963476E0,2.692620589E1,2.701882402E1
1.283704762E1,2.099369690E-1,1.439194777E0,2.828621679E1,2.832358409E1
1.284701762E1,2.286039857E0,1.573508536E0,3.043760623E1,3.056386397E1
1.285698763E1,4.193583305E0,2.155954365E0,3.232808590E1,3.267016097E1
1.286695662E1,6.922462478E0,2.452149459E0,3.290529730E1,3.371486488E1
1.287692662E1,9.982784053E0,2.639453026E0,3.140704185E1,3.306092811E1
1.288689662E1,1.170635378E1,3.490074969E0,2.806455586E1,3.060781988E1
1.289686663E1,1.219447232E1,4.522266406E0,2.358941743E1,2.693727275E1
1.290683662E1,1.188981485E1,5.416618506E0,1.831750348E1,2.249974193E1
1.291680562E1,1.124634864E1,6.319473626E0,1.276716851E1,1.814984012E1
1.292677562E1,1.056963751E1,6.541117598E0,7.796035911E0,1.467247874E1
1.293674563E1,9.668775709E0,6.318486616E0,3.523226928E0,1.207566250E1
1.294671562E1,8.507967746E0,5.952893550E0,9.740408778E-2,1.038421612E1
1.295668562E1,7.220147735E0,5.241763954E0,-2.375738922E0,9.233133709E0
1.296665462E1,5.940571713E0,4.282411866E0,-4.333528225E0,8.509342545E0
1.297662463E1,4.928655496E0,3.333076936E0,-6.103652896E0,8.523826930E0
1.298659462E1,4.061992594E0,2.363237575E0,-7.504691960E0,8.854664143E0
1.299656462E1,3.157700813E0,1.375857737E0,-8.664434559E0,9.323973679E0
1.300653462E1,2.412244259E0,4.291806588E-1,-9.694920364E0,9.999729960E0
1.301650363E1,1.869151946E0,-2.506297892E-1,-1.038280728E1,1.055268834E1
1.302647362E1,1.395912663E0,-7.401730093E-1,-1.088105905E1,1.099517505E1
1.303644362E1,9.652346787E-1,-1.193270827E0,-1.137181937E1,1.147492261E1
1.304641362E1,6.024052995E-1,-1.542760953E0,-1.184623906E1,1.196145406E1
1.305638363E1,2.260511644E-1,-1.793256841E0,-1.219321049E1,1.232644520E1
1.306635262E1,-8.793803036E-2,-2.050111576E0,-1.241908610E1,1.258746956E1
1.307632262E1,-3.679569853E-1,-2.365877886E0,-1.269230543E1,1.291616769E1
1.308629262E1,-6.428177458E-1,-2.575189787E0,-1.274112501E1,1.301464881E1
1.309626263E1,-7.767911974E-1,-2.767442437E0,-1.275128279E1,1.307124152E1
1.310623262E1,-9.368579949E-1,-3.135773754E0,-1.263239018E1,1.304944680E1
1.311620162E1,-1.081350222E0,-3.558713972E0,-1.240594156E1,1.295149217E1
1.312617162E1,-1.184908139E0,-3.970618447E0,-1.220385126E1,1.288812646E1
1.313614163E1,-1.271372086E0,-4.271835715E0,-1.209112980E1,1.288644199E1
1.314611162E1,-1.256624677E0,-4.605754121E0,-1.194836419E1,1.286683657E1
1.315608062E1,-1.189111264E0,-5.059557697E0,-1.181491201E1,1.290756583E1
1.316605062E1,-1.086776511E0,-5.540875931E0,-1.163530192E1,1.293300584E1
1.317602063E1,-1.029971834E0,-5.917775758E0,-1.133783886E1,1.283072492E1
1.318599062E1,-1.119801074E0,-6.281623430E0,-1.085848529E1,1.259442139E1
1.319596062E1,-1.231166193E0,-6.714277042E0,-1.030829270E1,1.236358301E1
1.320592963E1,-1.245909801E0,-7.024770041E0,-9.868308434E0,1.217715881E1
1.321589963E1,-1.428028934E0,-7.339370123E0,-9.433321783E0,1.203715832E1
1.322586962E1,-1.853200888E0,-7.536008477E0,-8.697132189E0,1.165615226E1
1.323583962E1,-2.262317703E0,-7.568215526E0,-7.649329271E0,1.099582675E1
1.324580962E1,-2.658229313E0,-7.273149821E0,-6.861788844E0,1.034645048E1
1.325577862E1,-3.148924142E0,-6.563127102E0,-6.214078149E0,9.571056778E0
1.326574862E1,-3.650379894E0,-5.606884564E0,-5.122584250E0,8.426345429E0
1.327571862E1,-4.123038402E0,-4.369627765E0,-3.797339135E0,7.107241165E0
1.328568862E1,-4.600819656E0,-2.976547932E0,-2.000947602E0,5.833624122E0
1.329565863E1,-4.940571536E0,-1.343059242E0,1.164026270E0,5.250524963E0
1.330562762E1,-5.248560172E0,8.122630388E-2,5.519514883E0,7.617022131E0
1.331559762E1,-4.969933915E0,1.348108605E0,9.488033010E0,1.079538838E1
1.332556762E1,-3.966380970E0,2.805584702E0,1.255198863E1,1.345941686E1
1.333553763E1,-1.967820786E0,3.170499198E0,1.572128126E1,1.615806511E1
1.334550762E1,1.221983871E0,2.826109598E0,1.875943954E1,1.901043692E1
1.335547662E1,4.495380616E0,2.720749204E0,2.100415523E1,2.165145399E1
1.336544662E1,6.951590967E0,2.648125032E0,2.309756368E1,2.426591501E1
1.337541663E1,8.448744807E0,2.419704429E0,2.474318067E1,2.625759410E1
1.338538662E1,9.365713352E0,2.299142736E0,2.572713608E1,2.747522839E1
1.339535662E1,9.574609809E0,2.290480086E0,2.623178354E1,2.801831400E1
1.340532563E1,9.163606097E0,2.029537855E0,2.540313017E1,2.708153842E1
1.341529562E1,8.607943439E0,1.966100828E0,2.340835489E1,2.501825976E1
1.342526562E1,7.922735134E0,2.119450929E0,2.099000964E1,2.253535687E1
1.343523562E1,7.029847178E0,2.499901623E0,1.847645887E1,1.992605811E1
1.344520562E1,6.459202784E0,3.152755530E0,1.580542152E1,1.736296396E1
1.345517462E1,6.482674677E0,3.644301714E0,1.272046913E1,1.473486820E1
1.346514462E1,6.732062518E0,3.848989930E0,9.225174939E0,1.205152446E1
1.347511462E1,7.305948608E0,3.960907099E0,5.519180422E0,9.976323102E0
1.348508462E1,7.958914196E0,4.092070671E0,2.080535808E0,9.187926143E0
1.349505463E1,8.142425551E0,4.255014737E0,-7.024494052E-1,9.213993675E0
1.350502362E1,7.774425772E0,4.332911052E0,-2.882925823E0,9.355590605E0
1.351499362E1,6.771435329E0,4.110887596E0,-4.502335002E0,9.111682266E0
1.352496362E1,5.291518496E0,3.816852463E0,-5.896822261E0,8.794375674E0
1.353493363E1,3.979859094E0,3.490127886E0,-7.295599036E0,9.013658323E0
1.354490362E1,3.131692690E0,3.049636958E0,-8.460092499E0,9.522654555E0
1.355487262E1,2.793686203E0,2.660749755E0,-9.560454285E0,1.030953723E1
1.356484262E1,2.683068285E0,2.314168472E0,-1.051382701E1,1.109480912E1
1.357481263E1,2.403414671E0,1.891329119E0,-1.115118170E1,1.156297459E1
1.358478262E1,2.058587407E0,1.345857135E0,-1.158743194E1,1.184557691E1
1.359475162E1,1.726500934E0,8.170948854E-1,-1.187778595E1,1.203038855E1
1.360472163E1,1.363912460E0,2.630694482E-1,-1.204507713E1,1.212490602E1
1.361469162E1,9.609665036E-1,-4.470576435E-1,-1.212702937E1,1.217325587E1
1.362466162E1,5.527723789E-1,-1.310006979E0,-1.209721325E1,1.218048619E1
1.363463162E1,1.440468885E-1,-2.285277818E0,-1.188006169E1,1.209872349E1
1.364460063E1,-2.596804020E-1,-3.348798930E0,-1.170535624E1,1.217773595E1
1.365457062E1,-6.432853769E-1,-4.383186289E0,-1.130531314E1,1.214233269E1
1.366454062E1,-1.081293431E0,-5.307715284E0,-1.075495449E1,1.204201325E1
1.367451062E1,-1.470490244E0,-6.238079799E0,-1.023989548E1,1.208020863E1
1.368448062E1,-1.739485699E0,-7.069335179E0,-9.879579527E0,1.227222074E1
1.369444962E1,-2.115014208E0,-7.698762801E0,-9.365168976E0,1.230652769E1
1.370441962E1,-2.646708251E0,-8.214403607E0,-8.751682618E0,1.229119359E1
1.371438962E1,-3.086715907E0,-8.660844954E0,-8.120126610E0,1.226680507E1
1.372435962E1,-3.218789890E0,-8.856879290E0,-7.711751221E0,1.217686438E1
1.373432963E1,-3.209804474E0,-9.038218989E0,-7.647630070E0,1.226696755E1
1.374429862E1,-3.376306863E0,-9.207464892E0,-7.509071524E0,1.235164009E1
1.375426862E1,-3.616788225E0,-9.246281633E0,-6.861085424E0,1.206852826E1
1.376423863E1,-3.880385092E0,-9.048529385E0,-6.123152776E0,1.159423445E1
1.377420863E1,-4.206228493E0,-8.505085654E0,-5.381472062E0,1.090821166E1
1.378417862E1,-4.585103509E0,-7.632402166E0,-4.549922567E0,9.998926562E0
1.379414762E1,-4.981862819E0,-6.281367906E0,-3.553014983E0,8.769176438E0
1.380411787E1,-4.900821580E0,-4.933827943E0,-2.189702155E0,7.290782252E0
1.381408787E1,-4.691625453E0,-3.943128932E0,1.133430129E-1,6.129637983E0
1.382405787E1,-5.055786243E0,-2.294323461E0,3.184957316E0,6.400691196E0
1.383402788E1,-5.952174928E0,4.723070902E-1,6.625505199E0,8.919012249E0
1.384399687E1,-6.813128316E0,3.606662602E0,1.034018809E1,1.289752776E1
1.385396687E1,-5.880278149E0,4.789787632E0,1.349259747E1,1.547804649E1
1.386393687E1,-3.323026450E0,4.630453345E0,1.508830496E1,1.612887316E1
1.387390688E1,-5.293911177E-1,4.736458687E0,1.564838168E1,1.635806055E1
1.388387687E1,1.832058379E0,4.662629403E0,1.744660748E1,1.815160223E1
1.389384587E1,4.663393342E0,4.509803066E0,1.878383062E1,1.987254020E1
1.390381588E1,8.298003003E0,4.420678343E0,1.874606228E1,2.097174533E1
1.391378588E1,1.057526955E1,4.318240680E0,1.885520875E1,2.204546270E1
1.392375587E1,1.066135343E1,4.231323281E0,1.826537087E1,2.156831766E1
1.393372587E1,1.043321612E1,3.810716687E0,1.612177927E1,1.957767421E1
1.394369488E1,1.007290251E1,3.271156384E0,1.398138143E1,1.753975073E1
1.395366487E1,8.683663128E0,2.959643632E0,1.181636212E1,1.495967612E1
1.396363487E1,7.062552994E0,3.114170923E0,9.291353141E0,1.207919528E1
1.397360487E1,5.850624579E0,3.296888811E0,6.958847947E0,9.670824605E0
1.398357487E1,4.724533875E0,3.454002911E0,4.906882803E0,7.637332996E0
1.399354387E1,3.803178164E0,3.527717882E0,2.995182424E0,5.989997943E0
1.400351387E1,3.113529484E0,3.415383806E0,1.203469248E0,4.775693731E0
1.401348387E1,2.618217985E0,3.102595775E0,-2.890267003E-1,4.069975724E0
1.402345387E1,2.234215692E0,2.819262509E0,-1.473427008E0,3.887280283E0
1.403342287E1,1.830430660E0,2.632312991E0,-2.524449404E0,4.080734355E0
1.404339287E1,1.262154535E0,2.408025493E0,-3.481963711E0,4.417656860E0
1.405336287E1,5.582408412E-1,2.021340936E0,-4.240459848E0,4.730639675E0
1.406333287E1,-6.962338150E-2,1.614222260E0,-4.914515174E0,5.173298785E0
1.407330288E1,-5.013301836E-1,1.286265821E0,-5.634427289E0,5.801084605E0
1.408327187E1,-6.874274696E-1,1.061520340E0,-6.467605233E0,6.590091002E0
1.409324187E1,-7.766113955E-1,8.987141222E-1,-7.320050923E0,7.415791114E0
1.410321188E1,-8.567107947E-1,7.244653416E-1,-8.105771695E0,8.183051888E0
1.411318188E1,-8.008367023E-1,6.486595528E-1,-8.722154179E0,8.782828255E0
1.412315187E1,-7.298440491E-1,5.521462883E-1,-9.143456592E0,9.189142305E0
1.413312087E1,-6.414129522E-1,4.340180603E-1,-9.456504239E0,9.488163925E0
1.414309088E1,-5.641506220E-1,2.704933655E-1,-9.697705978E0,9.717866732E0
1.415306087E1,-5.350841130E-1,4.060686618E-2,-9.770892068E0,9.785616778E0
1.416303087E1,-5.199551734E-1,-2.304039779E-1,-9.639899819E0,9.656661322E0
1.417300087E1,-5.841055611E-1,-6.147721606E-1,-9.396965550E0,9.435151597E0
1.418296988E1,-6.482214502E-1,-1.062059307E0,-9.119216375E0,9.203709486E0
1.419293987E1,-7.487594993E-1,-1.455931847E0,-8.928752096E0,9.077609394E0
1.420290987E1,-9.475708249E-1,-1.913475302E0,-8.609536806E0,8.870366521E0
1.421287987E1,-1.179831148E0,-2.476265423E0,-8.170533117E0,8.618671789E0
1.422284987E1,-1.280889745E0,-2.989550385E0,-7.866590754E0,8.512422695E0
1.423281887E1,-1.369596831E0,-3.381100118E0,-7.517497947E0,8.355860750E0
1.424278887E1,-1.469461865E0,-3.749153400E0,-7.159115083E0,8.213914910E0
1.425275887E1,-1.557036491E0,-4.079173760E0,-6.810380124E0,8.089826861E0
1.426272887E1,-1.597881339E0,-4.295614294E0,-6.541877736E0,7.987596087E0
1.427269888E1,-1.446098292E0,-4.404280120E0,-6.404657618E0,7.906233164E0
1.428266787E1,-1.164352252E0,-4.551962076E0,-6.339797963E0,7.891078071E0
1.429263787E1,-9.068508151E-1,-4.759889649E0,-6.087171350E0,7.780268820E0
1.430260788E1,-1.021270300E0,-4.443179599E0,-5.065135941E0,6.814722303E0
1.431257787E1,-1.683840233E0,-3.383536361E0,-3.187545878E0,4.944095970E0
1.432254787E1,-2.578658355E0,-1.985421198E0,-9.514782268E-1,3.390676490E0
1.433251687E1,-3.026039350E0,-1.180976763E0,2.009986228E0,3.819903781E0
1.434248688E1,-3.009435596E0,-1.123806197E0,6.468455418E0,7.222226698E0
1.435245687E1,-2.765299433E0,-6.846095502E-1,1.068544513E1,1.105867572E1
1.436242687E1,-1.412920313E0,7.899512333E-1,1.235578882E1,1.246137569E1
1.437239687E1,1.539760746E0,1.851172342E0,1.224560038E1,1.248008136E1
1.438236588E1,4.809392177E0,2.455372152E0,1.066067047E1,1.195027198E1
1.439233587E1,7.194072661E0,4.074206550E0,8.392810927E0,1.178104901E1
1.440230587E1,9.305562460E0,6.415003681E0,6.343296937E0,1.296083257E1
1.441227587E1,1.067949149E1,7.623128482E0,5.003126804E0,1.404261031E1
1.442224587E1,9.843640201E0,6.806209306E0,5.779342343E0,1.328994114E1
1.443221487E1,8.184526674E0,5.372351575E0,9.407253141E0,1.357737272E1
1.444218487E1,6.367075224E0,3.777788385E0,1.362203494E1,1.550390815E1
1.445215487E1,4.733536541E0,2.151009960E0,1.745836156E1,1.821613571E1
1.446212488E1,3.599680734E0,1.065182598E0,2.089179747E1,2.122638728E1
1.447209488E1,2.201271456E0,7.890493003E-1,2.211584892E1,2.223913146E1
1.448206387E1,8.714035320E-1,7.686439794E-1,2.130033307E1,2.133200288E1
1.449203387E1,1.398899567E-1,6.381445049E-1,1.941407744E1,1.942506629E1
1.450200388E1,3.674770385E-1,4.310488442E-1,1.603457858E1,1.604458016E1
1.451197387E1,1.040343041E0,5.654362786E-1,1.124611125E1,1.130827352E1
1.452194387E1,2.503648811E0,1.112929645E0,5.972889274E0,6.571322245E0
1.453191287E1,4.038828557E0,1.528082687E0,1.537532372E0,4.583795218E0
1.454188288E1,4.156843787E0,1.765428187E0,-1.698016223E0,4.824867464E0
1.455185287E1,3.669694709E0,1.792338682E0,-4.043155496E0,5.746846403E0
1.456182287E1,2.910810902E0,1.520586849E0,-5.844664512E0,6.704111256E0
1.457179287E1,1.567155829E0,1.102428777E0,-7.148784807E0,7.401111458E0
1.458176188E1,2.783689803E-1,6.624469949E-1,-8.019524680E0,8.051652091E0
1.459173187E1,-8.027199443E-1,3.238638264E-1,-8.601491037E0,8.644934653E0
1.460170187E1,-1.597289162E0,1.081495160E-1,-8.841858963E0,8.985627352E0
1.461167187E1,-1.918707829E0,-6.976049870E-2,-8.775340453E0,8.982923039E0
1.462164187E1,-1.838177636E0,-2.659228894E-1,-8.861437780E0,9.053987604E0
1.463161087E1,-1.398796656E0,-6.738234839E-1,-8.986298053E0,9.119442027E0
1.464158087E1,-8.744727355E-1,-9.589711413E-1,-9.099080318E0,9.191169178E0
1.465155087E1,-4.436202116E-1,-1.089857555E0,-9.483242971E0,9.555965971E0
1.466152088E1,-1.665899514E-1,-1.283542481E0,-9.937672784E0,1.002160535E1
1.467149088E1,-6.717222869E-2,-1.458981462E0,-1.034076112E1,1.044339406E1
1.468145987E1,5.280035734E-4,-1.509881474E0,-1.073352678E1,1.083920382E1
1.469142987E1,1.526477042E-1,-1.537211945E0,-1.115605009E1,1.126249420E1
1.470139988E1,1.897576430E-1,-1.750138888E0,-1.142868471E1,1.156346956E1
1.471136987E1,2.516659158E-1,-2.074298583E0,-1.144635383E1,1.163550885E1
1.472133987E1,3.160884914E-1,-2.316781447E0,-1.138200756E1,1.161970241E1
1.473130887E1,3.523707569E-1,-2.649506436E0,-1.120721206E1,1.152152992E1
1.474127888E1,5.180896193E-1,-3.176038558E0,-1.095769149E1,1.142044835E1
1.475124887E1,5.577249706E-1,-3.649621218E0,-1.065516824E1,1.127667515E1
1.476121887E1,4.892204538E-1,-4.090021514E0,-1.033826670E1,1.112867337E1
1.477118887E1,4.219814207E-1,-4.555172782E0,-9.775938215E0,1.079336071E1
1.478115788E1,1.829240021E-1,-4.955578415E0,-9.059498761E0,1.032791055E1
1.479112787E1,6.068942070E-2,-5.256577874E0,-8.331801664E0,9.851609671E0
1.480109813E1,-9.359038755E-2,-5.646388353E0,-7.705612814E0,9.553372674E0
1.481106813E1,-3.232453372E-1,-5.835456902E0,-7.187881045E0,9.264053039E0
1.482103812E1,-4.560589935E-1,-5.719280913E0,-6.479923562E0,8.654916137E0
1.483100712E1,-6.842090160E-1,-5.162644694E0,-5.775156906E0,7.776469604E0
1.484097713E1,-1.049888913E0,-4.400969718E0,-5.217212080E0,6.905802131E0
1.485094712E1,-1.454205164E0,-3.573045205E0,-4.523824689E0,5.945280020E0
1.486091712E1,-2.066007378E0,-1.981305635E0,-3.469357699E0,4.497821845E0
1.487088712E1,-2.606332058E0,4.014736274E-1,-2.006539879E0,3.313661140E0
1.488085613E1,-3.380022477E0,3.011955746E0,3.243450522E-3,4.527299403E0
1.489082612E1,-4.362407624E0,5.545657200E0,2.424184273E0,7.460669101E0
1.490079612E1,-5.336135675E0,8.220395833E0,5.595460859E0,1.128531939E1
1.491076612E1,-5.602255908E0,9.728184589E0,1.019978475E1,1.516767799E1
1.492073513E1,-4.162355957E0,8.453666409E0,1.617785992E1,1.872198799E1
1.493070512E1,-1.239483857E0,4.864853894E0,2.297670875E1,2.351876418E1
1.494067512E1,2.223512656E0,1.805675742E0,2.809747101E1,2.824309385E1
1.495064512E1,4.927134050E0,-4.434247684E-1,3.040834209E1,3.080812464E1
1.496061512E1,6.156552072E0,-1.343240360E0,3.166302593E1,3.228396876E1
1.497058513E1,6.541129292E0,-8.278008449E-1,3.116880289E1,3.185852947E1
1.498055412E1,6.973788167E0,2.313699380E-2,2.936888490E1,3.018552065E1
1.499052412E1,7.264214106E0,5.548510641E-1,2.628511716E1,2.727607102E1
1.500049413E1,6.604399674E0,1.032396529E0,2.211367609E1,2.310191784E1
1.501046412E1,5.577318703E0,1.378107599E0,1.763677648E1,1.854889617E1
1.502043412E1,4.551544000E0,1.782338481E0,1.314325674E1,1.402278435E1
1.503040312E1,3.771382760E0,1.914841212E0,8.775067973E0,9.741240307E0
1.504037313E1,3.345285923E0,1.729106161E0,4.928749051E0,6.202685969E0
1.505034312E1,3.243329485E0,1.450876783E0,1.733397725E0,3.953340013E0
1.506031312E1,3.362703901E0,1.140727162E0,-1.021597452E0,3.694955661E0
1.507028312E1,3.732950473E0,8.619813287E-1,-3.349229577E0,5.088739511E0
1.508025213E1,4.067707078E0,4.631880650E-1,-5.246516570E0,6.654826833E0
1.509022212E1,4.147536189E0,-1.012854695E-1,-6.848732597E0,8.007337471E0
1.510019212E1,4.021521383E0,-4.775403482E-1,-8.041810173E0,9.003965231E0
1.511016212E1,3.812592182E0,-8.741803747E-1,-9.231720312E0,1.002620119E1
1.512013212E1,3.548878955E0,-1.443298060E0,-1.037185895E1,1.105681280E1
1.513010112E1,3.300350363E0,-1.952457519E0,-1.118031838E1,1.181964136E1
1.514007112E1,3.108221381E0,-2.434217511E0,-1.197992746E1,1.261368768E1
1.515004112E1,3.003074118E0,-2.792953839E0,-1.259908678E1,1.324975596E1
1.516001112E1,2.942932874E0,-2.937431813E0,-1.290131650E1,1.355482670E1
1.516998113E1,2.920374024E0,-3.066929514E0,-1.316913184E1,1.383331755E1
1.517995012E1,2.978310283E0,-3.374032004E0,-1.343253487E1,1.416641864E1
1.518992012E1,3.121629632E0,-3.948500184E0,-1.357296628E1,1.447620941E1
1.519989013E1,3.309448045E0,-4.533739813E0,-1.328858577E1,1.442545510E1
1.520986012E1,3.399107496E0,-5.116580914E0,-1.302478396E1,1.440063642E1
1.521983012E1,3.464183498E0,-5.746110862E0,-1.296739822E1,1.460040321E1
1.522979912E1,3.363555256E0,-6.352086471E0,-1.291681279E1,1.478196736E1
1.523976913E1,3.141340303E0,-6.896197954E0,-1.278079953E1,1.485847912E1
1.524973912E1,2.797581033E0,-7.349469434E0,-1.268508997E1,1.492490094E1
1.525970912E1,2.372867939E0,-7.633739424E0,-1.260837450E1,1.492901830E1
1.526967812E1,2.077701517E0,-7.710412209E0,-1.262704349E1,1.494019837E1
1.527964813E1,1.801947557E0,-7.682949591E0,-1.291175962E1,1.513235824E1
1.528961812E1,1.550934191E0,-7.647139488E0,-1.302714624E1,1.518521249E1
1.529958812E1,1.276693052E0,-7.460298144E0,-1.256231949E1,1.466621507E1
1.530955812E1,9.838411036E-1,-7.018595966E0,-1.201782911E1,1.395194786E1
1.531952812E1,5.792649436E-1,-6.497099758E0,-1.152665598E1,1.324430637E1
1.532949712E1,3.672782332E-3,-5.677111963E0,-1.054491782E1,1.197601376E1
1.533946712E1,-7.241076382E-1,-4.544979039E0,-9.348278709E0,1.041976397E1
1.534943712E1,-1.452112446E0,-3.170692449E0,-8.085471332E0,8.805496455E0
1.535940713E1,-2.170528989E0,-1.482504811E0,-6.572157542E0,7.078295795E0
1.536937612E1,-2.655170049E0,5.602287483E-1,-4.520334486E0,5.272305768E0
1.537934612E1,-2.937377434E0,3.057551749E0,-1.570918220E0,4.521569743E0
1.538931612E1,-3.590828927E0,6.073285382E0,2.421650675E0,7.459439637E0
1.539928613E1,-3.873034265E0,9.133642040E0,7.198542858E0,1.225735822E1
1.540925612E1,-2.760559972E0,1.033757907E1,1.354633455E1,1.726236983E1
1.541922512E1,3.701864921E-1,9.582177275E0,2.134474151E1,2.339985362E1
1.542919512E1,4.445373474E0,6.611322777E0,2.828718977E1,2.938768516E1
1.543916513E1,7.237692305E0,2.111274036E0,3.389128053E1,3.471974315E1
1.544913512E1,6.535967370E0,-2.054767129E-1,3.707668691E1,3.764892831E1
1.545910512E1,3.187113477E0,-1.072481677E-1,3.935483932E1,3.948382671E1
1.546907512E1,-4.253730616E-1,-2.400570732E-1,3.983672005E1,3.983971428E1
1.547904413E1,-3.016338235E0,1.797553959E-1,3.812475822E1,3.824431719E1
1.548901412E1,-4.839566441E0,8.241045275E-1,3.459808260E1,3.494464010E1
1.549898412E1,-5.770040592E0,1.537535442E0,2.994240320E1,3.053203061E1
1.550895412E1,-5.702112903E0,2.440307824E0,2.448250244E1,2.525593236E1
1.551892313E1,-4.708986129E0,2.783772833E0,1.891501641E1,1.969014442E1
1.552889312E1,-2.422771001E0,2.191844282E0,1.306115247E1,1.346356954E1
1.553886312E1,9.973673214E-1,1.057922110E0,6.496271208E0,6.656987334E0
1.554883312E1,4.034379995E0,4.039636642E-2,3.412961304E-2,4.034726588E0
1.555880313E1,5.890172807E0,-5.680213326E-1,-5.738623502E0,8.243093086E0
1.556877212E1,6.958073775E0,-8.732331258E-1,-1.010905701E1,1.230326625E1
1.557874212E1,7.412555628E0,-1.353671354E0,-1.329685608E1,1.528348091E1
1.558871212E1,7.159374114E0,-2.152752137E0,-1.517358894E1,1.691534158E1
1.559868213E1,6.464323776E0,-2.974386509E0,-1.611333122E1,1.761459338E1
1.560865212E1,5.494856590E0,-3.665522721E0,-1.654066913E1,1.781076194E1
1.561862112E1,4.474126865E0,-4.095064738E0,-1.645765504E1,1.753971994E1
1.562859112E1,3.514387692E0,-4.328198488E0,-1.598701967E1,1.693130299E1
1.563856113E1,2.751203550E0,-4.470929607E0,-1.528616070E1,1.616245778E1
1.564853112E1,2.256757732E0,-4.658948581E0,-1.501180817E1,1.587933065E1
1.565850112E1,1.924511776E0,-5.128488184E0,-1.499797717E1,1.596698017E1
1.566847012E1,1.564596210E0,-5.625521979E0,-1.475580187E1,1.586909410E1
1.567844013E1,1.160585768E0,-6.059939697E0,-1.450383365E1,1.576169468E1
1.568841012E1,8.374679004E-1,-6.551433256E0,-1.405478971E1,1.552931885E1
1.569838012E1,5.571895118E-1,-6.956948771E0,-1.337181504E1,1.508360149E1
1.570835012E1,3.762083933E-1,-7.248816633E0,-1.267737164E1,1.460830679E1
1.571831913E1,1.937840357E-1,-7.500176155E0,-1.224070626E1,1.435705695E1
1.572828912E1,2.845869094E-2,-7.634447522E0,-1.190538481E1,1.414297657E1
1.573825912E1,-1.888328328E-1,-7.610328927E0,-1.138602108E1,1.369650468E1
1.574822912E1,-5.698626208E-1,-7.473490632E0,-1.091228435E1,1.323841967E1
1.575819913E1,-7.006886624E-1,-7.328652762E0,-1.031176712E1,1.267014826E1
1.576816812E1,-7.748741877E-1,-7.264795904E0,-9.703623360E0,1.214652196E1
1.577813812E1,-7.568717802E-1,-7.164989780E0,-9.039762654E0,1.155972501E1
1.578810812E1,-7.238930453E-1,-7.032504153E0,-8.200276149E0,1.082703398E1
1.579807813E1,-8.384151493E-1,-6.869489043E0,-7.623133160E0,1.029587193E1
1.580804812E1,-1.075760795E0,-6.632090918E0,-7.174863973E0,9.829575996E0
1.581801712E1,-1.178745904E0,-6.270892035E0,-6.913699256E0,9.408122353E0
1.582798712E1,-1.317909783E0,-5.836676046E0,-6.855130035E0,9.099257182E0
1.583795713E1,-1.467299857E0,-5.285943176E0,-6.889756077E0,8.806980353E0
1.584792712E1,-1.713571571E0,-4.214629773E0,-6.572324772E0,7.993427586E0
1.585789712E1,-2.137230850E0,-2.663876846E0,-5.807611291E0,6.737384097E0
1.586786612E1,-2.605877437E0,-8.035272986E-1,-4.197362945E0,5.005407978E0
1.587783613E1,-2.877036215E0,1.405058439E0,-1.649559177E0,3.601745699E0
1.588780612E1,-2.981119578E0,3.760746675E0,1.343017142E0,4.983370800E0
1.589777612E1,-2.533218766E0,5.788085099E0,5.434194651E0,8.333642537E0
1.590774612E1,-1.195800917E0,6.948394879E0,1.081164207E1,1.290742947E1
1.591771513E1,1.144551241E0,6.812828354E0,1.763979247E1,1.894431065E1
1.592768512E1,4.486748372E0,5.146245593E0,2.480386073E1,2.572637289E1
1.593765512E1,8.285007566E0,2.354029819E0,2.997120659E1,3.118422728E1
1.594762512E1,1.082969594E1,2.804956126E-1,3.280991518E1,3.455215660E1
1.595759513E1,1.216512281E1,-1.002050064E0,3.551363261E1,3.755279509E1
1.596756412E1,1.252801271E1,-1.453505252E0,3.672286956E1,3.882824910E1
1.597753412E1,1.232516110E1,-1.076053522E0,3.636806987E1,3.841489286E1
1.598750412E1,1.200405892E1,-3.655829792E-1,3.320286678E1,3.530809318E1
1.599747413E1,1.088551580E1,7.233809023E-1,2.780112476E1,2.986503427E1
1.600744412E1,9.144650009E0,1.851750632E0,2.180918585E1,2.372117601E1
1.601741312E1,7.153828030E0,2.779754919E0,1.598885101E1,1.773549124E1
1.602738312E1,5.266488320E0,3.262323580E0,1.093367580E1,1.256677846E1
1.603735313E1,3.791705927E0,3.102508652E0,6.635511539E0,8.248188114E0
1.604732312E1,2.866146653E0,2.502242264E0,2.997352910E0,4.843566604E0
1.605729312E1,2.298044337E0,1.745014534E0,1.338018358E-2,2.885526387E0
1.606726212E1,1.796453367E0,9.720646651E-1,-2.372899514E0,3.130943391E0
1.607723213E1,1.598408612E0,2.500842440E-1,-4.454473203E0,4.739175428E0
1.608720212E1,1.566873847E0,-3.698127088E-1,-6.319789960E0,6.521625582E0
1.609717212E1,1.497471344E0,-1.037129411E0,-8.025311084E0,8.229439583E0
1.610714212E1,1.464977197E0,-1.884819852E0,-9.499370177E0,9.794730104E0
1.611711113E1,1.501536913E0,-2.489671335E0,-1.096431521E1,1.134324841E1
1.612708112E1,1.588771816E0,-2.733496134E0,-1.239272568E1,1.278967735E1
1.613705112E1,1.594427827E0,-3.058175647E0,-1.374413182E1,1.417024340E1
1.614702112E1,1.434401083E0,-3.467157977E0,-1.464949481E1,1.512238041E1
1.615699113E1,1.251182381E0,-3.684548391E0,-1.505061615E1,1.554549454E1
1.616696012E1,1.034547573E0,-3.918613896E0,-1.527119651E1,1.579985020E1
1.617693012E1,9.330798166E-1,-4.147851647E0,-1.509775757E1,1.568494803E1
1.618690012E1,8.420623501E-1,-4.309883839E0,-1.482587490E1,1.546255911E1
1.619687013E1,6.800183165E-1,-4.597917683E0,-1.462710115E1,1.534781287E1
1.620684012E1,4.496039598E-1,-4.938406312E0,-1.420679393E1,1.504735839E1
1.621680912E1,1.819258824E-1,-5.292996088E0,-1.381004982E1,1.479075322E1
1.622677912E1,2.820112109E-2,-5.747990742E0,-1.342053638E1,1.459969142E1
1.623674913E1,-6.622176379E-2,-6.230086656E0,-1.294526417E1,1.436656638E1
1.624671912E1,-7.548346102E-2,-6.700099298E0,-1.243907305E1,1.412896198E1
1.625668912E1,-1.082348853E-2,-7.127367625E0,-1.205968465E1,1.400840748E1
1.626665812E1,-9.556401470E-3,-7.489597372E0,-1.170545681E1,1.389647003E1
1.627662813E1,-9.902844429E-3,-7.893114894E0,-1.133561341E1,1.381294654E1
1.628659812E1,-5.589236498E-2,-8.201240939E0,-1.101202732E1,1.373055799E1
1.629656812E1,-4.190369090E-1,-8.368078959E0,-1.069305002E1,1.358461100E1
1.630653812E1,-7.954810913E-1,-8.508852430E0,-1.020857896E1,1.331346853E1
1.631650713E1,-1.128098492E0,-8.595480684E0,-9.719639468E0,1.302406564E1
1.632647712E1,-1.626401572E0,-8.472925968E0,-8.980336232E0,1.245319619E1
1.633644712E1,-1.976277614E0,-7.712093284E0,-8.063313893E0,1.133133209E1
1.634641712E1,-2.233989259E0,-6.553739398E0,-7.277269185E0,1.004494176E1
1.635638713E1,-2.424346241E0,-5.262078350E0,-6.244681306E0,8.518389981E0
1.636635612E1,-2.566474512E0,-3.487056051E0,-4.625396672E0,6.335664583E0
1.637632612E1,-2.809100633E0,-8.896541539E-1,-2.369557246E0,3.781181352E0
1.638629612E1,-2.989533136E0,2.024218351E0,1.112538612E0,3.777897625E0
1.639626613E1,-3.021582018E0,4.717848461E0,5.382284825E0,7.768979465E0
1.640623612E1,-2.150875912E0,7.091489110E0,1.002506293E1,1.246665038E1
1.641620512E1,-1.382365103E-1,7.693416692E0,1.638879355E1,1.810525680E1
1.642617512E1,3.254230449E0,6.594046009E0,2.345693589E1,2.458249988E1
1.643614513E1,7.374114279E0,4.457250338E0,2.973375350E1,3.095707898E1
1.644611512E1,1.073756370E1,1.996629141E0,3.301300301E1,3.477269288E1
1.645608512E1,1.175705849E1,1.614237609E0,3.420951641E1,3.620946286E1
1.646605412E1,1.086674857E1,2.371737380E0,3.415992969E1,3.592509094E1
1.647602413E1,1.009480618E1,3.035180302E0,3.219395311E1,3.387577377E1
1.648599412E1,9.539370979E0,3.790886732E0,2.853108181E1,3.032149485E1
1.649596412E1,8.609754322E0,4.214397931E0,2.414949181E1,2.598243588E1
1.650593412E1,7.268646296E0,4.461331695E0,1.956476486E1,2.134283776E1
1.651590313E1,5.622893071E0,4.451919140E0,1.524514365E1,1.684787570E1
1.652587312E1,4.030826642E0,4.194393729E0,1.099786888E1,1.244160850E1
1.653584312E1,2.757593095E0,3.669310255E0,6.966552823E0,8.342722317E0
1.654581312E1,2.067936374E0,3.024342488E0,3.454152015E0,5.035292889E0
1.655578313E1,1.709568859E0,2.387741210E0,3.014666516E-1,2.952086704E0
1.656575212E1,1.531821105E0,1.870145095E0,-2.434736159E0,3.431014243E0
1.657572212E1,1.557656296E0,1.362688345E0,-4.838388519E0,5.262434430E0
1.658569212E1,1.764279209E0,8.098446304E-1,-6.811462444E0,7.082693702E0
