"Time (s)","Linear Acceleration x (m/s^2)","Linear Acceleration y (m/s^2)","Linear Acceleration z (m/s^2)","Absolute acceleration (m/s^2)"
9.828333332E-3,-9.789925339E0,-8.555043679E-1,1.799400803E0,9.990614051E0
1.979733333E-2,-9.811460634E0,-1.755319521E-1,2.700183377E0,1.017774835E1
2.976733333E-2,-9.832018275E0,4.295542958E-1,3.173875965E0,1.034053136E1
3.973733333E-2,-1.002429578E1,7.804749432E-1,3.715168798E0,1.071905435E1
4.970633333E-2,-9.960666375E0,1.136086519E0,4.044188407E0,1.081022789E1
5.967633333E-2,-9.942165785E0,1.671598502E0,4.369629227E0,1.098792800E1
6.964633333E-2,-9.998549316E0,2.080337880E0,4.497219273E0,1.115902215E1
7.961533333E-2,-9.879504683E0,2.299558473E0,4.398025353E0,1.105600330E1
8.958533333E-2,-9.762002546E0,2.283763390E0,4.238174756E0,1.088459435E1
9.955533333E-2,-9.765142500E0,2.259286945E0,4.233770049E0,1.088058796E1
1.095253333E-1,-9.766732943E0,2.406575091E0,4.019258218E0,1.083213334E1
1.194943333E-1,-9.696067588E0,2.499869463E0,3.772491977E0,1.070022288E1
1.294643333E-1,-9.628829286E0,2.595147504E0,3.882439511E0,1.070151767E1
1.394343333E-1,-9.661904646E0,2.674678407E0,4.011566791E0,1.079810048E1
1.494033333E-1,-9.777501760E0,2.774126097E0,4.236343408E0,1.101099095E1
1.593733333E-1,-9.908195801E0,2.872634724E0,4.567080637E0,1.128195904E1
1.693434167E-1,-1.004860031E1,2.766590498E0,4.791854038E0,1.147127963E1
1.793124167E-1,-1.013332764E1,2.719635017E0,5.032184542E0,1.163630632E1
1.892824167E-1,-1.020080684E1,2.737896456E0,5.137825602E0,1.174520282E1
1.992524167E-1,-1.025536604E1,2.661168123E0,5.110892158E0,1.176331446E1
2.092214167E-1,-1.024564680E1,2.404030675E0,4.982301360E0,1.164370941E1
2.191914167E-1,-1.022549262E1,2.108571161E0,4.802383119E0,1.149215625E1
2.291614167E-1,-1.018228287E1,1.700176769E0,4.613171314E0,1.130711435E1
2.391314167E-1,-1.012643494E1,1.102753882E0,4.279683848E0,1.104882096E1
2.491004167E-1,-9.846049254E0,3.934626496E-1,3.739623900E0,1.053965302E1
2.590704167E-1,-9.264903261E0,-2.430041429E-1,3.078694989E0,9.766055820E0
2.690404167E-1,-8.548810548E0,-1.232241934E0,1.954722731E0,8.855592748E0
2.790094167E-1,-7.439946325E0,-2.692795128E0,-1.183154851E-2,7.912274446E0
2.889794167E-1,-5.333979222E0,-5.545184160E0,-4.349427974E0,8.838434557E0
2.989494167E-1,7.071268854E0,-2.005663966E1,-1.852906042E1,2.820634180E1
3.089194167E-1,5.121219744E1,-3.350549060E1,-1.504095538E1,6.302013492E1
3.188884167E-1,7.108277168E1,-1.724186723E1,3.020607287E0,7.320632816E1
3.288584167E-1,6.671639847E1,-1.575274161E1,-2.353724623E1,7.247916013E1
3.388284167E-1,4.841068415E1,-9.409100862E0,-4.256345914E1,6.514425204E1
3.487974167E-1,2.787030434E1,-1.825659332E0,-1.682867023E1,3.260814373E1
3.587674167E-1,1.555080685E1,7.747436486E-1,-7.368671690E0,1.722571171E1
3.687374167E-1,9.833903418E0,1.779676536E0,-5.261488366E0,1.129407654E1
3.787074167E-1,6.453216405E0,2.911670735E0,-2.257214984E0,7.430803989E0
3.886764167E-1,3.534060649E0,2.183854793E0,-5.941484463E-1,4.196643755E0
3.986464167E-1,7.668974161E-2,2.070308882E0,-8.762135978E-1,2.249402243E0
4.086164167E-1,-2.680306352E0,3.024973987E0,-1.475713124E0,4.302585152E0
4.185854167E-1,-4.804315624E0,4.707136654E0,-1.207601914E0,6.833512017E0
4.285554167E-1,-6.775437748E0,5.416047817E0,-1.940187284E-1,8.676276500E0
4.385254167E-1,-8.050849968E0,5.025478370E0,7.021816758E-1,9.516547544E0
4.484944167E-1,-8.981213899E0,4.393342903E0,1.093349805E0,1.005778697E1
4.584644167E-1,-9.496084626E0,3.815007666E0,1.023617080E0,1.028482857E1
4.684344167E-1,-9.843179440E0,2.903815001E0,7.332104373E-1,1.028872784E1
4.784044167E-1,-1.004374595E1,2.281793024E0,5.822856152E-1,1.031612663E1
4.883734167E-1,-1.013149161E1,1.983077926E0,5.925638509E-1,1.034073751E1
4.983434167E-1,-1.013775047E1,1.923211647E0,7.165692616E-1,1.034341332E1
5.083134167E-1,-1.013944850E1,1.936887115E0,7.778048122E-1,1.035204946E1
5.182824167E-1,-1.014167278E1,1.925189029E0,8.561050232E-1,1.035822357E1
5.282524167E-1,-1.008426482E1,1.865873850E0,8.491573615E-1,1.029052722E1
5.382224167E-1,-1.008832162E1,1.826162778E0,8.911766227E-1,1.029093287E1
5.481924167E-1,-1.018237876E1,1.704744906E0,1.004470958E0,1.037284697E1
5.581614167E-1,-1.018638410E1,1.568654909E0,1.125148279E0,1.036769299E1
5.681314167E-1,-1.027615523E1,1.625032446E0,1.308508630E0,1.048581383E1
5.781014167E-1,-1.044683897E1,1.862907704E0,1.372171067E0,1.069998705E1
5.880704167E-1,-1.048688304E1,1.859290909E0,1.380956947E0,1.073958661E1
5.980404167E-1,-1.058236924E1,1.742278037E0,1.516902226E0,1.083157716E1
6.080104167E-1,-1.064408309E1,1.590652280E0,1.658685511E0,1.088934880E1
6.179804167E-1,-1.068897217E1,1.398348467E0,1.674594616E0,1.090934332E1
6.279494167E-1,-1.078227034E1,1.223430400E0,1.589525960E0,1.096725711E1
6.379194167E-1,-1.079629664E1,1.024547007E0,1.455645772E0,1.094205750E1
6.478894167E-1,-1.068111117E1,1.100411780E0,1.242219915E0,1.080926234E1
6.578584167E-1,-1.065711069E1,1.068271316E0,1.160330683E0,1.077318798E1
6.678284167E-1,-1.068571644E1,7.698166385E-1,1.461077689E0,1.081258070E1
6.777984167E-1,-1.057857323E1,6.076309562E-1,1.694378085E0,1.073062645E1
6.877674167E-1,-1.044914745E1,4.481656909E-1,1.768744143E0,1.060726123E1
6.977374167E-1,-1.038581976E1,4.072448292E-1,1.842493905E0,1.055584598E1
7.077074167E-1,-1.030926685E1,3.477137420E-1,1.890828305E0,1.048699764E1
7.176774167E-1,-1.020279373E1,3.317175141E-1,1.902569514E0,1.038396876E1
7.276464167E-1,-1.009856126E1,3.749120656E-1,1.905568990E0,1.028361278E1
7.376164167E-1,-9.802805001E0,4.253846464E-1,1.841452077E0,9.983330293E0
7.475864167E-1,-9.345877842E0,2.273610869E-1,1.764560022E0,9.513716297E0
7.575554167E-1,-9.307117819E0,2.047922963E-1,1.849165578E0,9.491248354E0
7.675254167E-1,-9.098568102E0,1.982214877E-1,1.974160337E0,9.312386499E0
7.774954167E-1,-8.377056774E0,1.217182723E-1,1.767810635E0,8.562420801E0
7.874654167E-1,-1.437402313E0,8.806576279E0,3.744629994E-1,8.930964881E0
7.974344167E-1,3.383313348E1,3.800226373E1,9.783034980E-2,5.088086615E1
8.074044167E-1,6.939966235E1,-4.375136427E0,1.607822044E0,6.955602091E1
8.173744167E-1,6.942856630E1,-3.049544689E1,-1.737605089E0,7.585062539E1
8.273434167E-1,5.752973505E1,2.933621183E-2,-3.636165898E0,5.764453988E1
8.373134167E-1,2.175801335E1,3.841274529E0,-1.289528568E0,2.213209025E1
8.472834167E-1,8.173938535E0,1.253739661E0,-1.034286933E0,8.333959670E0
8.572534167E-1,6.947136558E0,-7.257410578E-1,-8.124077573E-1,7.032027645E0
8.672224167E-1,3.567349432E0,3.422762699E-2,-9.970530336E-1,3.704223030E0
8.771924167E-1,2.615109898E0,1.694890740E-1,-1.213610074E-1,2.623405195E0
8.871624167E-1,2.400490186E0,5.887551208E-1,8.854717867E-1,2.625461105E0
8.971324167E-1,1.286758157E0,5.579438026E-1,8.571747713E-1,1.643714218E0
9.071014167E-1,-4.747377777E-1,2.830539156E-1,2.252650794E-1,5.968583021E-1
9.170714167E-1,-2.072140376E0,2.653359021E-1,-1.516743986E-1,2.094558188E0
9.270414167E-1,-3.676300017E0,4.929992900E-1,-6.603927219E-1,3.767538807E0
9.370104167E-1,-5.498121091E0,6.701684625E-1,-1.031651155E0,5.634071831E0
9.469804167E-1,-7.158578893E0,5.131330077E-1,-9.640924251E-1,7.241410875E0
9.569504167E-1,-8.003838939E0,-7.783923843E-1,-2.437318472E-1,8.045292890E0
9.669204167E-1,-8.255979649E0,-2.518778774E0,2.030863711E0,8.867347624E0
9.768894167E-1,-8.979128197E0,-4.632232945E0,3.626496942E0,1.073470099E1
9.868594167E-1,-9.898533862E0,-5.713426681E0,9.492416668E-1,1.146844701E1
9.968294167E-1,-1.002653643E1,-4.506050908E0,-1.998989954E0,1.117281918E1
1.006798417E0,-1.056192387E1,-3.647247541E0,-2.301515390E0,1.140848910E1
1.016768417E0,-1.083374455E1,-3.652778130E0,-2.313702157E0,1.166473432E1
1.026738417E0,-1.116726505E1,-3.654841612E0,-1.879763911E0,1.189954572E1
1.036708417E0,-1.169351446E1,-3.689930169E0,-1.492018669E0,1.235232710E1
1.046677417E0,-1.219993947E1,-3.838010613E0,-1.345629094E0,1.285999869E1
1.056647417E0,-1.290906172E1,-4.064685529E0,-6.055014002E-1,1.354740473E1
1.066617417E0,-1.354385416E1,-4.389316510E0,1.925651836E-1,1.423865044E1
1.076586417E0,-1.392105921E1,-4.471149462E0,7.548872352E-1,1.464093309E1
1.086556417E0,-1.400008433E1,-4.380304781E0,9.596801162E-1,1.470069445E1
1.096526417E0,-1.379979381E1,-4.342094396E0,7.324286646E-1,1.448532169E1
1.106496417E0,-1.358146228E1,-4.341388345E0,6.769941366E-1,1.427452597E1
1.116465417E0,-1.344677752E1,-4.103646989E0,7.523249853E-1,1.407912416E1
1.126435417E0,-1.280358496E1,-3.274747159E0,5.058607159E-1,1.322541689E1
1.136405417E0,-1.212424492E1,-1.612514289E0,-1.747580731E-1,1.223225481E1
1.146374417E0,-1.136603530E1,-3.296256727E-1,-1.209838035E0,1.143499539E1
1.156344417E0,-1.086680938E1,6.779693060E-1,-1.890933409E0,1.105091932E1
1.166314417E0,-1.046152717E1,1.209000275E0,-2.253843187E0,1.076963516E1
1.176284417E0,-1.010242393E1,1.366713276E0,-2.087810914E0,1.040604771E1
1.186253417E0,-9.584707366E0,1.301332488E0,-1.569293863E0,9.799120611E0
1.196223417E0,-8.911242608E0,1.349252759E0,-8.085401165E-1,9.049003534E0
1.206193417E0,-8.061050436E0,1.417884453E0,-7.488996863E-2,8.185141352E0
1.216162417E0,-6.621475883E0,1.244008725E0,1.251947343E-1,6.738484569E0
1.226132417E0,-4.114296230E0,1.070631910E0,-8.683701793E-2,4.252202585E0
1.236102417E0,1.041203751E0,5.988832292E-1,-5.680605090E-1,1.328705805E0
1.246072417E0,5.886424157E0,-3.652077926E0,-4.067787477E0,8.033340369E0
1.256041417E0,1.411796420E1,-1.317571580E1,-1.067357177E1,2.206448582E1
1.266011417E0,3.319087064E1,-2.869990730E1,-1.303836938E1,4.577463980E1
1.275981417E0,4.996480858E1,-1.681296694E1,-1.159809843E1,5.397845720E1
1.285950417E0,5.781568728E1,9.326879654E0,-1.418072353E1,6.025559974E1
1.295920417E0,4.417726260E1,1.207609778E1,-1.840547484E1,4.935812164E1
1.305890417E0,2.922022997E1,1.332974696E0,-1.292348563E1,3.197835427E1
1.315860417E0,2.179058234E1,-3.808547370E-1,-5.568989929E0,2.249418098E1
1.325829417E0,1.600177336E1,-6.616887572E-1,-2.192153893E0,1.616478028E1
1.335799417E0,1.260853121E1,-1.052334145E0,-5.444588808E-1,1.266407919E1
1.345769417E0,1.168809526E1,-5.755236027E-1,6.607833159E-1,1.172089727E1
1.355739417E0,8.126318811E0,-8.894009694E-2,1.025793414E0,8.191289269E0
1.365708417E0,4.698938273E0,4.137081952E-1,7.309791398E-1,4.773416582E0
1.375678417E0,1.746313639E0,5.994202960E-1,3.753187394E-1,1.884086032E0
1.385648417E0,-1.532612525E0,5.606032625E-1,2.599683774E-1,1.652501355E0
1.395617417E0,-4.157852139E0,4.750215138E-1,2.145390201E-1,4.190394593E0
1.405587417E0,-6.215729402E0,2.677853007E-1,7.666582650E-1,6.268553730E0
1.415557417E0,-7.765315225E0,1.822099840E-1,1.674751321E0,7.945949472E0
1.425527417E0,-8.744878213E0,2.926048308E-1,2.141779545E0,9.008092594E0
1.435496417E0,-9.344128355E0,4.668690334E-1,2.047338826E0,9.577175872E0
1.445466417E0,-9.772138694E0,6.376594783E-1,1.627769528E0,9.927282503E0
1.455436417E0,-1.003967629E1,8.373187233E-1,1.104865311E0,1.013493611E1
1.465405417E0,-1.008719194E1,8.421470616E-1,7.881736797E-1,1.015292424E1
1.475375417E0,-1.002625693E1,7.629718879E-1,6.194791692E-1,1.007430934E1
1.485345417E0,-1.010257128E1,7.111184871E-1,2.926496351E-1,1.013179549E1
1.495315417E0,-1.027210779E1,5.051775784E-1,1.198907250E-1,1.028522127E1
1.505284417E0,-1.045945492E1,3.656801160E-1,8.260595441E-2,1.046617136E1
1.515254417E0,-1.067525343E1,1.726880857E-1,1.291375118E-1,1.067743103E1
1.525224417E0,-1.084489402E1,-1.673812258E-1,2.543983197E-1,1.084916869E1
1.535194417E0,-1.096976248E1,-5.063890484E-1,3.197865629E-1,1.098609950E1
1.545163417E0,-1.096997064E1,-8.791122088E-1,3.553949368E-1,1.101087643E1
1.555133417E0,-1.103361291E1,-1.276650075E0,2.569079447E-1,1.111019581E1
1.565103417E0,-1.104779825E1,-1.627235970E0,2.459111045E-1,1.116970077E1
1.575072417E0,-1.101851189E1,-2.058497068E0,2.738543268E-1,1.121249350E1
1.585042417E0,-1.105075577E1,-2.577105335E0,2.291827869E-1,1.134959029E1
1.595012417E0,-1.105940731E1,-3.095977604E0,2.408526234E-1,1.148710483E1
1.604982417E0,-1.109920346E1,-3.410693169E0,4.544560159E-1,1.162031306E1
1.614951417E0,-1.117324792E1,-3.600218385E0,7.537229083E-1,1.176312628E1
1.624921417E0,-1.123241941E1,-3.653983241E0,1.033433313E0,1.185693146E1
1.634891417E0,-1.129170550E1,-3.588384790E0,9.931156647E-1,1.188971813E1
1.644860417E0,-1.128784283E1,-3.317667477E0,6.781121242E-1,1.178482708E1
1.654830417E0,-1.109294694E1,-2.960689991E0,5.788042561E-1,1.149583279E1
1.664800417E0,-1.093332965E1,-2.425565093E0,3.988625167E-1,1.120625515E1
1.674770417E0,-1.073157732E1,-1.944352986E0,3.531741643E-1,1.091201138E1
1.684739417E0,-1.025790607E1,-1.779999156E0,5.538704860E-1,1.042591994E1
1.694709417E0,-9.535102512E0,-1.840483632E0,8.130003726E-1,9.745077194E0
1.704679417E0,-8.667211987E0,-2.084087115E0,1.082859900E0,8.979786650E0
1.714649417E0,-7.606751601E0,-2.727514140E0,1.488540891E0,8.216918965E0
1.724618417E0,-4.931119512E0,-4.007280782E0,2.409208385E0,6.795478199E0
1.734588417E0,3.973322200E0,-9.365082437E0,3.896894413E0,1.089393613E1
1.744558417E0,2.469180469E1,-2.009255560E1,4.218238674E0,3.211214018E1
1.754527417E0,5.812056111E1,-1.145476095E1,-1.957313340E0,5.927092245E1
1.764497417E0,7.019357858E1,5.085328131E0,-1.339576407E1,7.164108828E1
1.774467417E0,6.176597730E1,5.870010438E0,-1.749653218E1,6.446411105E1
1.784437417E0,3.011089657E1,2.122395660E-1,-3.652889812E0,3.033240415E1
1.794406417E0,1.526540192E1,-9.206844503E-1,1.585644432E0,1.537512354E1
1.804376417E0,1.212329066E1,-1.689801835E-1,2.696277437E0,1.242065388E1
1.814346417E0,9.669741669E0,8.014840622E-1,3.011948730E0,1.015963168E1
1.824316417E0,7.471577423E0,1.569284215E0,3.278442600E0,8.308748884E0
1.834285417E0,5.536470639E0,3.121891587E0,4.097835149E0,7.562470967E0
1.844255417E0,4.499977990E0,3.407853177E0,2.208834829E0,6.061535819E0
1.854225417E0,2.960748171E0,3.901423666E0,6.082274453E-1,4.935288946E0
1.864195417E0,4.610856986E-1,2.325019589E0,-5.993512988E-1,2.444900425E0
1.874164417E0,-1.514221863E0,1.921082384E0,-1.329387721E0,2.784007379E0
1.884134417E0,-3.346756205E0,1.990956757E0,-1.280696933E0,4.099374408E0
1.894104417E0,-6.004281805E0,2.065624970E0,-1.883605532E0,6.623154559E0
1.904073417E0,-9.527396466E0,2.573359901E0,-1.040213583E1,1.433868524E1
1.914043417E0,-1.341161938E1,3.985510721E0,-2.925914670E1,3.243229094E1
1.924013417E0,-1.454665398E1,4.511779133E0,-2.853062105E1,3.234126823E1
1.933983417E0,-1.209947261E1,3.037703961E0,-7.623745948E0,1.462006789E1
1.943952417E0,-1.037187532E1,2.084581351E0,1.677434901E0,1.071144551E1
1.953922417E0,-1.010191873E1,1.839093749E0,2.370266806E0,1.053798807E1
1.963892417E0,-9.966603638E0,1.894106985E0,2.539726132E0,1.045806092E1
1.973861417E0,-9.952592540E0,1.900644611E0,2.658291585E0,1.047535500E1
1.983831417E0,-1.004904119E1,1.854661376E0,2.958397590E0,1.063837929E1
1.993801417E0,-1.012007083E1,1.927803319E0,3.056386399E0,1.074587163E1
2.003771417E0,-1.014882744E1,1.930463656E0,2.892044556E0,1.072796859E1
2.013740417E0,-1.012400951E1,1.916374790E0,2.682668335E0,1.064728934E1
2.023710417E0,-1.011453702E1,1.884076525E0,2.521499484E0,1.059299595E1
2.033680417E0,-1.014743463E1,1.814270564E0,2.388720180E0,1.058149287E1
2.043650417E0,-1.018141748E1,1.795867622E0,2.248746754E0,1.058032440E1
2.053619417E0,-1.024186365E1,1.766540912E0,2.173077059E0,1.061784827E1
2.063589417E0,-1.050126719E1,1.762320246E0,2.203938225E0,1.087380931E1
2.073559417E0,-1.083976017E1,1.517671866E0,2.478868604E0,1.122267873E1
2.083528417E0,-1.111806892E1,1.114655597E0,3.122366381E0,1.160185698E1
2.093498417E0,-1.114403056E1,1.001528200E0,3.385581132E0,1.168993736E1
2.103468417E0,-1.089989410E1,9.573847917E-1,2.986126256E0,1.134201160E1
2.113438417E0,-1.068137897E1,7.554880366E-1,2.576220067E0,1.101360653E1
2.123407417E0,-1.054274968E1,5.777254448E-1,2.306748940E0,1.080760973E1
2.133377417E0,-1.046484488E1,4.019493349E-1,2.114353326E0,1.068386782E1
2.143347417E0,-1.038869192E1,2.107109211E-1,1.975817731E0,1.057701161E1
2.153317417E0,-1.033464259E1,4.669120470E-2,1.823229814E0,1.049434060E1
2.163286417E0,-1.027238612E1,-9.150715252E-2,1.689930839E0,1.041086723E1
2.173256792E0,-1.021511030E1,-1.655814528E-1,1.565097317E0,1.033563860E1
2.183226792E0,-1.009813208E1,-2.594307259E-1,1.392847845E0,1.019703883E1
2.193195792E0,-9.451888447E0,-6.843107575E-1,1.217230085E0,9.554481959E0
2.203165792E0,-8.841097655E0,-9.177158189E-1,8.748628910E-1,8.931550546E0
2.213135792E0,-5.356143093E0,-8.967310390E-1,-5.149454983E-1,5.455049427E0
2.223105792E0,3.368292319E1,4.592935855E0,-1.515214720E0,3.402837419E1
2.233074792E0,7.056674788E1,-1.061792265E1,1.069967608E1,7.215877809E1
2.243044792E0,6.846342021E1,-1.646286491E1,8.139865640E0,7.088387151E1
2.253014792E0,5.642484518E1,-4.883852668E0,-2.292959744E0,5.668220916E1
2.262984792E0,2.560343473E1,-9.467159620E-1,-6.738882126E0,2.649235122E1
2.272953792E0,1.540618065E1,-1.651560971E0,-6.385769942E0,1.675876229E1
2.282923792E0,1.390087462E1,-1.174491324E0,-6.115855451E0,1.523211847E1
2.292893792E0,1.160865031E1,-3.010968152E-1,-4.583435884E0,1.248436245E1
2.302863792E0,8.560910776E0,3.356331386E-1,-2.567910004E0,8.944048563E0
2.312832792E0,5.631605422E0,3.768995342E-1,-1.116080271E0,5.753491815E0
2.322802792E0,2.765238329E0,4.178109672E-1,-3.021409817E-1,2.812898540E0
2.332772792E0,2.795202971E-2,4.391984010E-1,5.759507418E-3,4.401246679E-1
2.342741792E0,-2.798267496E0,7.637558533E-1,1.320033784E-1,2.903626849E0
2.352711792E0,-5.195985518E0,1.093943955E0,2.159681527E-1,5.314284629E0
2.362681792E0,-6.839932537E0,1.140226713E0,2.446627422E-1,6.938634875E0
2.372651792E0,-8.152184554E0,1.169629657E0,1.090482330E-1,8.236385012E0
2.382620792E0,-9.041244923E0,1.238872823E0,-5.751208026E-2,9.125909449E0
2.392590792E0,-9.384286448E0,1.229331336E0,-1.803725696E-1,9.466183071E0
2.402560792E0,-9.700511472E0,1.511981502E0,-2.212504542E-1,9.820130480E0
2.412530792E0,-9.851309409E0,1.640190768E0,-3.529215646E-1,9.993151478E0
2.422499792E0,-9.923073456E0,1.708199733E0,-4.052892280E-1,1.007718177E1
2.432469792E0,-9.948200111E0,1.788718963E0,-4.293844708E-1,1.011684595E1
2.442439792E0,-1.005983164E1,1.904437407E0,-5.123588363E-1,1.025132216E1
2.452408792E0,-1.012171039E1,1.977392532E0,-6.251364235E-1,1.033198422E1
2.462378792E0,-1.012626420E1,2.019577416E0,-7.280485153E-1,1.035132717E1
2.472348792E0,-1.013951867E1,2.010479440E0,-8.114689869E-1,1.036871971E1
2.482318792E0,-1.026157696E1,2.101258340E0,-9.725358045E-1,1.051955675E1
2.492287792E0,-1.040530853E1,2.168001384E0,-9.207628030E-1,1.066857440E1
2.502257792E0,-1.036764545E1,2.260799620E0,-1.027684477E0,1.066092972E1
2.512227792E0,-1.035686669E1,2.298980622E0,-1.145476636E0,1.067061930E1
2.522197792E0,-1.040502085E1,2.287109166E0,-1.167917665E0,1.071724586E1
2.532166792E0,-1.033149211E1,2.390633681E0,-1.113575397E0,1.066278148E1
2.542136792E0,-1.025449949E1,2.447617575E0,-1.158292490E0,1.060599986E1
2.552106792E0,-1.019176003E1,2.547150049E0,-1.079059283E0,1.056050732E1
2.562075792E0,-1.008833448E1,2.621762860E0,-1.001386624E0,1.047143296E1
2.572045792E0,-9.915734031E0,2.656183079E0,-9.161857487E-1,1.030613828E1
2.582015792E0,-9.887003152E0,2.730936808E0,-8.468569207E-1,1.029213359E1
2.591985792E0,-9.856934431E0,2.823026069E0,-8.382532545E-1,1.028743413E1
2.601954792E0,-9.822183259E0,2.911253244E0,-7.824907708E-1,1.027438423E1
2.611924792E0,-9.827111292E0,2.956473564E0,-8.506447470E-1,1.029740010E1
2.621894792E0,-9.771191445E0,3.006389489E0,-1.047398291E0,1.027675061E1
2.631864792E0,-9.733481582E0,3.046342637E0,-1.086956532E0,1.025681928E1
2.641833792E0,-9.692041195E0,3.077694823E0,-9.902002430E-1,1.021706242E1
2.651803792E0,-9.556768200E0,3.134799315E0,-9.817878538E-1,1.010557730E1
2.661773792E0,-9.136343454E0,3.110201249E0,-1.211224995E0,9.726931145E0
2.671743792E0,-8.888724396E0,2.932907823E0,-1.162625862E0,9.432023568E0
2.681712792E0,-8.369382888E0,2.270049330E0,-1.407441764E0,8.785248216E0
2.691682792E0,-2.797543026E0,1.067249588E0,7.358627343E-1,3.083303850E0
2.701652792E0,2.239061660E1,-6.009185280E0,4.370877900E0,2.359140930E1
2.711621792E0,6.303907519E1,-3.919260715E1,-2.631211259E1,7.875476319E1
2.721591792E0,7.041115113E1,-3.009521667E1,-4.534961998E1,8.899460828E1
2.731561792E0,6.821358038E1,3.383260957E0,-3.718081179E1,7.776214869E1
2.741531792E0,5.099562593E1,6.174526412E0,-1.244160372E1,5.285330778E1
2.751500792E0,2.290805074E1,-4.733603199E-1,3.959675968E-1,2.291636204E1
2.761470792E0,1.021590202E1,2.749121064E-1,9.180081797E-1,1.026074898E1
2.771440792E0,5.601498109E0,8.219349182E-1,1.551745200E0,5.870287151E0
2.781410792E0,2.458195773E0,1.192745747E0,2.063467201E0,3.423925490E0
2.791379792E0,-1.072355962E-1,1.440770163E0,2.495970540E0,2.883953375E0
2.801349792E0,-2.481477047E0,1.426752779E0,2.816229558E0,4.015532436E0
2.811319792E0,-4.392943538E0,1.076609226E0,2.169304728E0,5.016265878E0
2.821289792E0,-5.714330075E0,9.903727359E-1,1.315403082E0,5.946821978E0
2.831258792E0,-6.984275149E0,1.180725333E0,2.734025015E-1,7.088650125E0
2.841228792E0,-8.119725491E0,1.298715713E0,-2.072153825E-1,8.225542095E0
2.851198792E0,-8.884925460E0,1.175519996E0,-4.484991284E-1,8.973566691E0
2.861168792E0,-9.494006526E0,1.208299633E0,-3.017041947E-1,9.575341944E0
2.871137792E0,-9.862732530E0,1.290318527E0,-3.230434620E-1,9.952023509E0
2.881107792E0,-1.005414464E1,1.343079415E0,-4.522685359E-1,1.015353306E1
2.891077792E0,-1.019186996E1,1.484757889E0,-5.235466795E-1,1.031275038E1
2.901046792E0,-1.028471439E1,1.552597870E0,-6.035683107E-1,1.041874296E1
2.911016792E0,-1.029488621E1,1.498262765E0,-7.542719619E-1,1.043064713E1
2.920986792E0,-1.030622045E1,1.489204258E0,-6.772245169E-1,1.043525478E1
2.930956792E0,-1.043273431E1,1.503154107E0,-3.108263627E-1,1.054504768E1
2.940925792E0,-1.054550722E1,1.389506161E0,-4.943367675E-2,1.063677083E1
2.950895792E0,-1.066819584E1,1.229182817E0,1.680768983E-1,1.074009044E1
2.960865792E0,-1.074627020E1,1.052662466E0,2.351362757E-1,1.080026438E1
2.970835792E0,-1.082398555E1,8.461372747E-1,2.186004230E-1,1.085920796E1
2.980804792E0,-1.092332740E1,6.712118250E-1,1.357173836E-1,1.094477163E1
2.990774792E0,-1.091927060E1,5.560729860E-1,6.364639420E-2,1.093360593E1
3.000744792E0,-1.085104997E1,5.362361607E-1,9.359521151E-2,1.086469487E1
3.010714792E0,-1.075689109E1,5.194075817E-1,9.131713629E-2,1.076981100E1
3.020683792E0,-1.059675222E1,5.438265044E-1,1.045458861E-1,1.061121269E1
3.030653792E0,-1.051556831E1,5.251656273E-1,1.946350980E-1,1.053047286E1
3.040623792E0,-1.050141688E1,4.814865609E-1,3.384239415E-1,1.051789506E1
3.050592792E0,-1.052358835E1,4.270698139E-1,3.861360884E-1,1.053932642E1
3.060562792E0,-1.045968881E1,3.451812398E-1,4.894212326E-1,1.047682076E1
3.070532792E0,-1.042478093E1,2.148758197E-1,6.404081082E-1,1.044664308E1
3.080502792E0,-1.052543724E1,3.503746636E-2,7.816839281E-1,1.055448182E1
3.090471792E0,-1.066752224E1,-1.857756161E-1,8.812222496E-1,1.070547038E1
3.100441792E0,-1.084338310E1,-3.910652181E-1,9.628493802E-1,1.089306972E1
3.110411792E0,-1.107654316E1,-5.999265917E-1,9.895150224E-1,1.113682452E1
3.120381792E0,-1.121009006E1,-1.167887771E0,8.678893554E-1,1.130412814E1
3.130350792E0,-1.078979337E1,-2.130333328E0,7.310949147E-1,1.102236185E1
3.140320792E0,-1.018023868E1,-3.045291308E0,8.572918618E-1,1.066048817E1
3.150290792E0,-9.181989743E0,-4.067170596E0,1.208449979E0,1.011489810E1
3.160260792E0,-7.807651405E0,-5.513228542E0,1.799088854E0,9.725833133E0
3.170229792E0,-6.750166082E0,-6.953928684E0,2.395051106E0,9.982892170E0
3.180199958E0,-4.396029114E0,-1.224265689E1,3.474143060E0,1.346392921E1
3.190169958E0,-3.137981370E0,-1.424598431E1,4.034239662E0,1.513506147E1
3.200139958E0,2.819781391E1,-1.364167457E1,-1.118987507E0,3.134428380E1
3.210108958E0,7.073304269E1,-5.066394846E0,7.998850679E-1,7.091876692E1
3.220078958E0,6.833053405E1,1.210551863E1,-4.799915010E0,6.956036694E1
3.230048958E0,5.275141381E1,-3.577017511E0,3.013349723E0,5.295835146E1
3.240018958E0,2.472097294E1,-4.540886865E0,2.703497579E0,2.527953828E1
3.249987958E0,1.242113496E1,-1.050223958E0,2.567884276E0,1.272719897E1
3.259957958E0,5.846826228E0,7.987030533E-1,1.645204171E0,6.126173379E0
3.269927958E0,2.373068499E0,1.269755039E0,1.761465529E0,3.216596457E0
3.279896958E0,5.248753130E-2,2.066731701E0,2.179578871E0,3.004113666E0
3.289866958E0,-1.809524379E0,3.625247100E0,2.642481884E0,4.837303538E0
3.299836958E0,-3.170398918E0,3.771445910E0,2.145736356E0,5.373957393E0
3.309806958E0,-4.436045119E0,3.328538328E0,1.361632923E0,5.710666153E0
3.319775958E0,-6.028140784E0,1.770876623E0,6.720240033E-1,6.318710437E0
3.329745958E0,-7.860067016E0,1.371549070E0,1.145877390E-1,7.979657304E0
3.339715958E0,-1.065112197E1,1.811866628E0,-3.000244066E0,1.121297126E1
3.349685958E0,-1.397452381E1,2.723885943E0,-1.673497210E1,2.197194033E1
3.359654958E0,-1.680990300E1,7.215969315E0,-4.484173551E1,4.842958079E1
3.369624958E0,-1.424243973E1,5.802628879E0,-1.998343018E1,2.521616690E1
3.379594958E0,-1.095464392E1,2.458206590E0,2.231836314E0,1.144675047E1
3.389564958E0,-1.086562825E1,1.985674382E0,2.372523831E0,1.129750633E1
3.399533958E0,-1.099202049E1,1.459399246E0,3.099964236E0,1.151365011E1
3.409503958E0,-1.102507246E1,1.021185662E0,3.139234428E0,1.150868523E1
3.419473958E0,-1.116310651E1,9.518156111E-1,3.145980946E0,1.163692812E1
3.429442958E0,-1.124821274E1,9.197357395E-1,2.847984617E0,1.163955411E1
3.439412958E0,-1.110215748E1,7.706641924E-1,2.528033162E0,1.141239570E1
3.449382958E0,-1.105250994E1,6.427531341E-1,2.231134794E0,1.129376244E1
3.459352958E0,-1.104500913E1,6.008072555E-1,1.970530386E0,1.123548780E1
3.469321958E0,-1.105944123E1,5.769883302E-1,1.647270577E0,1.119632333E1
3.479291958E0,-1.104053016E1,5.523849278E-1,1.427056396E0,1.114607219E1
3.489261958E0,-1.101493222E1,5.092082834E-1,1.326022210E0,1.110614064E1
3.499231958E0,-1.095648930E1,4.296667086E-1,1.327334325E0,1.104495757E1
3.509200958E0,-1.088171978E1,3.832487698E-1,1.337062923E0,1.097025261E1
3.519170958E0,-1.083808435E1,3.108580108E-1,1.336864117E0,1.092464694E1
3.529140958E0,-1.078241769E1,2.275805219E-1,1.294993376E0,1.086228945E1
3.539110958E0,-1.071384155E1,1.641152635E-1,1.244002147E0,1.078706984E1
3.549079958E0,-1.065211366E1,1.173927945E-1,1.203524212E0,1.072053063E1
3.559049958E0,-1.056749042E1,4.013558060E-2,1.171421828E0,1.063229484E1
3.569019958E0,-1.055130415E1,-7.188274562E-3,1.195449207E0,1.061881207E1
3.578989958E0,-1.056920482E1,-3.001024961E-2,1.196777694E0,1.063678842E1
3.588958958E0,-1.055462654E1,-2.615534479E-2,1.225913273E0,1.062561475E1
3.598928958E0,-1.046156460E1,-2.291059691E-2,1.268309022E0,1.053819085E1
3.608898958E0,-1.018495270E1,-6.676497012E-2,1.065956769E0,1.024079992E1
3.618868958E0,-9.436447704E0,-3.804893226E-1,7.775780133E-1,9.476072233E0
3.628837958E0,-9.055593406E0,-4.236964821E-1,5.528919545E-1,9.082344420E0
3.638807958E0,-8.468354030E0,-4.281554226E-1,1.293067887E-2,8.479180635E0
3.648777958E0,-4.290229594E0,1.569769973E0,-1.534118622E0,4.819104448E0
3.658747958E0,4.348550424E1,3.101252553E1,-3.113304366E0,5.350194840E1
3.668716958E0,7.116581150E1,-1.148422536E0,-1.269224579E1,7.229788865E1
3.678686958E0,6.763146901E1,-3.380578722E1,-1.473699489E1,7.703262860E1
3.688656958E0,4.720428194E1,-1.799040322E0,-2.200150545E0,4.728976044E1
3.698626958E0,2.087165030E1,9.600574809E-1,-5.147077359E-2,2.089378247E1
3.708595958E0,1.324489772E1,-8.335784787E-1,-5.726552510E-1,1.328345221E1
3.718565958E0,7.712375119E0,-5.511192249E-1,3.446705220E-2,7.732118103E0
3.728535958E0,3.400779215E0,-1.201734379E-2,6.038174021E-1,3.453988874E0
3.738505958E0,8.055679768E-1,2.504194357E-1,1.040936533E0,1.339850188E0
3.748474958E0,-1.237694170E0,3.412820971E-1,1.277123700E0,1.810912829E0
3.758444958E0,-2.966488382E0,4.524864909E-1,1.045245346E0,3.177630435E0
3.768414958E0,-4.618047892E0,6.094731215E-1,5.850074941E-1,4.694683971E0
3.778383958E0,-5.929036326E0,4.805434781E-1,5.067723334E-2,5.948694140E0
3.788353958E0,-7.266812024E0,2.304788223E-1,-2.779865724E-1,7.275778585E0
3.798323958E0,-8.529835163E0,4.253346161E-1,-3.504335743E-1,8.547619618E0
3.808293958E0,-9.240744905E0,5.798912169E-1,-3.726085550E-1,9.266416641E0
3.818262958E0,-9.704610955E0,6.483898500E-1,-4.020147872E-1,9.734551816E0
3.828232958E0,-9.987928433E0,6.668027321E-1,-4.094682330E-1,1.001853305E1
3.838202958E0,-1.013682778E1,6.374377227E-1,-3.751971173E-1,1.016377770E1
3.848172958E0,-1.019056252E1,6.127363429E-1,-3.377866316E-1,1.021455384E1
3.858141958E0,-1.021682938E1,6.482259087E-1,-2.471325696E-1,1.024035517E1
3.868111958E0,-1.023390910E1,6.652036647E-1,-2.116107345E-1,1.025768836E1
3.878081958E0,-1.023170236E1,6.926765151E-1,-2.476792842E-1,1.025811284E1
3.888051958E0,-1.026982504E1,7.332928830E-1,-1.903906041E-1,1.029773147E1
3.898020958E0,-1.031116018E1,7.690273375E-1,-1.489917326E-1,1.034087161E1
3.907990958E0,-1.033970745E1,7.849677975E-1,-1.600055480E-1,1.037069556E1
3.917960958E0,-1.041113821E1,7.894893032E-1,-2.252341622E-1,1.044345836E1
3.927930958E0,-1.050340961E1,8.394517875E-1,-2.210545725E-1,1.053921998E1
3.937899958E0,-1.057566248E1,8.613710987E-1,-1.220261282E-1,1.061138481E1
3.947869958E0,-1.055903534E1,9.238257938E-1,-1.217238271E-1,1.060007067E1
3.957839958E0,-1.052742062E1,1.016950889E0,-1.721946537E-1,1.057782704E1
3.967809958E0,-1.046040100E1,1.125352201E0,-1.431398392E-1,1.052173444E1
3.977778958E0,-1.042418802E1,1.251687435E0,-2.622768581E-2,1.049910021E1
3.987748958E0,-1.043158943E1,1.364452889E0,-1.320061558E-1,1.052127442E1
3.997718958E0,-1.042663801E1,1.479974136E0,-2.644701487E-1,1.053446952E1
4.007688958E0,-1.038456144E1,1.593170968E0,-2.801254839E-1,1.050979450E1
4.017657958E0,-1.036974460E1,1.693590611E0,-3.457306588E-1,1.051281988E1
4.027627958E0,-1.051205413E1,1.756094277E0,-4.693799740E-1,1.066805825E1
4.037597958E0,-1.077991274E1,1.792720943E0,-4.736922956E-1,1.093822433E1
4.047566958E0,-1.111231760E1,1.792885543E0,-3.947022593E-1,1.126294059E1
4.057536958E0,-1.153906728E1,1.771452281E0,-2.585972418E-1,1.167711391E1
4.067506958E0,-1.059808539E1,9.952963838E-1,-3.244234415E-1,1.064966100E1
4.077476958E0,-9.476574222E0,2.900008464E-1,-5.830077463E-1,9.498918755E0
4.087445958E0,-8.890523584E0,-4.188097447E-2,-6.719766408E-1,8.915980946E0
4.097415958E0,-8.229706939E0,-1.428137692E0,-6.132876257E-1,8.375188075E0
4.107385958E0,-7.230722424E0,-4.411126917E0,-8.461616137E-1,8.512189902E0
4.117355958E0,-5.884704491E0,-7.398564411E0,-6.531343538E-2,9.453717159E0
4.127324958E0,2.303224794E1,-3.033369186E1,4.774488392E0,3.838506280E1
4.137294958E0,7.041834555E1,-5.739502456E1,1.208743436E1,9.164626726E1
4.147264958E0,6.847709802E1,1.186369066E1,2.561789138E0,6.954439497E1
4.157234958E0,6.450870970E1,3.388607885E1,-7.229612038E0,7.322504528E1
4.167203958E0,3.744613505E1,-5.946111950E0,-3.601090790E0,3.808591777E1
4.177173083E0,1.297928912E1,-5.794043997E0,-1.920691059E0,1.434301035E1
4.187143083E0,3.984811978E0,-3.232808298E0,-1.842927768E0,5.452170096E0
4.197113083E0,4.598642153E-1,-1.680175198E0,-1.634478039E0,2.388719794E0
4.207082083E0,-2.124384663E0,-5.759936457E-1,-1.023599539E0,2.427454406E0
4.217052083E0,-4.510715817E0,4.422154181E-1,-8.175331342E-1,4.605482828E0
4.227022083E0,-6.384168389E0,9.446261671E-1,-7.821365757E-1,6.500897034E0
4.236992083E0,-7.707010884E0,1.240326295E0,-8.398091986E-1,7.851223189E0
4.246961083E0,-8.629337817E0,1.491257800E0,-9.177374536E-1,8.805200907E0
4.256931083E0,-9.186427195E0,1.626883236E0,-1.148176880E0,9.399760839E0
4.266901083E0,-9.511379773E0,1.665891912E0,-1.408459180E0,9.758345060E0
4.276871083E0,-9.695050757E0,1.702727909E0,-1.486571403E0,9.955058315E0
4.286840083E0,-9.807604396E0,1.863578087E0,-1.361876167E0,1.007555130E1
4.296810083E0,-1.001908006E1,1.902806765E0,-1.070045581E0,1.025415215E1
4.306780083E0,-1.023437688E1,1.800979405E0,-1.198735927E0,1.046054323E1
4.316750083E0,-1.038777273E1,1.725555439E0,-1.546365761E0,1.064305459E1
4.326719083E0,-1.040555763E1,1.648732673E0,-1.941484927E0,1.071276401E1
4.336689083E0,-1.046599912E1,1.518476004E0,-2.195952829E0,1.080116271E1
4.346659083E0,-1.053270650E1,1.383674002E0,-2.404726348E0,1.089197727E1
4.356629083E0,-1.064566067E1,1.326536473E0,-2.603316649E0,1.103934091E1
4.366598083E0,-1.070068765E1,1.159953977E0,-2.720997126E0,1.110198337E1
4.376568083E0,-1.075643383E1,9.484601864E-1,-2.717367759E0,1.113483422E1
4.386538083E0,-1.071140209E1,7.750098431E-1,-2.491333113E0,1.102458687E1
4.396508083E0,-1.069395400E1,4.780818734E-1,-2.313619857E0,1.095180584E1
4.406477083E0,-1.073893078E1,1.741325672E-1,-2.090865499E0,1.094196851E1
4.416447083E0,-1.079520438E1,1.541743391E-1,-1.834896618E0,1.095112108E1
4.426417083E0,-1.078812691E1,1.301414057E-1,-1.493691119E0,1.089181951E1
4.436387083E0,-1.073119257E1,-3.339907654E-2,-1.582200422E0,1.084725623E1
4.446356083E0,-1.067215675E1,-2.091477410E-1,-1.352197856E0,1.075951260E1
4.456326083E0,-1.055475284E1,-3.203696765E-1,-1.360044381E0,1.064683826E1
4.466296083E0,-1.038619866E1,-5.207982688E-1,-1.595078038E0,1.052086629E1
4.476266083E0,-1.023506334E1,-6.934357761E-1,-1.856105200E0,1.042508999E1
4.486235083E0,-1.014948115E1,-8.584361619E-1,-2.086956928E0,1.039732031E1
4.496205083E0,-1.008708786E1,-1.125450142E0,-2.209852245E0,1.038746487E1
4.506175083E0,-1.004982472E1,-1.334453895E0,-2.288271008E0,1.039307117E1
4.516145083E0,-9.981896446E0,-1.421107731E0,-2.341938508E0,1.035096516E1
4.526114083E0,-9.906886024E0,-1.448039860E0,-2.312166824E0,1.027566667E1
4.536084083E0,-9.804023561E0,-1.533950076E0,-2.241262464E0,1.017325603E1
4.546054083E0,-9.713494045E0,-1.693212881E0,-2.137279966E0,1.008894950E1
4.556024083E0,-9.391514191E0,-1.932476853E0,-2.030112490E0,9.800834776E0
4.565993083E0,-8.918603668E0,-1.965264091E0,-1.906547813E0,9.329452230E0
4.575963083E0,-6.188159196E0,7.291109544E-1,-1.658391543E0,6.447881786E0
4.585933083E0,1.384756556E1,3.056704020E1,5.789296058E0,3.405311979E1
4.595903083E0,4.108845923E1,5.409951978E1,1.886743762E1,7.050531700E1
4.605872083E0,6.124310524E1,3.287552562E0,2.951557517E0,6.140226082E1
4.615842083E0,6.960665846E1,-5.845721572E1,-1.344137352E1,9.188581770E1
4.625812083E0,5.118150657E1,-1.089683484E1,-1.503368495E1,5.444537912E1
4.635782083E0,2.332649387E1,8.499972264E0,-5.981452521E0,2.553727900E1
4.645751083E0,1.470497319E1,1.656978563E0,-2.316747533E0,1.497828875E1
4.655721083E0,1.098338883E1,-4.367818929E-1,-1.100823131E0,1.104705482E1
4.665691083E0,7.209853712E0,-2.069781317E-1,4.130683271E-1,7.224642270E0
4.675661083E0,3.333084830E0,3.321257959E-1,9.444814485E-1,3.480202183E0
4.685630083E0,4.398942196E-1,3.468052308E-1,6.916145146E-1,8.900064210E-1
4.695600083E0,-2.228323599E0,2.848124658E-1,4.729274797E-1,2.295692620E0
4.705570083E0,-4.472076831E0,9.747016132E-2,4.524955541E-1,4.495967509E0
4.715540083E0,-6.119499435E0,2.328313399E-1,3.748351016E-1,6.135387936E0
4.725509083E0,-7.519225214E0,3.335661113E-1,2.605080754E-1,7.531127315E0
4.735479083E0,-8.383047831E0,2.240581775E-1,-1.753177978E-2,8.386059883E0
4.745449083E0,-9.022723283E0,2.358632308E-1,-3.621192348E-1,9.033066879E0
4.755419083E0,-9.486872923E0,2.893575065E-1,-7.293869430E-1,9.519269454E0
4.765388083E0,-9.655137663E0,3.581466365E-1,-7.558882785E-1,9.691301223E0
4.775358083E0,-9.902390685E0,3.361032182E-1,-5.960458678E-1,9.926005104E0
4.785328083E0,-1.008406134E1,4.004345772E-1,-5.889730757E-1,1.010918049E1
4.795298083E0,-1.022045115E1,4.895043727E-1,-5.425632135E-1,1.024654142E1
4.805267083E0,-1.033506827E1,4.601314330E-1,-4.963081563E-1,1.035720420E1
4.815237083E0,-1.043711856E1,4.410905965E-1,-5.215406825E-1,1.045944594E1
4.825207083E0,-1.051080868E1,3.922868476E-1,-5.332918318E-1,1.053163749E1
4.835177083E0,-1.061374657E1,3.240360634E-1,-5.565924015E-1,1.063326905E1
4.845146083E0,-1.074185673E1,2.723419628E-1,-5.884351319E-1,1.076140846E1
4.855116083E0,-1.098206268E1,7.025224954E-2,-7.041024131E-1,1.100483514E1
4.865086083E0,-1.144998962E1,-3.639608154E-1,-8.552710640E-1,1.148765505E1
4.875056083E0,-1.206216270E1,-1.016394600E0,-9.579604501E-1,1.214275567E1
4.885025083E0,-1.265702801E1,-1.863264384E0,-1.160523788E0,1.284596932E1
4.894995083E0,-1.273905860E1,-2.777474797E0,-1.183556482E0,1.309193592E1
4.904965083E0,-1.259851726E1,-3.649973513E0,-9.324812809E-1,1.314969449E1
4.914935083E0,-1.270118852E1,-3.875864610E0,-4.659640306E-1,1.328757460E1
4.924904083E0,-1.274552445E1,-3.967756820E0,-4.100316122E-2,1.334890142E1
4.934874083E0,-1.281115594E1,-3.794954056E0,-7.469379455E-3,1.336141641E1
4.944844083E0,-1.272463352E1,-3.379950848E0,-1.219963074E-2,1.316588450E1
4.954814083E0,-1.256405728E1,-2.770148821E0,8.064991459E-2,1.286607027E1
4.964783083E0,-1.237441337E1,-1.852420577E0,-5.705201402E-2,1.251242675E1
4.974753083E0,-1.212192358E1,-9.496082872E-1,-1.584517966E-1,1.216009433E1
4.984723083E0,-1.184458429E1,-3.537556699E-1,-2.541147298E-1,1.185259020E1
4.994693083E0,-1.132661805E1,2.156511605E-1,-4.220053943E-1,1.133652815E1
5.004662083E0,-1.084974136E1,8.278619483E-1,-5.064261782E-1,1.089305790E1
5.014632083E0,-1.038424569E1,1.284727127E0,-4.418741234E-1,1.047274249E1
5.024602083E0,-9.806630250E0,1.430488565E0,-3.235504887E-1,9.915693587E0
5.034572083E0,-9.142017592E0,1.193142480E0,-2.711599481E-1,9.223535242E0
5.044541083E0,-8.511007714E0,5.565183976E-1,-3.109607756E-1,8.534849831E0
5.054511083E0,-7.589448520E0,-1.150181817E0,-8.849749196E-1,7.726954617E0
5.064481083E0,-3.618561101E0,-6.765389893E0,-2.088832422E0,7.951585108E0
5.074451083E0,3.629771383E1,-2.899912102E1,-1.074692509E0,4.647179804E1
5.084420083E0,7.093956635E1,-2.683359301E1,9.084428365E0,7.638711034E1
5.094390083E0,6.888633762E1,-2.539381205E1,-4.902304434E0,7.358128696E1
5.104360083E0,6.350768041E1,-6.408979295E0,-2.487390336E1,6.850555857E1
5.114330083E0,3.842823105E1,4.579724071E0,-2.523971219E1,4.620331033E1
5.124299083E0,2.024902007E1,2.945592772E0,-1.574584073E1,2.581919501E1
5.134269083E0,1.383679265E1,1.053034715E0,-1.004762734E1,1.713244081E1
5.144239083E0,8.655546792E0,4.525584117E-1,-6.471974273E0,1.081710453E1
5.154209083E0,4.144070252E0,8.711617497E-1,-3.869072192E0,5.736023071E0
5.164178083E0,9.189992827E-1,1.565387777E0,-2.343639024E0,2.964395798E0
5.174148167E0,-2.213102712E0,2.164085649E0,-1.407914658E0,3.400487317E0
5.184118167E0,-4.522474567E0,2.615380624E0,-1.050331693E0,5.328807436E0
5.194088167E0,-6.229403701E0,2.946392087E0,-1.456860677E0,7.043375599E0
5.204057167E0,-7.694559238E0,3.200549209E0,-1.144518789E0,8.411877339E0
5.214027167E0,-9.647015880E0,5.020811123E0,1.401030293E0,1.096523350E1
5.223997167E0,-1.046243466E1,6.102922579E0,9.413116729E-1,1.214883825E1
5.233967167E0,-9.316752276E0,4.047690889E0,-1.516970054E0,1.027068024E1
5.243936167E0,-9.213103947E0,2.901713804E0,-1.288113688E0,9.744765991E0
5.253906167E0,-9.623269168E0,2.213500323E0,-7.389442170E-1,9.902168031E0
5.263876167E0,-9.810601094E0,1.837191211E0,-2.520759518E-1,9.984323094E0
5.273846167E0,-9.830542438E0,1.457596841E0,1.228709047E-1,9.938775097E0
5.283815167E0,-9.912974145E0,1.115543277E0,6.230674593E-1,9.994984056E0
5.293785167E0,-1.002620080E1,9.098097255E-1,1.067284379E0,1.012381115E1
5.303755167E0,-1.004963527E1,7.102379695E-1,1.312488099E0,1.015983425E1
5.313725167E0,-1.004253675E1,5.297967683E-1,1.576078387E0,1.017925597E1
5.323694167E0,-1.003499033E1,3.689658858E-1,1.583623635E0,1.016587579E1
5.333664167E0,-1.004890320E1,2.337553096E-1,1.497497656E0,1.016255855E1
5.343634167E0,-1.008848417E1,1.213064638E-1,1.416349851E0,1.018814385E1
5.353604167E0,-1.009256553E1,-1.888945757E-2,1.259549601E0,1.017087513E1
5.363573167E0,-1.008917648E1,-1.470367160E-1,1.154909145E0,1.015612707E1
5.373543167E0,-1.011678937E1,-2.825301513E-1,1.086521500E0,1.017888891E1
5.383513167E0,-1.021920686E1,-3.457446921E-1,1.181819347E0,1.029312515E1
5.393483167E0,-1.029577498E1,-4.111925769E-1,1.305320728E0,1.038633352E1
5.403452167E0,-1.031911239E1,-4.870040667E-1,1.228233376E0,1.040335574E1
5.413422167E0,-1.029855943E1,-5.648875905E-1,9.350389262E-1,1.035633729E1
5.423392167E0,-1.029814661E1,-6.813337208E-1,5.901572100E-1,1.033752025E1
5.433362167E0,-1.023889678E1,-8.270706008E-1,2.941173228E-1,1.027645649E1
5.443331167E0,-1.015047050E1,-9.316965115E-1,1.429433727E-1,1.019414257E1
5.453301167E0,-1.009991665E1,-1.028376787E0,3.014474014E-2,1.015218123E1
5.463271167E0,-1.008034017E1,-1.121260977E0,-5.615140577E-2,1.014266420E1
5.473241167E0,-1.005295649E1,-1.180278094E0,-1.473685638E-1,1.012307799E1
5.483210167E0,-1.003928102E1,-1.221693557E0,-2.313018179E-1,1.011598730E1
5.493180167E0,-9.996049047E0,-1.259406929E0,-3.210343587E-1,1.008018677E1
5.503150167E0,-9.953305900E0,-1.286656708E0,-4.316262932E-1,1.004540119E1
5.513120167E0,-9.710844671E0,-1.322070808E0,-6.449460592E-1,9.821625673E0
5.523090167E0,-9.509574153E0,-1.332895027E0,-9.098023434E-1,9.645535238E0
5.533059167E0,-9.133184788E0,-1.225195601E0,-1.036326077E0,9.273086885E0
5.543029167E0,-8.362459785E0,-1.109977240E0,-9.016207731E-1,8.483849547E0
5.552999167E0,2.746578110E0,1.352030625E1,-3.959320749E-1,1.380214240E1
5.562969167E0,5.191044386E1,4.647045638E1,1.012509125E1,7.040394144E1
5.572938167E0,7.030555510E1,-2.065662947E1,3.838923948E1,8.272424751E1
5.582908167E0,6.620146927E1,-4.047823445E1,2.756032941E1,8.234496800E1
5.592878167E0,4.311029543E1,-3.007988411E0,-3.289011442E0,4.334008725E1
5.602848167E0,1.782001068E1,7.867423544E-1,-3.291688297E0,1.813854889E1
5.612817167E0,9.555009357E0,1.405251982E0,4.009644811E-1,9.666111393E0
5.622787167E0,5.634412671E0,2.384819210E0,3.620436595E0,7.109256638E0
5.632757167E0,2.414495437E0,2.168408057E0,4.395951053E0,5.464079738E0
5.642727167E0,5.149876714E-2,1.628426170E0,2.683129973E0,3.139046092E0
5.652696167E0,-1.414707515E0,9.878643534E-1,1.141469320E0,2.068870596E0
5.662666167E0,-2.845957972E0,6.847641360E-1,1.190729919E-1,2.929600156E0
5.672636167E0,-4.038071342E0,3.579340902E-1,-4.561576653E-1,4.079487320E0
5.682606167E0,-5.382778330E0,3.606819892E-1,-1.161765736E0,5.518522780E0
5.692575167E0,-6.513883606E0,4.617516234E-1,-1.743793197E0,6.759046450E0
5.702545167E0,-7.476530015E0,5.658475571E-1,-2.134866674E0,7.795918178E0
5.712515167E0,-8.328010329E0,6.053712997E-1,-2.373788291E0,8.680846808E0
5.722485167E0,-9.005403830E0,5.980402800E-1,-2.360585571E0,9.328843152E0
5.732454167E0,-9.565614452E0,5.334785407E-1,-2.034718488E0,9.794164514E0
5.742424167E0,-1.002316142E1,4.141585770E-1,-1.904210681E0,1.021084279E1
5.752394167E0,-1.034514536E1,2.568828017E-1,-1.975066656E0,1.053512741E1
5.762364167E0,-1.052263058E1,1.253766558E-1,-2.105634543E0,1.073196955E1
5.772333167E0,-1.057771252E1,6.712903239E-2,-2.182794985E0,1.080079175E1
5.782303167E0,-1.066019451E1,2.588781640E-3,-2.317248493E0,1.090914269E1
5.792273167E0,-1.072010742E1,2.232181884E-2,-2.455151712E0,1.099768027E1
5.802243167E0,-1.087652863E1,1.489336990E-2,-2.672413781E0,1.120003983E1
5.812212167E0,-1.106609653E1,-6.938890815E-3,-2.618210676E0,1.137161236E1
5.822182167E0,-1.119963875E1,7.588516474E-3,-2.415494142E0,1.145716272E1
5.832152167E0,-1.137368229E1,2.178628698E-2,-2.138376904E0,1.157297625E1
5.842122167E0,-1.179682775E1,-1.061208245E-1,-2.001184853E0,1.196583250E1
5.852091167E0,-1.195335771E1,-6.988581915E-1,-2.244640985E0,1.218234692E1
5.862061167E0,-1.198061275E1,-1.338933301E0,-2.426286348E0,1.229693822E1
5.872031167E0,-1.197562975E1,-1.287114837E0,-2.427715553E0,1.228682935E1
5.882001167E0,-1.191865799E1,-1.083137935E0,-2.289572014E0,1.218481580E1
5.891971167E0,-1.173751125E1,-6.940099727E-1,-2.191268039E0,1.196045467E1
5.901940167E0,-1.144934175E1,-9.495863602E-2,-2.094857832E0,1.163979695E1
5.911910167E0,-1.111379811E1,5.784454563E-1,-1.977208637E0,1.130311734E1
5.921880167E0,-1.082223723E1,1.170397104E0,-1.838588111E0,1.103952238E1
5.931850167E0,-1.051137586E1,1.545065048E0,-1.710728800E0,1.076117286E1
5.941819167E0,-1.013731076E1,1.849284276E0,-1.652927320E0,1.043633511E1
5.951789167E0,-9.787776487E0,2.147876729E0,-1.634302768E0,1.015307286E1
5.961759167E0,-9.461545123E0,2.279820612E0,-1.458600370E0,9.841033136E0
5.971729167E0,-9.183950899E0,2.326560915E0,-1.272989718E0,9.559201987E0
5.981698167E0,-8.884078783E0,2.493601541E0,-1.226943041E0,9.308613952E0
5.991668167E0,-8.628864777E0,2.663214941E0,-1.344984877E0,9.130115305E0
6.001638167E0,-8.503428553E0,2.515353183E0,-1.686530683E0,9.026609803E0
6.011608167E0,-8.257400522E0,2.145390201E0,-2.322672517E0,8.842068204E0
6.021577167E0,-2.678614168E0,-2.674342485E0,-3.022949681E0,4.844100160E0
6.031547167E0,3.156613055E1,-3.228225776E1,-3.910198583E0,4.531947062E1
6.041517167E0,6.465216763E1,-3.998977209E1,7.619469295E0,7.640118430E1
6.051487167E0,6.933884195E1,-1.368652154E1,3.024644204E0,7.074139062E1
6.061456167E0,5.395991634E1,9.810647871E0,-9.010151185E0,5.557971039E1
6.071426167E0,3.069403237E1,4.409233296E0,-1.305120051E1,3.364370366E1
6.081396167E0,2.249290545E1,-3.014323869E0,-1.181111366E1,2.558357578E1
6.091366167E0,1.705813836E1,-2.865802252E0,-8.028629379E0,1.906965643E1
6.101335167E0,1.095914861E1,-1.577433480E0,-3.918475317E0,1.174502804E1
6.111305167E0,7.155673411E0,-8.002639675E-1,-1.754254743E0,7.410903730E0
6.121275167E0,4.074226431E0,-3.540307814E-1,-2.819819748E-1,4.099289284E0
6.131245167E0,1.230862868E0,-1.823995069E-1,1.006303987E0,1.600293940E0
6.141215167E0,-1.367981245E0,1.797074488E-1,1.058198025E0,1.738807210E0
6.151184167E0,-3.762691458E0,5.046540333E-1,1.583181585E0,4.113269580E0
6.161154167E0,-5.754411569E0,4.297579251E-1,2.489005337E0,6.284352946E0
6.171124167E0,-7.056838510E0,1.672281750E-1,2.497697808E0,7.487685180E0
6.181094833E0,-8.048447932E0,2.790064730E-1,1.977581982E0,8.292538165E0
6.191063833E0,-8.674189469E0,7.300912401E-1,1.239934239E0,8.792726146E0
6.201033833E0,-9.221321624E0,9.883516458E-1,6.640788066E-1,9.297882131E0
6.211003833E0,-9.629184211E0,1.169021400E0,1.808782075E-1,9.701572890E0
6.220973833E0,-9.876040792E0,1.288401809E0,-1.750669523E-1,9.961265451E0
6.230942833E0,-9.896115453E0,1.384831897E0,-3.709995474E-1,9.999425039E0
6.240912833E0,-9.911390719E0,1.372737809E0,-3.753340153E-1,1.001303903E1
6.250882833E0,-1.001655874E1,1.310346994E0,-2.688361184E-1,1.010548025E1
6.260852833E0,-1.008465541E1,1.148910779E0,-1.599436406E-1,1.015115032E1
6.270821833E0,-1.019377381E1,1.036007038E0,-1.595816249E-1,1.024752660E1
6.280791833E0,-1.027598567E1,9.436271703E-1,-1.642121080E-1,1.032052708E1
6.290761833E0,-1.036826642E1,8.552077679E-1,-1.643080024E-1,1.040477420E1
6.300731833E0,-1.059398766E1,6.264584059E-1,-7.720020354E-2,1.061277459E1
6.310700833E0,-1.087397339E1,2.867027244E-1,1.466423213E-2,1.087776222E1
6.320670833E0,-1.114930942E1,-6.859280974E-2,4.311729513E-2,1.114960379E1
6.330640833E0,-1.135494664E1,-4.311058545E-1,-7.123078108E-2,1.136335071E1
6.340610833E0,-1.115818550E1,-7.818174639E-1,-1.907244802E-1,1.118716756E1
6.350580833E0,-1.109273995E1,-9.478680097E-1,-1.832921209E-1,1.113467240E1
6.360549833E0,-1.099852493E1,-1.114198198E0,1.416148488E-1,1.105572445E1
6.370519833E0,-1.093942011E1,-9.745463696E-1,4.165989125E-1,1.099064182E1
6.380489833E0,-1.072428233E1,-7.501689707E-1,5.916364459E-1,1.076675526E1
6.390459833E0,-1.049605030E1,-3.644619218E-1,5.033072734E-1,1.051442926E1
6.400428833E0,-1.044306401E1,9.041227967E-2,3.408359545E-1,1.044901571E1
6.410398833E0,-1.040540326E1,4.557026057E-1,4.127374113E-1,1.042355189E1
6.420368833E0,-1.029949849E1,6.930016203E-1,4.203680642E-1,1.033134210E1
6.430338833E0,-1.022117854E1,7.282983376E-1,2.241542180E-1,1.024954411E1
6.440307833E0,-9.997742400E0,5.362516558E-1,1.447009727E-1,1.001315921E1
6.450277833E0,-9.586728163E0,2.594261943E-1,4.231373421E-1,9.599567909E0
6.460247833E0,-9.112131304E0,-1.560098532E-1,7.692047274E-1,9.145870756E0
6.470217833E0,-8.678487757E0,-6.812593880E-1,1.075292434E0,8.771346415E0
6.480186833E0,-8.239654807E0,-1.485626054E0,1.457317929E0,8.498398182E0
6.490156833E0,-6.556122723E0,-3.811106404E0,1.800453594E0,7.794158731E0
6.500126833E0,7.325738509E0,-1.807243030E1,4.217883164E0,1.995168464E1
6.510096833E0,2.911296631E1,-3.800110598E1,6.039481459E0,4.825063937E1
6.520065833E0,5.776649583E1,-3.012278980E1,-4.428548111E0,6.529902407E1
6.530035833E0,7.018736650E1,1.354857754E1,-7.075109890E0,7.183235726E1
6.540005833E0,6.158867569E1,2.337876798E1,-8.845506456E0,6.646784749E1
6.549975833E0,2.998396053E1,-2.284572060E0,-2.681032577E0,3.019014896E1
6.559945833E0,1.309643574E1,-2.968859428E0,2.939388292E0,1.374666356E1
6.569914833E0,8.440625948E0,-2.353421270E0,3.148098807E0,9.310922842E0
6.579884833E0,4.943662959E0,-1.156413487E0,2.707402350E0,5.753878961E0
6.589854833E0,2.754983482E0,-1.966908328E-1,1.923652089E0,3.365866698E0
6.599824833E0,1.044701555E0,1.116718787E0,1.846646597E0,2.397616701E0
6.609793833E0,-2.122112435E-1,3.501139070E0,2.760610843E0,4.463628639E0
6.619763833E0,-1.020470109E0,8.036699706E0,6.101029251E0,1.014162015E1
6.629733833E0,-3.560699394E0,6.414931760E0,3.542028065E0,8.147140141E0
6.639703833E0,-5.748346837E0,1.067524992E0,-1.964343739E0,6.167799226E0
6.649672833E0,-6.488231286E0,9.177381845E-1,-3.318734593E0,7.345296992E0
6.659642833E0,-7.108588707E0,2.039935666E0,-4.761445886E0,8.795722702E0
6.669612833E0,-8.514825361E0,4.559611696E0,-9.640633060E0,1.364676209E1
6.679582833E0,-1.185188981E1,4.769153393E0,-1.921400209E1,2.307357780E1
6.689551833E0,-1.457616137E1,4.747499692E0,-2.576414662E1,2.997990135E1
6.699521833E0,-1.342273143E1,4.482162401E0,-1.723584810E1,2.230098560E1
6.709491833E0,-1.155824381E1,3.254213492E0,-3.663085017E0,1.255392756E1
6.719461833E0,-1.099910966E1,2.477862883E0,1.194079789E0,1.133781479E1
6.729431833E0,-1.055410731E1,2.125274902E0,2.252516162E0,1.099908194E1
6.739400833E0,-1.043563804E1,1.979670607E0,3.070398959E0,1.105662638E1
6.749370833E0,-1.042564749E1,1.906951417E0,3.357796625E0,1.111779598E1
6.759340833E0,-1.041831157E1,1.743593661E0,3.437604102E0,1.110848580E1
6.769310833E0,-1.048933887E1,1.545672281E0,3.632769835E0,1.120769153E1
6.779279833E0,-1.043279396E1,1.480245447E0,3.469094574E0,1.109364383E1
6.789249833E0,-1.034285442E1,1.390430168E0,3.036300629E0,1.086862711E1
6.799219833E0,-1.030647071E1,1.333516586E0,2.910227350E0,1.079217440E1
6.809189833E0,-1.037205893E1,1.280480732E0,3.106590593E0,1.090275848E1
6.819158833E0,-1.041906235E1,1.199660298E0,3.302065936E0,1.099543926E1
6.829128833E0,-1.041322683E1,1.083268328E0,3.468026873E0,1.102887001E1
6.839098833E0,-1.040153240E1,9.944588432E-1,3.508477034E0,1.102226092E1
6.849068833E0,-1.035279001E1,8.841980439E-1,3.535364870E0,1.097546682E1
6.859037833E0,-1.023327994E1,7.168352368E-1,3.534224078E0,1.085009728E1
6.869007833E0,-1.015423962E1,5.862131169E-1,3.574288031E0,1.078089806E1
6.878977833E0,-1.012109994E1,4.552339148E-1,3.570175976E0,1.074197647E1
6.888947833E0,-1.010415471E1,3.586816567E-1,3.561125363E0,1.071933807E1
6.898917833E0,-1.009894718E1,2.821044557E-1,3.549287675E0,1.070820994E1
6.908886833E0,-1.005647183E1,2.390812460E-1,3.500295902E0,1.065090874E1
6.918856833E0,-1.000660210E1,2.161134011E-1,3.467669900E0,1.059261654E1
6.928826833E0,-9.953163228E0,1.129121097E-1,3.397417943E0,1.051763548E1
6.938796833E0,-9.732553044E0,-5.208443888E-2,3.105718773E0,1.021620236E1
6.948765833E0,-9.162985708E0,-3.456105350E-1,2.726147646E0,9.566171371E0
6.958735833E0,-8.763329102E0,-6.461638881E-1,2.501606379E0,9.136273814E0
6.968705833E0,-8.128175887E0,-1.087002725E0,1.524551846E0,8.341047686E0
6.978675833E0,-5.229080758E0,-1.525238163E0,-3.537135699E-1,5.458456771E0
6.988644833E0,1.994187753E1,2.280548357E1,2.133169520E0,3.036970484E1
6.998614833E0,6.894914608E1,2.338929530E1,-1.017682975E1,7.351606452E1
7.008584833E0,6.981158700E1,-4.230787501E1,-4.182551714E1,9.172234107E1
7.018554833E0,5.947326066E1,-1.278333723E1,-1.907701118E1,6.375276307E1
7.028524833E0,2.918501102E1,1.681901296E0,-2.384803276E0,2.933054631E1
7.038493833E0,1.725376982E1,-1.444916570E0,-2.455146742E0,1.748736980E1
7.048463833E0,1.067288648E1,-6.613759312E-1,-1.032826737E0,1.074312129E1
7.058433833E0,5.341864192E0,-1.812466552E-1,-1.903695542E-1,5.348327212E0
7.068403833E0,2.188205853E0,-2.234349740E-1,3.405207896E-1,2.225785805E0
7.078372833E0,-7.676891291E-1,-1.389263356E-1,7.291606557E-1,1.067858786E0
7.088342833E0,-2.967972406E0,8.189204592E-2,8.117574008E-1,3.078070270E0
7.098312833E0,-4.685215443E0,9.940968275E-2,7.885566723E-1,4.752151897E0
7.108282833E0,-6.141437019E0,3.690274277E-1,9.360830927E-1,6.223317560E0
7.118251833E0,-7.403553255E0,5.374114510E-1,1.040310881E0,7.495575935E0
7.128221833E0,-8.415256049E0,7.532831246E-1,1.126996146E0,8.523736865E0
7.138191833E0,-9.126760452E0,7.942662591E-1,1.251059882E0,9.246283906E0
7.148161833E0,-9.625865332E0,8.655112928E-1,1.298725069E0,9.751568078E0
7.158131833E0,-9.846133454E0,9.053912039E-1,1.266582193E0,9.968465663E0
7.168100833E0,-9.974214374E0,8.839241749E-1,1.190640457E0,1.008384346E1
7.178070542E0,-1.004828222E1,9.090370890E-1,1.125879035E0,1.015194206E1
7.188040542E0,-1.010399333E1,9.369575438E-1,1.021315616E0,1.019861050E1
7.198010542E0,-1.020295277E1,9.897389708E-1,9.657941110E-1,1.029624139E1
7.207979542E0,-1.025343529E1,1.033264036E0,9.327020864E-1,1.034748777E1
7.217949542E0,-1.028347010E1,1.051077944E0,8.051475620E-1,1.036835497E1
7.227919542E0,-1.033261244E1,1.061758834E0,6.221309546E-1,1.040563591E1
7.237889542E0,-1.040814209E1,1.079377883E0,4.915450144E-1,1.047549975E1
7.247858542E0,-1.048847699E1,1.119896018E0,4.628070458E-1,1.055824356E1
7.257828542E0,-1.059655459E1,1.092469799E0,3.665841687E-1,1.065902638E1
7.267798542E0,-1.074434881E1,1.065736768E0,1.562996558E-1,1.079820614E1
7.277768542E0,-1.075865695E1,1.009888988E0,1.194913602E-1,1.080661155E1
7.287737542E0,-1.086711695E1,9.680949904E-1,2.540709122E-1,1.091311095E1
7.297707542E0,-1.098334790E1,1.026706749E0,2.489837980E-1,1.103404055E1
7.307677542E0,-1.107554563E1,1.149373732E0,2.236303806E-1,1.113726993E1
7.317647542E0,-1.111129317E1,1.291730044E0,1.663054478E-1,1.118736161E1
7.327617542E0,-1.107028080E1,1.476411427E0,2.769136083E-1,1.117173168E1
7.337586542E0,-1.092071604E1,1.548619570E0,2.763627275E-1,1.103343272E1
7.347556542E0,-1.055234964E1,1.415908240E0,3.750996150E-2,1.064698483E1
7.357526542E0,-1.048206961E1,1.581126581E0,5.124499798E-2,1.060077217E1
7.367496542E0,-1.045745517E1,1.718843859E0,1.133237537E-1,1.059837889E1
7.377465542E0,-1.038865216E1,1.771526541E0,1.072192971E-1,1.053916011E1
7.387435542E0,-1.025922287E1,1.718582927E0,1.102200516E-1,1.040275586E1
7.397405542E0,-1.001632953E1,1.605281429E0,8.553427655E-2,1.014451092E1
7.407375542E0,-9.606650212E0,1.449733213E0,3.131538469E-2,9.715474015E0
7.417344542E0,-9.171545447E0,1.321358179E0,-1.643161154E-1,9.267698371E0
7.427314542E0,-8.743161471E0,7.028557867E-1,-6.627994359E-1,8.796373222E0
7.437284542E0,-8.071830363E0,-1.033766385E0,-1.237102432E0,8.231253900E0
7.447254542E0,-6.294214239E0,-4.053241358E0,-2.301050098E0,7.832032300E0
7.457224542E0,1.895523239E1,-2.383837082E1,-6.740495957E0,3.119299672E1
7.467193542E0,6.900337549E1,-4.655850609E1,-2.869744445E0,8.329103044E1
7.477163542E0,6.917820724E1,-5.525537515E0,-1.263866542E1,7.054000131E1
7.487133542E0,6.299452409E1,1.376878836E1,-2.646243047E1,6.970042915E1
7.497103542E0,3.207258129E1,3.623710744E0,-1.590217540E1,3.598139703E1
7.507072542E0,1.432542107E1,-1.081414030E0,-5.809498773E0,1.549636800E1
7.517042542E0,9.077003571E0,-1.704939034E0,-2.134266458E0,9.479129931E0
7.527012542E0,7.899007133E0,-2.442826513E0,-2.230712771E-1,8.271123011E0
7.536982542E0,4.924847789E0,-1.026892983E0,4.233202869E-1,5.048547812E0
7.546952542E0,1.829672715E0,1.489032935E-1,3.497616927E-1,1.868744947E0
7.556921542E0,-8.976516831E-1,7.125110015E-1,4.734958291E-1,1.240019666E0
7.566891542E0,-3.491105833E0,9.146729279E-1,1.610040185E0,3.951794010E0
7.576861542E0,-5.605846683E0,9.336328170E-1,2.278558198E0,6.122827348E0
7.586831542E0,-7.168394029E0,1.269613828E0,2.055279930E0,7.564520330E0
7.596800542E0,-8.598575031E0,1.594395083E0,1.567119284E0,8.884449960E0
7.606770542E0,-9.456720586E0,1.807874734E0,7.110975833E-1,9.654202974E0
7.616740542E0,-1.005916155E1,2.130368119E0,5.958616805E-1,1.029952672E1
7.626710542E0,-1.044594317E1,2.275036274E0,7.096085899E-1,1.071433914E1
7.636680542E0,-1.068957560E1,2.412196750E0,5.185496490E-1,1.097062502E1
7.646649542E0,-1.079117214E1,2.578384121E0,6.936303422E-2,1.109514633E1
7.656619542E0,-1.073149546E1,2.608803091E0,-4.628668336E-1,1.105373666E1
7.666589542E0,-1.058096825E1,2.417191004E0,-8.080103588E-1,1.088359234E1
7.676559542E0,-1.047512780E1,2.168527487E0,-9.862511066E-1,1.074260234E1
7.686528542E0,-1.047636039E1,1.964541375E0,-1.105321979E0,1.071612274E1
7.696498542E0,-1.049425755E1,1.752573961E0,-1.053246238E0,1.069159879E1
7.706468542E0,-1.045604950E1,1.435057872E0,-7.240402490E-1,1.057887501E1
7.716438542E0,-1.054455296E1,1.137757215E0,-3.326048656E-1,1.061097142E1
7.726407542E0,-1.083514320E1,7.580472167E-1,1.234381942E-1,1.086232944E1
7.736377542E0,-1.122092846E1,2.160147111E-1,3.385818164E-1,1.122811362E1
7.746347542E0,-1.170899672E1,-2.730667251E-1,3.773904079E-1,1.171825896E1
7.756317542E0,-1.188613344E1,-4.169488683E-1,2.700016147E-1,1.189650854E1
7.766287542E0,-1.183078604E1,-5.315592653E-1,6.797855973E-2,1.184291664E1
7.776256542E0,-1.186847368E1,-7.278333378E-1,-1.292608881E-1,1.189147246E1
7.786226542E0,-1.176898798E1,-1.080386235E0,-3.161443323E-1,1.182270104E1
7.796196542E0,-1.122932506E1,-1.497950962E0,-2.756529669E-1,1.133214821E1
7.806166542E0,-1.108202785E1,-1.469321094E0,-1.380030602E-1,1.117986094E1
7.816135542E0,-1.107468258E1,-1.202286502E0,1.476316885E-1,1.114073077E1
7.826105542E0,-1.091756673E1,-1.001238471E0,6.141710669E-1,1.098057138E1
7.836075542E0,-1.071224993E1,-5.493485418E-1,7.263803047E-1,1.075089349E1
7.846045542E0,-1.067120599E1,-2.158466037E-1,7.061834371E-1,1.069672483E1
7.856014542E0,-1.052049751E1,-5.001138166E-2,7.903424120E-1,1.055026114E1
7.865984542E0,-1.025363644E1,9.523360133E-3,1.033594769E0,1.030560377E1
7.875954542E0,-9.782361381E0,-2.384573480E-1,1.247311671E0,9.864443345E0
7.885924542E0,-9.165425166E0,-6.007993618E-1,1.295795614E0,9.276047899E0
7.895893542E0,-8.639224874E0,-8.710597157E-1,1.330564327E0,8.784381189E0
7.905863542E0,-8.164320450E0,-1.596335481E0,1.584240077E0,8.468425592E0
7.915833542E0,-7.281878545E0,-3.343121576E0,1.342650668E0,8.124341686E0
7.925803542E0,-6.106246721E0,-4.668280737E0,1.781507738E0,7.890048408E0
7.935773542E0,2.681304589E1,-2.288609562E1,2.590055748E0,3.534715252E1
7.945742542E0,7.087748763E1,-3.278422953E1,-8.369892765E0,7.853966554E1
7.955712542E0,6.862900868E1,1.770863759E1,-1.787539784E1,7.309628257E1
7.965682542E0,6.315709072E1,7.478496433E0,-7.117663586E0,6.399536820E1
7.975652542E0,3.238982548E1,-6.502055858E0,3.241147889E0,3.319461650E1
7.985622542E0,1.580806680E1,-1.441725159E0,4.131357236E0,1.640248944E1
7.995591542E0,1.130210652E1,1.688291426E0,4.315097802E0,1.221507302E1
8.005561542E0,7.711564111E0,6.113725895E0,3.764520468E0,1.053648327E1
8.015531542E0,5.281972917E0,9.515031359E0,2.269659905E0,1.111694273E1
8.025501542E0,2.427199098E0,5.826520602E0,4.351287389E-1,6.326845565E0
8.035470542E0,1.685190940E-1,1.881504189E0,-1.140107650E0,2.206422931E0
8.045440542E0,-1.398883195E0,5.292230102E-1,-1.312737336E0,1.990032789E0
8.055410542E0,-2.988597874E0,-1.715293868E-1,-1.011006975E0,3.159632049E0
8.065380542E0,-4.578886165E0,-9.635480493E-3,-9.722527993E-1,4.680979263E0
8.075349542E0,-6.015206158E0,3.103821936E-1,-9.173673248E-1,6.092668138E0
8.085319542E0,-7.343737993E0,6.026388958E-1,-8.338293242E-1,7.415452292E0
8.095289542E0,-8.344899427E0,9.495138547E-1,-6.928892076E-1,8.427278235E0
8.105259542E0,-8.873224597E0,1.373956368E0,7.236514091E-1,9.008082050E0
8.115229542E0,-9.881925430E0,1.298061263E0,3.792825669E0,1.066409583E1
8.125198542E0,-1.196989948E1,6.789719573E-1,2.315775726E0,1.221074583E1
8.135168542E0,-1.297777118E1,4.543333340E-1,-1.756305946E0,1.310395262E1
8.145138542E0,-1.280267280E1,6.952494362E-1,-4.970830293E0,1.375139834E1
8.155108542E0,-1.424480434E1,1.543880695E0,-1.322317765E1,1.949744715E1
8.165077542E0,-1.557929332E1,2.174673057E0,-1.597993167E1,2.242324239E1
8.175047542E0,-1.366455589E1,1.372669396E0,-6.281144543E0,1.510155905E1
8.185017917E0,-1.170356933E1,1.128129482E0,-5.077751309E-2,1.175792455E1
8.194987917E0,-1.092786133E1,1.335036570E0,1.719523451E0,1.114258663E1
8.204957917E0,-1.067194508E1,1.461793096E0,2.244455190E0,1.100294642E1
8.214926917E0,-1.046055303E1,1.478475641E0,2.043398241E0,1.076032231E1
8.224896917E0,-1.043454578E1,1.449953800E0,1.873854715E0,1.070016090E1
8.234866917E0,-1.041964591E1,1.465083909E0,1.802320025E0,1.067538520E1
8.244836917E0,-1.031697465E1,1.535097884E0,1.685095046E0,1.056579560E1
8.254805917E0,-1.018160693E1,1.592962954E0,1.640324085E0,1.043519591E1
8.264775917E0,-1.009666559E1,1.673560828E0,1.582046202E0,1.035598050E1
8.274745917E0,-1.007847725E1,1.733008300E0,1.474602299E0,1.033215724E1
8.284715917E0,-1.009524355E1,1.808073100E0,1.386075454E0,1.034911957E1
8.294684917E0,-1.012850485E1,1.837286667E0,1.245386767E0,1.036885823E1
8.304654917E0,-1.013468302E1,1.880409298E0,1.076795168E0,1.036374579E1
8.314624917E0,-1.011390085E1,1.915390558E0,8.516539764E-1,1.032884436E1
8.324594917E0,-1.003692927E1,1.914005645E0,6.602921498E-1,1.023910897E1
8.334564917E0,-9.946364086E0,1.907363208E0,4.744781613E-1,1.013870418E1
8.344533917E0,-9.867155364E0,1.886155503E0,2.821550707E-1,1.004977358E1
8.354503917E0,-9.749481318E0,1.798883032E0,2.062617199E-1,9.916194332E0
8.364473917E0,-9.621818474E0,1.675274208E0,1.600125647E-1,9.767883007E0
8.374443917E0,-9.477351317E0,1.688499733E0,1.293591305E-1,9.627458289E0
8.384412917E0,-9.319661851E0,1.675924273E0,8.538338184E-2,9.469535865E0
8.394382917E0,-9.011995397E0,1.094514863E0,-3.352337372E-1,9.084404519E0
8.404352917E0,-8.296391510E0,2.013602731E-1,-1.027200839E0,8.362164769E0
8.414322917E0,3.945493546E0,-6.478736578E0,-2.299583032E0,7.926476461E0
8.424292917E0,6.362237939E1,-3.510551567E1,3.861288378E0,7.276753355E1
8.434261917E0,6.977656451E1,-9.079993252E0,1.286340900E1,7.153098995E1
8.444231917E0,6.771376039E1,7.741511795E0,4.918181963E0,6.833207786E1
8.454201917E0,4.965641707E1,-5.646745033E0,3.682489879E0,5.011193688E1
8.464171917E0,2.406982934E1,-6.717988855E0,2.377455665E0,2.510259657E1
8.474140917E0,1.515920830E1,-2.597413884E0,6.945884085E-1,1.539579839E1
8.484110917E0,9.879383061E0,-8.461391750E-1,1.065848011E-1,9.916124318E0
8.494080917E0,5.796718513E0,8.583778359E-2,-2.602537397E-1,5.803192712E0
8.504050917E0,2.630065906E0,5.958154875E-1,-6.110340357E-1,2.765068780E0
8.514020917E0,1.523597288E-1,8.825997806E-1,-5.038615894E-1,1.027653814E0
8.523989917E0,-1.872998244E0,1.043503534E0,-2.886414053E-1,2.163408401E0
8.533959917E0,-3.557589260E0,1.255318556E0,-1.880733891E-1,3.777252655E0
8.543929917E0,-4.997432785E0,1.548109986E0,-1.166566666E-1,5.233028544E0
8.553899917E0,-6.209329040E0,1.829675639E0,-1.217787910E-1,6.474435122E0
8.563868917E0,-7.202753438E0,2.103677334E0,-2.326565995E-1,7.507279434E0
8.573838917E0,-8.045947663E0,2.246921838E0,-3.327691358E-1,8.360422647E0
8.583808917E0,-8.806265792E0,2.188882083E0,-4.451485276E-1,9.085135067E0
8.593778917E0,-9.363387330E0,1.985196080E0,-4.776590466E-1,9.583432784E0
8.603748917E0,-9.742464659E0,2.001342874E0,-2.657161538E-1,9.949452046E0
8.613717917E0,-1.002022845E1,2.013140216E0,2.417008717E-2,1.022048414E1
8.623687917E0,-1.021511849E1,1.807233148E0,3.086780592E-1,1.037834378E1
8.633657917E0,-1.031287926E1,1.488090071E0,4.889020729E-1,1.043115122E1
8.643627917E0,-1.045665644E1,1.302665215E0,3.440677837E-1,1.054310122E1
8.653596917E0,-1.045737331E1,1.115767299E0,1.770433111E-1,1.051821932E1
8.663566917E0,-1.039433916E1,9.367435357E-1,1.901958919E-1,1.043819666E1
8.673536917E0,-1.036648536E1,7.395596364E-1,2.434289432E-1,1.039568299E1
8.683506917E0,-1.033377721E1,5.351851237E-1,2.162171710E-1,1.034988523E1
8.693476917E0,-1.028084587E1,3.858925884E-1,2.096777181E-1,1.029022204E1
8.703445917E0,-1.025507602E1,2.985909909E-1,3.067016637E-1,1.026400539E1
8.713415917E0,-1.024444812E1,2.280686000E-1,4.199539717E-1,1.025558843E1
8.723385917E0,-1.025718804E1,1.249573374E-1,4.555811298E-1,1.026806091E1
8.733355917E0,-1.030169353E1,6.431635721E-3,4.052857927E-1,1.030966477E1
8.743324917E0,-1.035257951E1,-1.386375014E-1,3.746171466E-1,1.036028286E1
8.753294917E0,-1.038037835E1,-3.035321439E-1,3.501522502E-1,1.039071667E1
8.763264917E0,-1.040274278E1,-4.531387844E-1,2.857558044E-1,1.041652766E1
8.773234917E0,-1.038978885E1,-5.787218104E-1,1.939159270E-1,1.040770074E1
8.783204917E0,-1.035975522E1,-6.993377363E-1,1.121717974E-1,1.038393875E1
8.793173917E0,-1.029331798E1,-8.044620491E-1,-3.464941224E-2,1.032476415E1
8.803143917E0,-1.030790912E1,-8.879333914E-1,-2.364532149E-1,1.034878381E1
8.813113917E0,-1.032857435E1,-9.890267068E-1,-3.871792316E-1,1.038304049E1
8.823083917E0,-1.034574295E1,-1.093969902E0,-4.991943419E-1,1.041539064E1
8.833052917E0,-1.032237981E1,-1.215957000E0,-6.396549869E-1,1.041341610E1
8.843022917E0,-1.029519845E1,-1.332119687E0,-7.247378218E-1,1.040629131E1
8.852992917E0,-1.015554004E1,-1.361168215E0,-8.132119688E-1,1.027857413E1
8.862962917E0,-9.873063390E0,-1.437865851E0,-9.558770140E-1,1.002290077E1
8.872932917E0,-9.504455500E0,-1.754134436E0,-1.195374436E0,9.738612941E0
8.882901917E0,-9.097827260E0,-2.225661508E0,-1.316422251E0,9.458170941E0
8.892871917E0,-7.393462715E0,-1.364523786E-1,-1.160693357E0,7.485260132E0
8.902841917E0,2.184446093E1,3.708627869E1,1.982013148E-1,4.304197746E1
8.912811917E0,6.112014999E1,4.321456298E1,1.210618521E1,7.582698009E1
8.922780917E0,6.965138732E1,-3.949295523E1,2.774236726E1,8.473870550E1
8.932750917E0,6.451680224E1,-3.371080973E1,9.301665291E0,7.338499466E1
8.942720917E0,3.180181778E1,5.154590739E0,-5.577192403E0,3.269603179E1
8.952690917E0,1.239467163E1,3.597770156E0,-1.849366868E0,1.303809774E1
8.962660917E0,9.522711092E0,1.647365594E0,1.558976890E0,9.789088256E0
8.972629917E0,6.300578933E0,1.353226966E-1,3.824849115E0,7.371911413E0
8.982599917E0,3.196641222E0,7.312257461E-2,3.098754154E0,4.452655312E0
8.992569917E0,5.788848746E-1,2.299788854E-1,9.688245767E-1,1.151789497E0
9.002539917E0,-1.383647105E0,1.102246928E-1,-5.873878956E-2,1.389272846E0
9.012508917E0,-3.426177181E0,6.023246080E-2,-8.247790039E-1,3.524567836E0
9.022478917E0,-4.894671478E0,-4.122813284E-2,-1.194842266E0,5.038566927E0
9.032448917E0,-6.341384897E0,1.179243429E-1,-1.347004505E0,6.483940908E0
9.042418917E0,-7.563537753E0,2.111140135E-1,-1.354737301E0,7.686805944E0
9.052388917E0,-8.501232339E0,2.447095199E-1,-1.092195126E0,8.574597613E0
9.062357917E0,-9.228129537E0,2.173021218E-1,-1.007817904E0,9.285542089E0
9.072327917E0,-9.650849900E0,1.843551447E-1,-1.000886176E0,9.704363129E0
9.082297917E0,-9.951196225E0,2.019333367E-1,-1.130574495E0,1.001724923E1
9.092267917E0,-1.021855665E1,2.093774270E-1,-1.255646438E0,1.029754276E1
9.102236917E0,-1.042695960E1,1.187815082E-1,-1.288999979E0,1.050700322E1
9.112206917E0,-1.052116059E1,6.678982079E-2,-1.286117887E0,1.059968774E1
9.122176917E0,-1.062834824E1,7.121384243E-2,-1.320576844E0,1.071031189E1
9.132146917E0,-1.071402866E1,6.290231774E-2,-1.343490913E0,1.079811718E1
9.142116917E0,-1.078225631E1,2.121983796E-2,-1.331158989E0,1.086413759E1
9.152085917E0,-1.089620217E1,-5.684224516E-2,-1.307500570E0,1.097451641E1
9.162055917E0,-1.102304348E1,-2.098744038E-1,-1.290275257E0,1.110028581E1
9.172025917E0,-1.120574441E1,-3.154754108E-1,-1.387244897E0,1.129569302E1
9.181995792E0,-1.136121486E1,-3.955915843E-1,-1.582008780E0,1.147764991E1
9.191964792E0,-1.147723297E1,-5.212698833E-1,-1.682173923E0,1.161155924E1
9.201934792E0,-1.157999194E1,-6.058291367E-1,-1.738818094E0,1.172547358E1
9.211904792E0,-1.178966257E1,-8.435099745E-1,-1.778756331E0,1.195289198E1
9.221874792E0,-1.181744269E1,-1.243678503E0,-1.933596741E0,1.203899848E1
9.231844792E0,-1.150372671E1,-1.681381479E0,-1.831409923E0,1.176931749E1
9.241813792E0,-1.152847329E1,-1.919789418E0,-1.657651724E0,1.180419828E1
9.251783792E0,-1.153187871E1,-1.850945032E0,-1.430203659E0,1.176672030E1
9.261753792E0,-1.150436405E1,-1.631804545E0,-1.408502157E0,1.170457418E1
9.271723792E0,-1.152210450E1,-1.351844392E0,-1.582870659E0,1.170862310E1
9.281692792E0,-1.147136704E1,-1.032501486E0,-1.669628283E0,1.163812613E1
9.291662792E0,-1.137359809E1,-8.446455038E-1,-1.624934798E0,1.152009430E1
9.301632792E0,-1.120153208E1,-6.137655625E-1,-1.594289248E0,1.133105411E1
9.311602792E0,-1.090908125E1,-5.402821416E-1,-1.556566229E0,1.103280820E1
9.321572792E0,-1.048726311E1,-5.008485192E-1,-1.622179590E0,1.062379421E1
9.331541792E0,-9.796340904E0,-4.236233188E-1,-1.654556354E0,9.944109239E0
9.341511792E0,-8.951250427E0,-4.546534690E-1,-1.604582979E0,9.105288602E0
9.351481792E0,-8.157176907E0,-1.081540183E0,-1.656953566E0,8.393733340E0
9.361451792E0,-6.445698055E0,-2.801828158E0,-1.958638173E0,7.296131025E0
9.371420792E0,6.561132032E0,-5.000176299E-1,8.846440402E-1,6.639357367E0
9.381390792E0,5.342177603E1,-2.785662653E1,2.112149364E0,6.028547894E1
9.391360792E0,6.202298816E1,-3.925161023E1,6.743147085E0,7.370895467E1
9.401330792E0,6.830900226E1,-4.345312704E0,-9.210907148E0,6.906404523E1
9.411300792E0,6.044891303E1,1.831399632E1,-2.462704561E1,6.779354632E1
9.421269792E0,3.511364096E1,3.826802377E0,-1.607118332E1,3.880586465E1
9.431239792E0,2.056198644E1,-2.127926029E0,-8.272568200E0,2.226564035E1
9.441209792E0,1.360600655E1,-1.080391206E0,-4.581974080E0,1.439740067E1
9.451179792E0,9.062519433E0,-4.885196650E-1,-2.427368667E0,9.394680866E0
9.461149792E0,6.539092707E0,3.372406478E-1,-1.138119596E0,6.645959743E0
9.471118792E0,3.448070911E0,1.229903340E0,-8.944941866E-1,3.768550793E0
9.481088792E0,5.286005741E-1,2.147677631E0,-1.157439966E0,2.496318299E0
9.491058792E0,-2.083164132E0,2.641619419E0,-8.987936443E-1,3.482176901E0
9.501028792E0,-4.281744699E0,2.628897048E0,-1.233087149E-1,5.025897173E0
9.510997792E0,-6.253508263E0,2.230364570E0,8.743848811E-1,6.696673848E0
9.520967792E0,-7.610404941E0,2.343484804E0,1.188893162E0,8.051313641E0
9.530937792E0,-8.375240044E0,2.715187040E0,5.491085136E-1,8.821474175E0
9.540907792E0,-9.020098468E0,3.431012244E0,-6.637209570E-1,9.673393763E0
9.550877792E0,-9.437696670E0,4.125155094E0,-1.479424644E0,1.040556199E1
9.560846792E0,-9.458578831E0,4.888181361E0,-2.108068593E0,1.085370829E1
9.570816792E0,-9.513508744E0,5.642644966E0,-2.659888752E0,1.137634823E1
9.580786792E0,-9.770846459E0,6.453543849E0,-2.958707492E0,1.207773235E1
9.590756792E0,-1.000452985E1,6.926264922E0,-3.589122709E0,1.268643232E1
9.600725792E0,-1.019858022E1,6.975527714E0,-4.046511798E0,1.300166463E1
9.610695792E0,-1.027851868E1,6.122807205E0,-4.281324284E0,1.270694503E1
9.620665792E0,-1.037508428E1,4.503934508E0,-4.021103307E0,1.200404397E1
9.630635792E0,-1.046287203E1,3.093412431E0,-3.377051214E0,1.142126817E1
9.640605792E0,-1.039818779E1,2.196287289E0,-2.708376496E0,1.096728273E1
9.650574792E0,-1.043582983E1,1.792114879E0,-2.176080628E0,1.080988191E1
9.660544792E0,-1.072774856E1,1.545742156E0,-1.410467699E0,1.092992805E1
9.670514792E0,-1.081020834E1,1.257796606E0,-9.713764478E-1,1.092640054E1
9.680484792E0,-1.067498329E1,1.091001709E0,-1.002892502E0,1.077735340E1
9.690453792E0,-1.044110636E1,9.634762017E-1,-1.437372053E0,1.058352620E1
9.700423792E0,-1.025126832E1,8.734196520E-1,-1.839156899E0,1.045150047E1
9.710393792E0,-1.020558987E1,8.265057597E-1,-1.920207786E0,1.041750326E1
9.720363792E0,-1.016226317E1,7.662578038E-1,-1.961291931E0,1.037812169E1
9.730333792E0,-1.012092920E1,7.027324835E-1,-1.967565409E0,1.033432893E1
9.740302792E0,-1.010688653E1,6.846215370E-1,-1.909902361E0,1.030852021E1
9.750272792E0,-1.009889923E1,6.601007266E-1,-1.850540989E0,1.028824575E1
9.760242792E0,-1.014331819E1,6.374008852E-1,-1.782559360E0,1.031846411E1
9.770212792E0,-1.018749390E1,6.017609364E-1,-1.680175198E0,1.034263685E1
9.780181792E0,-1.023636259E1,5.563573799E-1,-1.595671384E0,1.037491300E1
9.790151792E0,-1.026374277E1,4.916035231E-1,-1.529812440E0,1.038876391E1
9.800121792E0,-1.031392942E1,4.735631086E-1,-1.452399398E0,1.042645031E1
9.810091792E0,-1.038201206E1,4.675346293E-1,-1.379364166E0,1.048367343E1
9.820061792E0,-1.031929248E1,3.724054008E-1,-1.326579596E0,1.041087396E1
9.830030792E0,-9.520506692E0,1.942081781E-1,-1.228180604E0,9.601364074E0
9.840000792E0,-9.249691145E0,2.820351845E-1,-1.394857387E0,9.358523241E0
9.849970792E0,-9.057526495E0,1.829929993E-1,-1.620416070E0,9.203152769E0
9.859940792E0,-4.212158155E0,4.540903822E-1,-1.859736174E0,4.626779986E0
9.869909792E0,5.033903974E1,3.641797351E0,7.412719350E0,5.101205758E1
9.879879792E0,7.071858370E1,-1.311189344E1,3.530101148E1,8.011991788E1
9.889849792E0,6.780666095E1,-8.411662935E0,1.182786126E1,6.934261060E1
9.899819792E0,5.346889991E1,-9.802998105E-1,-7.191130342E0,5.395921239E1
9.909789792E0,2.664280304E1,-1.603021480E0,-4.722873266E0,2.710561129E1
9.919758792E0,1.709925949E1,-2.325768033E0,-3.458215245E0,1.759980467E1
9.929728792E0,1.336805645E1,-1.497798203E0,-1.599426904E0,1.354645707E1
9.939698792E0,1.111435243E1,-3.375100583E-2,-4.452970469E-1,1.112332048E1
9.949668792E0,8.699566970E0,5.830687767E-1,-8.095118324E-2,8.719460290E0
9.959638792E0,5.986225019E0,5.477665045E-1,-5.391705859E-1,6.035366023E0
9.969607792E0,3.216893638E0,4.083993985E-1,-1.409024606E0,3.535610992E0
9.979577792E0,6.009528512E-1,3.804300830E-1,-1.856205626E0,1.987805499E0
9.989547792E0,-1.900525181E0,4.340692234E-1,-1.912847604E0,2.731189852E0
9.999517792E0,-4.045026605E0,4.872481880E-1,-1.748947810E0,4.433787261E0
1.000948679E1,-5.904616014E0,5.400678777E-1,-1.436237547E0,6.100732897E0
1.001945679E1,-7.450039204E0,5.493099502E-1,-1.071785274E0,7.546757532E0
1.002942679E1,-8.654444007E0,5.252173752E-1,-7.257482207E-1,8.700687607E0
1.003939679E1,-9.572053991E0,4.958547412E-1,-5.008245456E-1,9.597964094E0
1.004936679E1,-1.006423577E1,4.376629587E-1,-3.855437654E-1,1.008112268E1
1.005933579E1,-1.021770062E1,4.546876387E-1,-4.351778189E-1,1.023706631E1
1.006930579E1,-1.025984267E1,4.387086967E-1,-5.538383263E-1,1.028414186E1
1.007927579E1,-1.030501007E1,4.252419743E-1,-6.253813487E-1,1.033272303E1
1.008924579E1,-1.037241561E1,4.359181130E-1,-6.656289035E-1,1.040288864E1
1.009921479E1,-1.044326983E1,4.412583750E-1,-6.869542837E-1,1.047513722E1
1.010918479E1,-1.051086949E1,4.278416464E-1,-6.707189047E-1,1.054093401E1
1.011915479E1,-1.059559330E1,4.347884309E-1,-6.538789237E-1,1.062465040E1
1.012912479E1,-1.073467634E1,4.076822010E-1,-6.357385218E-1,1.076121018E1
1.013909479E1,-1.091945888E1,3.537822747E-1,-5.757963753E-1,1.094035126E1
1.014906379E1,-1.110433381E1,2.592158407E-1,-5.224171436E-1,1.111963767E1
1.015903379E1,-1.127871181E1,2.005565733E-1,-4.673539138E-1,1.129017196E1
1.016900379E1,-1.141798898E1,1.982138863E-1,-4.378278136E-1,1.142809933E1
1.017897792E1,-1.148311527E1,2.095055176E-1,-4.544643847E-1,1.149401439E1
1.018894792E1,-1.157635263E1,1.382232810E-1,-4.121434072E-1,1.158451156E1
1.019891692E1,-1.173648448E1,7.768983476E-2,-4.036653100E-1,1.174368125E1
1.020888692E1,-1.195718413E1,7.427316047E-2,-5.510416762E-1,1.197010508E1
1.021885692E1,-1.202447038E1,1.938838769E-1,-8.130759479E-1,1.205348793E1
1.022882692E1,-1.184191212E1,2.422716330E-1,-1.050866421E0,1.189091663E1
1.023879592E1,-1.115246692E1,6.453045666E-2,-1.086682810E0,1.120547019E1
1.024876592E1,-1.100485162E1,4.241407974E-1,-9.779977617E-1,1.105636171E1
1.025873592E1,-1.099752974E1,7.920568156E-1,-1.016359516E0,1.107275941E1
1.026870592E1,-1.086900794E1,9.173244940E-1,-9.089374671E-1,1.094545500E1
1.027867592E1,-1.072736265E1,1.107117220E0,-7.999822048E-1,1.081397195E1
1.028864492E1,-1.054515054E1,1.195323346E0,-8.049055604E-1,1.064316075E1
1.029861492E1,-1.009459334E1,1.210765696E0,-7.151156437E-1,1.019206351E1
1.030858492E1,-9.682255880E0,1.288957002E0,-8.070958543E-1,9.800963871E0
1.031855492E1,-9.210695479E0,1.207639190E0,-6.893118811E-1,9.315065995E0
1.032852392E1,-8.761007758E0,1.021834264E0,-6.256964406E-1,8.842561746E0
1.033849392E1,-8.432172044E0,4.070474857E-1,-6.163153140E-1,8.464458494E0
1.034846392E1,-7.189024175E0,-2.897799093E0,-4.469418687E-1,7.763959377E0
1.035843392E1,-4.704969676E0,-7.812378879E0,-6.081935314E-1,9.140016563E0
1.036840392E1,1.347384896E1,-1.790712834E1,2.726237401E0,2.257525684E1
1.037837292E1,6.824443497E1,-4.304215432E1,1.887688204E1,8.286293881E1
1.038834292E1,6.916261155E1,6.360079615E0,1.123183001E1,7.035674420E1
1.039831292E1,6.466573784E1,8.916517966E0,-8.780490096E0,6.586546098E1
1.040828292E1,3.620344268E1,-2.830723929E0,-2.064563203E1,4.177253143E1
1.041825292E1,1.566899194E1,-6.502222212E-1,-1.641372607E1,2.270133259E1
1.042822192E1,1.084432801E1,-1.685012161E0,-1.244162594E1,1.659014081E1
1.043819192E1,5.657080572E0,-5.759463564E-2,-7.299375168E0,9.235082868E0
1.044816192E1,1.715793512E0,9.668689755E-1,-3.663053150E0,4.158935124E0
1.045813192E1,4.109195119E-1,8.997452787E-1,-1.103323985E0,1.481796284E0
1.046810092E1,-1.210088296E0,1.319512943E0,6.080996105E-1,1.890823426E0
1.047807092E1,-2.962835627E0,1.507742709E0,1.172847526E0,3.525231105E0
1.048804092E1,-4.421240553E0,1.871786847E0,1.329888535E0,4.981923077E0
1.049801092E1,-5.614287139E0,2.104633938E0,1.469001836E0,6.173141055E0
1.050798092E1,-6.713688812E0,2.170786266E0,1.453581412E0,7.204084217E0
1.051794992E1,-7.701032106E0,2.251494945E0,1.366636970E0,8.138969320E0
1.052791992E1,-8.436928754E0,2.336157512E0,1.364922713E0,8.860158730E0
1.053788992E1,-8.993901772E0,2.392859424E0,1.369605163E0,9.407011407E0
1.054785992E1,-9.365470108E0,2.439595780E0,1.301495333E0,9.765118945E0
1.055782892E1,-9.595583771E0,2.433278448E0,1.115216053E0,9.961916420E0
1.056779892E1,-9.809281962E0,2.406867598E0,8.626748816E-1,1.013702285E1
1.057776892E1,-9.938947477E0,2.364890583E0,7.341399984E-1,1.024277042E1
1.058773892E1,-9.983582783E0,2.310457683E0,6.599786659E-1,1.026867624E1
1.059770892E1,-9.956938190E0,2.332958500E0,6.005301706E-1,1.024421544E1
1.060767792E1,-9.983489227E0,2.350916469E0,4.733859015E-1,1.026747094E1
1.061764792E1,-9.965074006E0,2.367314400E0,3.642254019E-1,1.024887982E1
1.062761792E1,-9.976925143E0,2.396043086E0,2.005337691E-1,1.026256652E1
1.063758792E1,-9.999477854E0,2.397143825E0,-6.221788287E-2,1.028298239E1
1.064755792E1,-1.003983300E1,2.382568909E0,-3.331673312E-1,1.032404386E1
1.065752692E1,-1.007071565E1,2.263139237E0,-5.915569603E-1,1.033881292E1
1.066749692E1,-1.015637502E1,2.137974616E0,-6.990346313E-1,1.040247752E1
1.067746692E1,-1.022036110E1,2.107930598E0,-7.061413372E-1,1.045933975E1
1.068743692E1,-1.032141619E1,2.040963753E0,-6.589035092E-1,1.054188404E1
1.069740592E1,-1.043992639E1,1.956236575E0,-5.034429288E-1,1.063354971E1
1.070737592E1,-1.057015441E1,1.931507531E0,-3.418207718E-1,1.075061519E1
1.071734592E1,-1.059367659E1,1.840736670E0,-2.302909805E-1,1.075487466E1
1.072731592E1,-1.060450329E1,1.716589611E0,-2.935050827E-1,1.074654899E1
1.073728592E1,-1.056632799E1,1.611890829E0,-4.669709212E-1,1.069876353E1
1.074725492E1,-1.047457582E1,1.533147545E0,-6.140851128E-1,1.060397947E1
1.075722492E1,-1.048174568E1,1.402009555E0,-7.336198886E-1,1.060051043E1
1.076719492E1,-1.047698370E1,1.301678790E0,-8.577432668E-1,1.059232169E1
1.077716492E1,-1.046680604E1,1.189004990E0,-9.463759464E-1,1.057654901E1
1.078713392E1,-1.048988851E1,1.089450735E0,-1.010790190E0,1.059463830E1
1.079710392E1,-1.040261881E1,1.135690663E0,-9.663868725E-1,1.050895690E1
1.080707392E1,-1.019843054E1,1.065538401E0,-7.823019058E-1,1.028374221E1
1.081704392E1,-9.882400224E0,6.785413098E-1,-6.974652386E-1,9.930191854E0
1.082701392E1,-9.283108567E0,-1.106079778E-1,-5.991010380E-1,9.303078031E0
1.083698292E1,-8.408377969E0,-1.394411537E0,1.731003144E-1,8.524973157E0
1.084695292E1,-7.582673351E0,-1.335748761E0,1.207784932E0,7.793580971E0
1.085692292E1,6.388697058E-1,4.145964750E0,2.691689712E0,4.984212246E0
1.086689292E1,6.164760627E1,1.907365722E1,1.673103810E1,6.666452875E1
1.087686292E1,7.001187050E1,-1.387788805E1,2.024259515E1,7.418908576E1
1.088683192E1,6.607787317E1,-1.113905925E1,-1.038286224E1,6.780979127E1
1.089680192E1,3.966568198E1,1.204087664E0,-8.800564756E0,4.064807614E1
1.090677192E1,1.642739920E1,3.683058082E-1,-3.975987360E0,1.690572593E1
1.091674192E1,9.053609446E0,7.219535239E-2,-2.914745786E0,9.511508774E0
1.092671192E1,5.748508805E0,-4.519253775E-1,-1.771643193E0,6.032272344E0
1.093668092E1,2.207184160E0,-4.038937169E-1,-9.275379717E-1,2.427986561E0
1.094665092E1,-9.799313629E-1,6.779583424E-2,-9.036696374E-1,1.334721156E0
1.095662092E1,-3.385041434E0,2.299346658E-1,-3.620917163E-1,3.412108713E0
1.096659092E1,-5.358187280E0,4.047544270E-1,2.971099643E-1,5.381660655E0
1.097655992E1,-6.710186330E0,3.089616857E-1,1.261247340E0,6.834676493E0
1.098652992E1,-7.980835993E0,-1.585779503E-2,2.307246977E0,8.307670144E0
1.099649992E1,-9.249911585E0,-5.149113652E-1,1.244956412E0,9.347508465E0
1.100646992E1,-9.840485044E0,-4.974948487E-1,-1.746779662E0,1.000669207E1
1.101643992E1,-9.970150559E0,-7.538749360E-2,-2.808349850E0,1.035839825E1
1.102640892E1,-1.012735178E1,2.237425375E-1,-2.424262626E0,1.041587078E1
1.103637892E1,-1.029518909E1,6.293578208E-1,-1.583252775E0,1.043521437E1
1.104634892E1,-1.041953013E1,8.863222642E-1,-6.397260305E-1,1.047670868E1
1.105631892E1,-1.042561591E1,1.107828388E0,1.599342120E-1,1.048552955E1
1.106628892E1,-1.051127061E1,1.279347396E0,7.504527068E-1,1.061540008E1
1.107625792E1,-1.064150681E1,1.282891247E0,1.058673185E0,1.077071335E1
1.108622792E1,-1.067305371E1,1.388305289E0,1.245532948E0,1.083479669E1
1.109619792E1,-1.060712050E1,1.513146267E0,1.450851201E0,1.081228867E1
1.110616792E1,-1.057018247E1,1.643877876E0,1.584509780E0,1.081396150E1
1.111613692E1,-1.054130074E1,1.745478365E0,1.618697573E0,1.080675242E1
1.112610692E1,-1.051693188E1,1.804421660E0,1.534243752E0,1.078033847E1
1.113607692E1,-1.054301865E1,1.885318035E0,1.438424552E0,1.080642085E1
1.114604692E1,-1.060284034E1,1.950810066E0,1.359764007E0,1.086622480E1
1.115601692E1,-1.065422100E1,1.995884352E0,1.289969594E0,1.091604328E1
1.116598592E1,-1.071589275E1,2.054742863E0,1.193194520E0,1.097615774E1
1.117595592E1,-1.074881140E1,2.089499590E0,1.076272427E0,1.100278680E1
1.118592208E1,-1.066373792E1,2.039062092E0,9.663015032E-1,1.089985410E1
1.119589208E1,-1.061069198E1,2.042956338E0,8.862857922E-1,1.084186135E1
1.120586108E1,-1.062636486E1,2.110622656E0,8.509943374E-1,1.086731565E1
1.121583108E1,-1.061380504E1,2.185611443E0,8.985335163E-1,1.087368922E1
1.122580108E1,-1.058001047E1,2.298191394E0,8.727144778E-1,1.086185693E1
1.123577108E1,-1.046728083E1,2.451593974E0,7.955429256E-1,1.077994293E1
1.124574108E1,-1.030653620E1,2.666616851E0,7.849933791E-1,1.067481843E1
1.125571008E1,-1.007769489E1,2.820823131E0,7.284741926E-1,1.049035996E1
1.126568008E1,-9.707359731E0,2.869137796E0,6.557675743E-1,1.014370819E1
1.127565008E1,-9.367009095E0,2.867031045E0,5.558199477E-1,9.811710463E0
1.128562008E1,-9.107935342E0,2.916368096E0,5.020758863E-1,9.576626194E0
1.129559008E1,-8.787002140E0,2.793517511E0,4.242271900E-1,9.230120010E0
1.130555908E1,-8.466627932E0,2.460298432E0,3.427743431E-1,8.823511271E0
1.131552908E1,-8.080072598E0,1.310573866E0,-5.742480326E-1,8.205786851E0
1.132549908E1,-4.670937127E0,-4.035914597E0,-2.018077605E0,6.494528273E0
1.133546908E1,2.869649720E1,-3.973592809E1,-5.403038932E0,4.931151754E1
1.134543808E1,5.900952500E1,-5.547859729E1,4.639155171E0,8.112657122E1
1.135540808E1,6.960997032E1,-2.796649104E1,1.029766012E0,7.502488259E1
1.136537808E1,6.412721396E1,2.576820693E1,-1.485949873E1,7.069020272E1
1.137534808E1,4.092111192E1,2.153292830E1,-1.859018253E1,4.983772957E1
1.138531808E1,2.344519936E1,-3.046291766E0,-1.016936637E1,2.573661359E1
1.139528708E1,1.380255837E1,-4.485406144E0,-5.742585576E0,1.560790745E1
1.140525708E1,1.020569161E1,-3.204437315E0,-4.263077463E0,1.151513739E1
1.141522708E1,7.652558103E0,-1.234033667E0,-2.413732814E0,8.118533778E0
1.142519708E1,4.637617353E0,2.852181163E-1,-1.499564062E0,4.882369964E0
1.143516708E1,2.494636205E0,1.318259008E0,-7.988432403E-1,2.932433654E0
1.144513608E1,-3.734417832E-1,1.837574496E0,-4.943835452E-2,1.875788620E0
1.145510608E1,-3.170821672E0,2.420702110E0,1.702193912E-1,3.992854045E0
1.146507608E1,-5.385104352E0,3.492172365E0,-7.739381947E-2,6.418769860E0
1.147504608E1,-7.224936020E0,3.426392943E0,-1.741253678E-1,7.998136579E0
1.148501608E1,-8.652541323E0,3.040617628E0,-2.836833319E-2,9.171293893E0
1.149498508E1,-9.620944315E0,2.805461326E0,1.878330320E-1,1.002339583E1
1.150495508E1,-1.003722514E1,2.593635121E0,2.487247664E-1,1.036989371E1
1.151492508E1,-1.029793144E1,2.371874351E0,4.723621271E-1,1.057810502E1
1.152489508E1,-1.047109322E1,2.060406330E0,6.623198911E-1,1.069241484E1
1.153486408E1,-1.062774597E1,1.898386124E0,8.703644087E-1,1.083099204E1
1.154483408E1,-1.064962041E1,1.854337440E0,7.601834969E-1,1.083655209E1
1.155480408E1,-1.057245119E1,1.939463106E0,4.898586043E-1,1.076002801E1
1.156477408E1,-1.052124830E1,2.076922229E0,3.191467313E-1,1.072903194E1
1.157474408E1,-1.046634294E1,2.219096400E0,8.259996101E-2,1.069932456E1
1.158471308E1,-1.045543788E1,2.322105629E0,-4.060306549E-2,1.071027565E1
1.159468308E1,-1.048036222E1,2.386407021E0,-1.320425548E-2,1.074863271E1
1.160465308E1,-1.047388351E1,2.321255590E0,1.848472975E-2,1.072803826E1
1.161462308E1,-1.050696004E1,2.283537979E0,4.211113550E-2,1.075232665E1
1.162459308E1,-1.054338585E1,2.146284094E0,1.909115545E-1,1.076131813E1
1.163456208E1,-1.043130642E1,2.082399608E0,1.560160293E-1,1.063827443E1
1.164453208E1,-1.050608062E1,2.044454979E0,-3.163343668E-3,1.070315543E1
1.165450208E1,-1.054305139E1,1.916524771E0,-1.061176085E-1,1.071635483E1
1.166447208E1,-1.056826693E1,1.793076162E0,-8.782870570E-2,1.071965959E1
1.167444108E1,-1.047836599E1,1.697418199E0,3.110011579E-2,1.061500586E1
1.168441108E1,-1.041648841E1,1.638124216E0,1.767601232E-1,1.054599099E1
1.169438108E1,-1.042839217E1,1.613989249E0,2.468531092E-1,1.055543751E1
1.170435108E1,-1.047266729E1,1.570006493E0,2.515238651E-1,1.059268355E1
1.171432108E1,-1.046405200E1,1.491432924E0,3.157496452E-1,1.057451910E1
1.172429008E1,-1.047661650E1,1.458545552E0,4.830326378E-1,1.058868117E1
1.173426008E1,-1.045413395E1,1.436660886E0,5.917265296E-1,1.056896644E1
1.174423008E1,-1.048450439E1,1.365429959E0,7.473724667E-1,1.059942437E1
1.175420008E1,-1.051024384E1,1.258142907E0,8.920417182E-1,1.062280036E1
1.176417008E1,-1.045371997E1,1.132735188E0,1.090070686E0,1.057126314E1
1.177413908E1,-1.035527859E1,1.004621012E0,1.301831110E0,1.048502848E1
1.178410908E1,-9.793465244E0,8.832382965E-1,1.415079982E0,9.934511700E0
1.179407908E1,-9.328388236E0,5.394183616E-1,1.573929974E0,9.475603137E0
1.180404908E1,-8.923680221E0,-1.917607529E-1,1.849818273E0,9.115408302E0
1.181401808E1,-7.353513953E0,-2.662229393E0,3.093829629E0,8.410315962E0
1.182398808E1,-6.187092664E0,-2.703494363E0,3.716466880E0,7.707212432E0
1.183395808E1,6.335896701E0,2.068287938E0,4.425946977E0,8.000650514E0
1.184392808E1,6.632475197E1,-3.907951790E0,1.820679347E1,6.888927449E1
1.185389808E1,6.988105659E1,-5.590512360E0,2.994204769E0,7.016823470E1
1.186386708E1,6.355312029E1,-1.740785389E0,-2.405971834E1,6.797719823E1
1.187383708E1,3.360158374E1,-3.683227798E0,-1.543033667E1,3.715814697E1
1.188380708E1,1.475071947E1,-2.410348299E0,-5.187102427E0,1.582085761E1
1.189377708E1,9.680522180E0,-1.308148441E0,-2.226227665E0,1.001897458E1
1.190374708E1,5.076331020E0,-3.795166748E-1,-4.418141529E-1,5.109634946E0
1.191371608E1,1.210523329E0,4.657506803E-1,2.737622514E-1,1.325607859E0
1.192368608E1,-1.483837976E0,8.923862654E-1,2.076299500E-1,1.743914729E0
1.193365608E1,-3.684384377E0,1.145273518E0,2.554592970E-1,3.866729771E0
1.194362608E1,-5.521895285E0,1.220486107E0,2.560098124E-1,5.660958832E0
1.195359608E1,-7.154073029E0,1.303543759E0,-2.207031548E-1,7.275211139E0
1.196356508E1,-8.414177822E0,1.589234915E0,-1.001436106E0,8.621306764E0
1.197353508E1,-1.073310695E1,1.965148755E0,9.603288648E-1,1.095370376E1
1.198350508E1,-1.465826096E1,9.001666436E-1,-5.086246144E0,1.554171207E1
1.199347508E1,-1.531972138E1,1.569953575E0,-2.477958543E1,2.917510020E1
1.200344508E1,-1.398977218E1,3.357567414E0,-1.924690437E1,2.402977970E1
1.201341408E1,-1.200781634E1,2.635965747E0,-3.210659629E0,1.270607350E1
1.202338408E1,-1.103523025E1,1.901358263E0,2.888993771E-1,1.120155939E1
1.203335408E1,-1.056935451E1,1.876774084E0,1.492705278E0,1.083797512E1
1.204332408E1,-1.048625271E1,1.918206431E0,1.720525518E0,1.079820447E1
1.205329308E1,-1.036584801E1,1.964656127E0,1.500343935E0,1.065653371E1
1.206326308E1,-1.019444975E1,2.123302051E0,1.074451604E0,1.046850818E1
1.207323308E1,-1.016990665E1,2.114772718E0,8.657258856E-1,1.042347093E1
1.208320308E1,-1.022623054E1,2.079929744E0,7.165178791E-1,1.046017670E1
1.209317308E1,-1.046380525E1,2.002280182E0,1.234303955E0,1.072491736E1
1.210314208E1,-1.073006289E1,1.928434234E0,2.127130516E0,1.110755565E1
1.211311208E1,-1.091084710E1,1.873344692E0,2.375036087E0,1.132240263E1
1.212308208E1,-1.114339906E1,1.737015982E0,2.497638751E0,1.155122359E1
1.213305208E1,-1.112901491E1,1.379284790E0,2.389057710E0,1.146581860E1
1.214302208E1,-1.144648597E1,1.325167055E0,1.826790622E0,1.166684502E1
1.215299108E1,-1.168510383E1,1.307183505E0,1.008386253E0,1.180115346E1
1.216296108E1,-1.153016898E1,1.351761507E0,4.085508049E-1,1.161632342E1
1.217293108E1,-1.134602145E1,1.334487370E0,1.779296029E-1,1.142561676E1
1.218290158E1,-1.114277925E1,1.286598089E0,1.441046206E-1,1.121773731E1
1.219287058E1,-1.099404246E1,1.256412862E0,1.613971853E-1,1.106677875E1
1.220284058E1,-1.091168326E1,1.177881759E0,1.957893018E-1,1.097681968E1
1.221281058E1,-1.078509922E1,1.072783539E0,2.384505872E-1,1.084094500E1
1.222278058E1,-1.066149025E1,1.027182128E0,2.319713241E-1,1.071336960E1
1.223275058E1,-1.057499356E1,9.440251464E-1,2.053553466E-1,1.061903212E1
1.224271958E1,-1.046408592E1,8.761984681E-1,7.222473465E-2,1.050095397E1
1.225268958E1,-1.037992343E1,8.067423170E-1,-7.389356654E-2,1.041148903E1
1.226265958E1,-1.027289483E1,7.376070318E-1,-2.252301057E-1,1.030180377E1
1.227262958E1,-9.789117839E0,4.171416072E-1,-4.279320589E-1,9.807342200E0
1.228259958E1,-9.458993983E0,7.772948619E-2,-6.839822902E-1,9.484009744E0
1.229256858E1,-8.814322670E0,-9.190042529E-1,-9.705793262E-1,8.915092662E0
1.230253858E1,-7.381240865E0,-2.245181122E0,-1.209732858E0,7.809417940E0
1.231250858E1,-3.692129014E0,-1.689661429E0,-1.827816224E-1,4.064502617E0
1.232247858E1,5.355024170E1,-6.611502287E0,1.992790970E1,5.751923099E1
1.233244858E1,7.059506711E1,-6.515366460E0,3.308632008E1,7.823565733E1
1.234241758E1,6.743616265E1,-4.077675118E0,-9.202476633E-1,6.756560015E1
1.235238758E1,4.890048903E1,-1.567524788E0,-1.164274192E1,5.029183235E1
1.236235758E1,2.134231140E1,-1.040658206E-2,-1.080395299E1,2.392111545E1
1.237232758E1,1.323151929E1,-1.306132321E0,-9.056351205E0,1.608715579E1
1.238229758E1,8.090593493E0,-5.945884493E-1,-6.507172172E0,1.039973693E1
1.239226658E1,5.074072241E0,-9.065698564E-2,-3.396118984E0,6.106394349E0
1.240223658E1,2.822802998E0,7.626265367E-1,-5.120033987E-1,2.968495154E0
1.241220658E1,8.027730078E-1,1.565477093E0,3.522867031E-1,1.794232134E0
1.242217658E1,-1.042233446E0,1.966491129E0,-4.137374313E-1,2.263739512E0
1.243214558E1,-2.900291469E0,2.172273359E0,-1.221472679E0,3.823932225E0
1.244211558E1,-4.435379705E0,2.260197795E0,-1.450764078E0,5.185152227E0
1.245208558E1,-5.865998079E0,2.081910781E0,-1.112864449E0,6.323191697E0
1.246205558E1,-7.108569996E0,1.976433735E0,-4.597724140E-1,7.392526522E0
1.247202558E1,-8.139324188E0,1.836161663E0,-1.569027230E-2,8.343880037E0
1.248199458E1,-9.039647464E0,1.649433754E0,4.630271204E-1,9.200557163E0
1.249196458E1,-9.658695109E0,1.549228850E0,7.222619645E-1,9.808779923E0
1.250193458E1,-1.007611848E1,1.497819838E0,7.696245575E-1,1.021586755E1
1.251190458E1,-1.038404923E1,1.391923254E0,7.808559624E-1,1.050598233E1
1.252187458E1,-1.053122131E1,1.234663851E0,8.151919091E-1,1.063463939E1
1.253184358E1,-1.056762490E1,1.044228150E0,7.981588237E-1,1.064904531E1
1.254181358E1,-1.055080012E1,9.274175922E-1,7.151379362E-1,1.061559743E1
1.255178358E1,-1.052015370E1,8.739097217E-1,6.612207607E-1,1.057707733E1
1.256175358E1,-1.047250006E1,7.961773485E-1,6.674234140E-1,1.052390659E1
1.257172358E1,-1.045358315E1,7.558230089E-1,6.599856826E-1,1.050163083E1
1.258169258E1,-1.041463952E1,6.657920408E-1,5.316592526E-1,1.044943333E1
1.259166258E1,-1.037545382E1,5.852729211E-1,4.648500995E-1,1.040233974E1
1.260163258E1,-1.036349276E1,4.801207244E-1,4.070012927E-1,1.038258870E1
1.261160258E1,-1.036292908E1,3.880539386E-1,3.216821937E-1,1.037518022E1
1.262157158E1,-1.035435707E1,2.428053376E-1,2.359842682E-1,1.035989157E1
1.263154158E1,-1.036835179E1,1.359445662E-1,1.221717421E-1,1.036996267E1
1.264151158E1,-1.042461019E1,3.437491287E-2,5.455687006E-2,1.042480963E1
1.265148158E1,-1.046829006E1,-6.588584125E-2,1.216220856E-2,1.046850446E1
1.266145158E1,-1.052822285E1,-1.583078089E-1,-1.118753618E-1,1.053000731E1
1.267142058E1,-1.052532380E1,-2.513460914E-1,-1.272921397E-1,1.052909395E1
1.268139058E1,-1.048878923E1,-3.445665512E-1,-1.121174731E-1,1.049504626E1
1.269136058E1,-1.053468520E1,-4.723009871E-1,-6.260966459E-2,1.054545307E1
1.270133058E1,-1.058390940E1,-5.625056541E-1,-6.245995760E-2,1.059903071E1
1.271130058E1,-1.066862269E1,-6.363165191E-1,-2.635281622E-2,1.068761448E1
1.272126958E1,-1.064913743E1,-7.076940653E-1,1.469986361E-2,1.067263674E1
1.273123958E1,-1.062478611E1,-7.526867086E-1,7.835382264E-2,1.065170205E1
1.274120958E1,-1.056408734E1,-8.219227121E-1,1.425562505E-1,1.059697223E1
1.275117958E1,-1.052628158E1,-9.074195299E-1,1.065093355E-1,1.056585814E1
1.276114958E1,-1.017135208E1,-8.688336807E-1,-2.767487168E-2,1.020842990E1
1.277111858E1,-9.367736489E0,-1.137796245E0,-1.286340666E-1,9.437458023E0
1.278108858E1,-8.546378106E0,-1.874686482E0,-1.664462195E-1,8.751156065E0
1.279105858E1,-7.985450031E0,-2.586764643E0,-4.620487350E-1,8.406679044E0
1.280102858E1,-7.139032236E0,-2.017249054E0,-1.059977954E-1,7.419320086E0
1.281099858E1,2.505650489E1,3.099922896E1,6.407493517E0,4.037123489E1
1.282096758E1,6.984759181E1,2.508731737E1,1.207233451E1,7.519176042E1
1.283093758E1,6.876987044E1,-4.831826540E1,-1.442676501E0,8.405968812E1
1.284090758E1,6.368942591E1,-1.318198051E1,-1.049385994E1,6.588041195E1
1.285087758E1,3.288645757E1,8.273629469E0,-3.683447653E0,3.411069954E1
1.286084758E1,1.273874168E1,8.173486546E-1,-1.894065177E0,1.290469222E1
1.287081658E1,9.327719899E0,-1.096326622E0,-1.147433041E0,9.461759517E0
1.288078658E1,4.018335820E0,-6.496240510E-1,-4.618879366E-1,4.096629668E0
1.289075658E1,6.330213207E-1,-3.408145757E-1,2.214761384E-1,7.522780386E-1
1.290072658E1,-2.330111344E0,3.530420172E-1,4.685701346E-1,2.402834891E0
1.291069558E1,-4.828769265E0,6.491313500E-1,-2.682018783E-1,4.879581577E0
1.292066558E1,-6.604496153E0,7.607354010E-1,-6.531562078E-1,6.680172215E0
1.293063558E1,-7.892751782E0,1.005619058E0,-7.847846335E-1,7.995166496E0
1.294060558E1,-8.848901349E0,9.855438859E-1,-7.799806342E-1,8.937713445E0
1.295057558E1,-9.593814989E0,9.355551622E-1,-7.792491475E-1,9.670769294E0
1.296054458E1,-9.978550669E0,1.017331177E0,-1.008651863E0,1.008086379E1
1.297051458E1,-1.021834147E1,1.045154203E0,-1.131697088E0,1.033380802E1
1.298048458E1,-1.050332073E1,1.003234856E0,-1.192929057E0,1.061834763E1
1.299045458E1,-1.057427319E1,1.016776496E0,-1.198276336E0,1.069041412E1
1.300042458E1,-1.054436234E1,1.047565814E0,-1.101608412E0,1.065338033E1
1.301039358E1,-1.049809215E1,1.111284531E0,-1.037770778E0,1.060763217E1
1.302036358E1,-1.045565774E1,1.154287586E0,-1.011914975E0,1.056774008E1
1.303033358E1,-1.040065298E1,1.190880923E0,-9.628164896E-1,1.051279199E1
1.304030358E1,-1.040566404E1,1.249644125E0,-8.983422393E-1,1.051886274E1
1.305027358E1,-1.048294202E1,1.329135122E0,-6.914654106E-1,1.058946637E1
1.306024258E1,-1.058600504E1,1.380459495E0,-4.996470260E-1,1.068732044E1
1.307021258E1,-1.061422838E1,1.372597183E0,-4.846277948E-1,1.071357696E1
1.308018258E1,-1.056874055E1,1.387327781E0,-4.818432411E-1,1.067029185E1
1.309015258E1,-1.059613359E1,1.437170763E0,-5.415603429E-1,1.070685735E1
1.310012258E1,-1.066892207E1,1.480656506E0,-5.106478679E-1,1.078327422E1
1.311009158E1,-1.065713525E1,1.604863792E0,-4.028280618E-1,1.078482220E1
1.312006158E1,-1.057707283E1,1.720418368E0,-3.918429708E-1,1.072323878E1
1.313003158E1,-1.052254170E1,1.821888755E0,-3.582237466E-1,1.068510584E1
1.314000158E1,-1.046891572E1,1.940026778E0,-3.401466044E-1,1.065258653E1
1.314997158E1,-1.043456449E1,2.032009473E0,-3.786107218E-1,1.063731849E1
1.315994058E1,-1.044376099E1,2.095223137E0,-4.905334461E-1,1.066314807E1
1.316991058E1,-1.042671987E1,2.165990965E0,-5.354834413E-1,1.066277387E1
1.317988058E1,-1.040828477E1,2.211491804E0,-5.201518591E-1,1.065333965E1
1.318984917E1,-1.033270132E1,2.283881796E0,-5.406720778E-1,1.059590293E1
1.319981817E1,-1.036945458E1,2.283411972E0,-5.325317303E-1,1.063123457E1
1.320978817E1,-1.042273674E1,2.272733787E0,-4.694531373E-1,1.067797483E1
1.321975817E1,-1.041790928E1,2.291655961E0,-4.039221855E-1,1.067462758E1
1.322972817E1,-1.028217319E1,2.199093076E0,-3.747410711E-1,1.052138426E1
1.323969817E1,-9.514446053E0,1.531526990E0,-2.113312010E-1,9.639238533E0
1.324966717E1,-8.994129814E0,1.029230115E0,-1.812847717E-1,9.054642451E0
1.325963717E1,-8.494143759E0,-4.901846597E-1,-6.956841767E-2,8.508560334E0
1.326960717E1,-7.302700480E0,-3.529506545E0,4.041131336E-2,8.111010037E0
1.327957717E1,-6.069681743E0,-5.407978075E0,-6.403654236E-1,8.154589579E0
1.328954717E1,2.881550909E1,-3.302978218E1,1.851095744E0,4.387170649E1
1.329951617E1,7.095519011E1,-4.626413386E1,9.115889894E0,8.519453348E1
1.330948617E1,6.821224254E1,2.887450048E1,-1.015661359E0,7.407886593E1
1.331945617E1,6.140139639E1,2.658841224E1,-3.078519280E0,6.698173202E1
1.332942617E1,3.542110394E1,-8.315519507E0,-1.117378353E0,3.640125002E1
1.333939617E1,1.578054746E1,-4.665258896E0,-1.649134669E0,1.653813665E1
1.334936517E1,8.050613156E0,-1.994736982E0,-1.608052132E0,8.448501611E0
1.335933517E1,4.644098992E0,-4.962697839E-1,-1.345274752E0,4.860422132E0
1.336930517E1,1.491569749E0,4.667282617E-1,-8.456582415E-1,1.777006879E0
1.337927517E1,-6.832635212E-1,1.354625327E0,-5.820938265E-1,1.625020627E0
1.338924517E1,-2.478458129E0,1.677011270E0,-6.585777462E-1,3.064122410E0
1.339921417E1,-4.197550056E0,1.527680984E0,-8.496238232E-1,4.546987607E0
1.340918417E1,-5.838693336E0,1.407613965E0,-9.147729883E-1,6.075238807E0
1.341915417E1,-7.218684762E0,1.290978093E0,-9.015699023E-1,7.388427601E0
1.342912417E1,-8.235413822E0,1.223871426E0,-8.708399335E-1,8.371276144E0
1.343909417E1,-9.052674476E0,1.211272138E0,-6.901434282E-1,9.159388261E0
1.344906317E1,-9.685337947E0,1.165543695E0,-3.629437653E-1,9.761966576E0
1.345903317E1,-1.005204666E1,1.052764866E0,-3.852245075E-1,1.011436374E1
1.346900317E1,-1.015797482E1,9.462920389E-1,-6.219765151E-1,1.022089897E1
1.347897317E1,-1.019009358E1,8.401133269E-1,-7.883029032E-1,1.025500946E1
1.348894317E1,-1.026829541E1,7.394564331E-1,-8.413716477E-1,1.032921065E1
1.349891217E1,-1.026926605E1,6.693456861E-1,-8.634945881E-1,1.032721994E1
1.350888217E1,-1.028955822E1,6.172901910E-1,-8.093077829E-1,1.033977924E1
1.351885217E1,-1.033372341E1,5.903700121E-1,-7.008426634E-1,1.037427379E1
1.352882217E1,-1.037429724E1,5.707307131E-1,-5.186592112E-1,1.040292191E1
1.353879217E1,-1.042510604E1,5.409230329E-1,-2.582031760E-1,1.044232266E1
1.354876117E1,-1.046765038E1,4.638681327E-1,-1.752224151E-1,1.047938839E1
1.355873117E1,-1.053348652E1,4.141641684E-1,-6.774938542E-2,1.054184330E1
1.356870117E1,-1.060522718E1,2.935957328E-1,3.899153631E-2,1.060936201E1
1.357867117E1,-1.066482317E1,1.704998383E-1,-5.724442396E-3,1.066618752E1
1.358864117E1,-1.073789465E1,1.303166029E-1,3.832499027E-2,1.073875378E1
1.359861017E1,-1.071999983E1,-3.011599286E-3,3.905414720E-2,1.072007140E1
1.360858017E1,-1.074141701E1,-1.911770729E-1,5.191742778E-2,1.074324362E1
1.361855017E1,-1.081005631E1,-3.248999530E-1,1.150965929E-1,1.081555013E1
1.362852017E1,-1.078355205E1,-4.774465369E-1,1.210198315E-1,1.079479485E1
1.363849017E1,-1.073110136E1,-5.069497598E-1,8.700304231E-2,1.074342143E1
1.364845917E1,-1.058832755E1,-5.579354703E-1,1.223506486E-1,1.060372303E1
1.365842917E1,-1.056904344E1,-6.228030190E-1,1.874371755E-1,1.058903657E1
1.366839917E1,-1.053240478E1,-6.522256965E-1,1.522708694E-1,1.055367876E1
1.367836917E1,-1.050039712E1,-7.226079735E-1,1.653615975E-1,1.052653060E1
1.368833917E1,-1.046916948E1,-8.194512402E-1,1.662175934E-1,1.050250629E1
1.369830817E1,-1.045501805E1,-9.026656705E-1,1.477065146E-1,1.049495236E1
1.370827817E1,-1.046843858E1,-9.576988602E-1,1.714742951E-1,1.051355301E1
1.371824817E1,-1.051925439E1,-1.035923423E0,2.929150987E-1,1.057419735E1
1.372821817E1,-1.047809350E1,-1.202033464E0,4.684578681E-1,1.055721463E1
1.373818817E1,-9.894954196E0,-1.321154695E0,6.029882669E-1,1.000095811E1
1.374815717E1,-8.876412499E0,-1.773595578E0,5.732037199E-1,9.070000145E0
1.375812717E1,-8.024082000E0,-2.694847208E0,6.985551596E-1,8.493295752E0
1.376809717E1,-7.651795626E0,-3.137843083E0,1.374117898E0,8.383569378E0
1.377806717E1,-3.901821277E0,2.863743448E0,2.787432021E0,5.585249599E0
1.378803717E1,5.189592874E1,5.538122478E1,1.385548269E1,7.715077367E1
1.379800617E1,7.085743870E1,-6.093821388E0,8.858724672E0,7.166860038E1
1.380797617E1,6.730159249E1,-5.033748204E1,-1.418005110E1,8.523168601E1
1.381794617E1,4.264829523E1,1.106336544E0,-1.538688133E1,4.535258739E1
1.382791617E1,1.904926848E1,4.005876573E0,-4.942180105E0,2.008349624E1
1.383788617E1,8.670220964E0,1.120611936E0,-2.150912165E0,9.003050917E0
1.384785517E1,3.332877254E0,7.064337710E-1,-1.070053255E0,3.571012942E0
1.385782517E1,-1.870003885E-1,1.823265629E-1,1.001617443E-1,2.797221762E-1
1.386779517E1,-3.178723599E0,3.724799893E-1,6.484258103E-1,3.265498598E0
1.387776517E1,-5.907564180E0,9.395657674E-1,1.274443921E0,6.116069464E0
1.388773517E1,-8.151202807E0,1.353372561E0,3.421573083E0,8.943203389E0
1.389770417E1,-1.013649215E1,1.287714469E0,4.139481357E0,1.102460827E1
1.390767417E1,-1.138889324E1,1.054233029E0,-1.087501712E-1,1.143809963E1
1.391764417E1,-1.097702472E1,8.148104513E-1,-2.512686560E0,1.129037562E1
1.392761417E1,-1.075845229E1,1.069102863E0,-2.468191588E0,1.108960082E1
1.393758417E1,-1.065793866E1,1.468903018E0,-2.186816554E0,1.097868385E1
1.394755317E1,-1.065642423E1,1.672613433E0,-1.687873935E0,1.091814689E1
1.395752317E1,-1.079323972E1,1.770693020E0,-6.744397804E-1,1.095829578E1
1.396749317E1,-1.078057114E1,1.715957819E0,6.247282147E-1,1.093414426E1
1.397746317E1,-1.061513119E1,1.654868449E0,1.763984802E0,1.088720543E1
1.398743317E1,-1.051282947E1,1.616816524E0,2.595198959E0,1.094845820E1
1.399740217E1,-1.053523951E1,1.661486912E0,3.181259537E0,1.112978987E1
1.400737217E1,-1.060476291E1,1.726510435E0,3.484232139E0,1.129520731E1
1.401734217E1,-1.064532621E1,1.811953020E0,3.679419506E0,1.140807923E1
1.402731217E1,-1.061299345E1,1.828923833E0,3.583936521E0,1.135011865E1
1.403728117E1,-1.034844319E1,1.731318016E0,3.340383325E0,1.101117157E1
1.404725117E1,-1.016996629E1,1.735344409E0,3.196490364E0,1.080079558E1
1.405722117E1,-1.015009745E1,1.737241684E0,3.180879468E0,1.077777719E1
1.406719117E1,-1.006652905E1,1.815346891E0,3.125269231E0,1.069569068E1
1.407716117E1,-1.006165948E1,2.066665628E0,3.179297504E0,1.075248953E1
1.408713017E1,-1.008525183E1,2.220017629E0,3.252894068E0,1.082691565E1
1.409710017E1,-9.993993165E0,2.355329655E0,3.237394269E0,1.076606701E1
1.410707017E1,-9.933271000E0,2.489105324E0,3.225885487E0,1.073647313E1
1.411704017E1,-9.904241914E0,2.593112380E0,3.195955344E0,1.072531446E1
1.412701017E1,-9.847636188E0,2.649998479E0,3.145123744E0,1.067193674E1
1.413697917E1,-9.831681476E0,2.729969971E0,3.073190420E0,1.065641572E1
1.414694917E1,-9.834551289E0,2.824450158E0,2.999284830E0,1.066262760E1
1.415691917E1,-9.824076587E0,2.911257922E0,2.927242455E0,1.065629635E1
1.416688917E1,-9.800159721E0,3.021815614E0,2.809521632E0,1.063333964E1
1.417685917E1,-9.792226803E0,3.080223159E0,2.730195673E0,1.062212073E1
1.418682904E1,-9.711693102E0,3.107098424E0,2.627300173E0,1.052966048E1
1.419679904E1,-9.550506417E0,3.089839489E0,2.473020219E0,1.033804188E1
1.420676904E1,-9.330437685E0,3.027887947E0,2.247391077E0,1.006359476E1
1.421673904E1,-9.125244269E0,2.946100603E0,1.856725004E0,9.767139780E0
1.422670904E1,-8.866170516E0,2.893714229E0,1.137599340E0,9.395567780E0
1.423667804E1,-8.538752167E0,1.883712097E0,-1.974588354E0,8.964243359E0
1.424664804E1,-7.133375055E-1,-8.157622465E0,-5.700946383E0,9.977797570E0
1.425661804E1,6.017538963E1,-6.481655859E1,-2.837653756E0,8.848907313E1
1.426658804E1,7.051977837E1,-5.794554225E1,-8.737824717E-1,9.127698781E1
1.427655804E1,6.842331299E1,1.213663167E1,-1.208563342E1,7.053446054E1
1.428652804E1,5.563643469E1,3.897274716E1,-1.312413400E1,6.918475829E1
1.429649704E1,3.073195507E1,-6.274871650E0,-8.054068276E0,3.238356207E1
1.430646704E1,1.716623232E1,-8.132908623E0,-7.298903883E0,2.034939146E1
1.431643704E1,9.352367667E0,-4.580533326E0,-5.412617841E0,1.173646022E1
1.432640704E1,4.862336376E0,-2.415513145E0,-2.208935109E0,5.861434389E0
1.433637704E1,1.604948430E0,3.251300409E-2,-1.621111304E-1,1.613442462E0
1.434634604E1,-1.246076154E0,1.164547549E0,5.390337610E-1,1.788696221E0
1.435631604E1,-3.462107736E0,1.509857208E0,9.936221798E-1,3.905527340E0
1.436628604E1,-4.977610139E0,1.816192252E0,1.082672497E0,5.408080688E0
1.437625604E1,-6.348459443E0,1.891571340E0,1.023994811E0,6.702950456E0
1.438622604E1,-7.474496938E0,2.112421552E0,9.433969362E-1,7.824348348E0
1.439619504E1,-8.351282247E0,2.489533925E0,1.446635943E0,8.833710992E0
1.440616504E1,-8.995533146E0,3.893648331E0,3.385376480E0,1.037019227E1
1.441613504E1,-9.730012429E0,3.770265065E0,3.501562994E0,1.100676991E1
1.442610504E1,-1.030146315E1,4.121120515E0,2.600010048E0,1.139578122E1
1.443607504E1,-1.075586548E1,5.219255097E0,2.295040330E0,1.217359750E1
1.444604404E1,-1.108500408E1,5.856819119E0,1.725417737E0,1.265530371E1
1.445601404E1,-1.133495735E1,5.816075136E0,1.204171060E0,1.279679710E1
1.446598404E1,-1.140104960E1,5.399100832E0,7.477548015E-1,1.263698378E1
1.447595404E1,-1.123710537E1,4.492677156E0,6.514476514E-1,1.211945003E1
1.448592404E1,-1.091634933E1,3.460164999E0,9.386485586E-1,1.149001679E1
1.449589304E1,-1.051728388E1,2.659696671E0,1.345874384E0,1.093154264E1
1.450586304E1,-1.031136600E1,2.139779651E0,1.346375345E0,1.061676280E1
1.451583304E1,-1.016980023E1,1.875416799E0,1.393986883E0,1.043480830E1
1.452580304E1,-1.013252189E1,1.667298314E0,1.455381478E0,1.037140390E1
1.453577304E1,-1.016379163E1,1.493180218E0,1.482776852E0,1.037934847E1
1.454574204E1,-1.014767203E1,1.329186139E0,1.438410665E0,1.033494115E1
1.455571204E1,-1.017918501E1,1.241246793E0,1.384946941E0,1.034768472E1
1.456568204E1,-1.021017291E1,1.142976513E0,1.333835552E0,1.036017102E1
1.457565204E1,-1.019774290E1,1.043732160E0,1.312079086E0,1.033464507E1
1.458562204E1,-1.016358113E1,9.328830577E-1,1.344773207E0,1.029451636E1
1.459559104E1,-1.015029041E1,8.666515730E-1,1.348962153E0,1.027614613E1
1.460556104E1,-1.018714658E1,8.213899577E-1,1.290016226E0,1.030129986E1
1.461553104E1,-1.018288747E1,7.599045116E-1,1.210739822E0,1.028273033E1
1.462550104E1,-1.015543128E1,7.088150496E-1,1.170989280E0,1.024726399E1
1.463547104E1,-1.011066851E1,7.041881479E-1,1.106469934E0,1.019538005E1
1.464544004E1,-1.008754160E1,6.677640143E-1,1.070482514E0,1.016613678E1
1.465541004E1,-1.008394673E1,5.828151537E-1,1.067987215E0,1.015707890E1
1.466538004E1,-1.005868208E1,4.967744717E-1,1.068466394E0,1.012746220E1
1.467535004E1,-9.987171804E0,4.461779665E-1,1.030253816E0,1.005007952E1
1.468532004E1,-9.838611596E0,3.575738652E-1,9.677491276E-1,9.892556574E0
1.469528904E1,-9.651194885E0,2.636570933E-1,9.380255377E-1,9.700256166E0
1.470525904E1,-9.550743814E0,2.281381819E-1,9.922444296E-1,9.604858324E0
1.471522904E1,-8.928020609E0,5.055651757E-1,1.018463345E0,9.000134206E0
1.472519904E1,-5.599808264E-1,8.875566407E0,1.658400021E0,9.046521331E0
1.473516904E1,3.951938464E1,2.116877072E1,-3.988213304E-1,4.483366676E1
1.474513804E1,7.075904175E1,-1.091548395E1,-1.883855471E1,7.403297187E1
1.475510804E1,6.885496380E1,-2.081430549E1,-3.548601037E1,8.020909104E1
1.476507804E1,5.155229021E1,-4.048569725E-1,-2.367730576E1,5.673109679E1
1.477504804E1,2.376680324E1,8.749112767E-1,-8.387653098E0,2.521862666E1
1.478501804E1,1.613061676E1,-8.134220300E-1,-4.187101082E0,1.668503125E1
1.479498704E1,1.261443105E1,-7.162758044E-1,-2.790843287E0,1.293930941E1
1.480495704E1,8.794819282E0,-3.975123581E-1,-2.434137258E0,9.134105674E0
1.481492704E1,5.912393981E0,-7.166522920E-2,-2.090779545E0,6.271594502E0
1.482489704E1,3.447716569E0,-2.367121004E-2,-1.465836007E0,3.746463008E0
1.483486704E1,1.032181497E0,4.615762800E-2,-6.699084806E-1,1.231383995E0
1.484483604E1,-1.290243682E0,2.403937266E-1,-9.310156032E-2,1.315745342E0
1.485480604E1,-3.432669929E0,4.146073508E-1,3.199046767E-1,3.472385506E0
1.486477604E1,-5.364635004E0,5.769544163E-1,7.326619685E-1,5.445087574E0
1.487474604E1,-6.879608234E0,6.184895280E-1,1.015691764E0,6.981630792E0
1.488471604E1,-8.032786165E0,5.892192070E-1,1.130226878E0,8.133280128E0
1.489468504E1,-8.901575407E0,5.227279231E-1,1.156662287E0,8.991615920E0
1.490465504E1,-9.536368434E0,4.428207511E-1,1.215077140E0,9.623659677E0
1.491462504E1,-9.916321092E0,3.537910455E-1,1.179982152E0,9.992544720E0
1.492459504E1,-1.007797322E1,2.801234739E-1,1.134547094E0,1.014550198E1
1.493456504E1,-1.013873280E1,2.528672446E-1,1.095641987E0,1.020089585E1
1.494453404E1,-1.017992644E1,2.285983577E-1,9.888062668E-1,1.023039087E1
1.495450404E1,-1.020573254E1,2.037415334E-1,8.533624598E-1,1.024337419E1
1.496447404E1,-1.020712651E1,1.495290917E-1,7.299558771E-1,1.023428680E1
1.497444404E1,-1.022713686E1,7.913914938E-2,6.229179168E-1,1.024639537E1
1.498441404E1,-1.020438534E1,1.867046108E-2,4.278080614E-1,1.021336617E1
1.499438304E1,-1.032179041E1,-8.332837790E-2,1.589799829E-1,1.032335099E1
1.500435304E1,-1.069130521E1,-2.543021330E-1,-1.099112638E-1,1.069489397E1
1.501432304E1,-1.117978979E1,-5.615160128E-1,-1.930078179E-1,1.119554608E1
1.502429304E1,-1.147086418E1,-1.143568032E0,5.522695184E-3,1.152772759E1
1.503426304E1,-1.192437189E1,-1.840267285E0,1.205093604E-1,1.206614069E1
1.504423204E1,-1.255839718E1,-2.313472800E0,1.070150831E-1,1.277015851E1
1.505420204E1,-1.291929551E1,-2.486274979E0,3.157302032E-1,1.316014610E1
1.506417204E1,-1.278542702E1,-2.851992298E0,5.465005092E-1,1.311105133E1
1.507414204E1,-1.192993025E1,-3.418136090E0,7.572794773E-1,1.243303512E1
1.508411204E1,-1.200857530E1,-3.435817193E0,7.464858095E-1,1.251271200E1
1.509408104E1,-1.215260977E1,-3.396962445E0,6.790886092E-1,1.263670999E1
1.510405104E1,-1.214642575E1,-3.280422467E0,5.410206449E-1,1.259323364E1
1.511402104E1,-1.209479835E1,-2.905553963E0,3.224732123E-1,1.244308562E1
1.512399104E1,-1.207100953E1,-2.482704962E0,1.712626076E-1,1.232487022E1
1.513396104E1,-1.192209966E1,-1.915867252E0,4.932141021E-2,1.207515798E1
1.514393004E1,-1.158063513E1,-1.432382624E0,-8.772139102E-3,1.166888628E1
1.515390004E1,-1.089918659E1,-9.231861815E-1,-6.012472585E-2,1.093837995E1
1.516387004E1,-1.003480673E1,-4.290987977E-1,-2.141829246E-1,1.004626031E1
1.517384004E1,-9.185747164E0,-3.141013151E-1,-3.107110995E-1,9.196366238E0
1.518381004E1,-8.570203755E0,-1.003886236E0,-2.306060358E-1,8.631880394E0
1.519378029E1,-7.377747154E0,-4.046177337E0,9.539252865E-1,8.468333812E0
1.520374929E1,-5.080272628E0,-9.497080407E0,2.261546309E0,1.100537587E1
1.521371929E1,1.140662550E1,-1.750374647E1,3.932360115E0,2.125924980E1
1.522368929E1,6.778502625E1,-4.247948845E1,2.193644699E1,8.294892663E1
1.523365929E1,6.977142832E1,3.009166332E0,1.195282327E1,7.085179797E1
1.524362929E1,6.053693467E1,6.213598092E0,-4.146282605E1,7.363759369E1
1.525359829E1,3.584228590E1,-2.842398772E0,-5.331799029E1,6.430829478E1
1.526356829E1,1.859994972E1,1.448958019E0,-1.591396923E1,2.452166441E1
1.527353829E1,1.050604553E1,1.160169520E0,-3.794828633E0,1.123048131E1
1.528350829E1,4.884524805E0,6.236745465E-1,-1.889380681E0,5.274211966E0
1.529347829E1,1.510390767E0,1.169410678E0,-1.243091443E0,2.279051982E0
1.530344729E1,-4.008769190E-1,2.066691210E0,-9.717744970E-1,2.318676461E0
1.531341729E1,-2.320147689E0,2.606282941E0,-8.766379595E-1,3.597817419E0
1.532338729E1,-4.045922399E0,3.656218339E0,-1.199342283E0,5.583533157E0
1.533335729E1,-6.130750063E0,6.071798435E0,-1.588756320E0,8.773652558E0
1.534332729E1,-8.187575412E0,8.424102886E0,-2.396204470E0,1.198931593E1
1.535329629E1,-9.577979559E0,9.826940553E0,-4.595134993E0,1.447141039E1
1.536326629E1,-1.004573869E1,9.604828804E0,-2.243851465E0,1.407851098E1
1.537323629E1,-1.016809986E1,7.823333638E0,8.750206196E-1,1.285925601E1
1.538320629E1,-1.045691606E1,5.976988172E0,1.922640520E0,1.219704996E1
1.539317629E1,-1.048923596E1,4.202816643E0,2.229093385E0,1.151766452E1
1.540314529E1,-1.040658206E1,3.147396557E0,2.260617771E0,1.110465884E1
1.541311529E1,-1.034696619E1,2.578940776E0,2.505776613E0,1.095397468E1
1.542308529E1,-1.027889758E1,2.160134247E0,2.723310285E0,1.085072967E1
1.543305529E1,-1.029898861E1,1.825346653E0,2.917166533E0,1.085867936E1
1.544302529E1,-1.026158631E1,1.497460965E0,3.004036570E0,1.079660959E1
1.545299429E1,-1.022068036E1,1.220413017E0,3.004841439E0,1.072290945E1
1.546296429E1,-1.020891810E1,1.080954585E0,2.902513411E0,1.066841393E1
1.547293429E1,-1.037010245E1,1.052959651E0,2.801722908E0,1.079339613E1
1.548290429E1,-1.048621178E1,1.050808022E0,2.787115687E0,1.090104806E1
1.549287429E1,-1.018775469E1,8.650664659E-1,2.892716109E0,1.062574666E1
1.550284329E1,-1.024114679E1,8.339118431E-1,2.865868033E0,1.066722532E1
1.551281329E1,-1.027029983E1,7.630690978E-1,2.838905353E0,1.068272983E1
1.552278329E1,-1.027914433E1,6.736927986E-1,2.820637189E0,1.068038690E1
1.553275329E1,-1.027293576E1,5.760917328E-1,2.754093536E0,1.065129673E1
1.554272329E1,-1.025634136E1,4.624038803E-1,2.668790554E0,1.060795920E1
1.555269229E1,-1.025947430E1,3.272887599E-1,2.615759816E0,1.059273950E1
1.556266229E1,-1.026668391E1,2.002305910E-1,2.531307603E0,1.057602993E1
1.557263229E1,-1.035292567E1,5.551938571E-2,2.453538465E0,1.063983098E1
1.558260229E1,-1.049988959E1,-5.726200216E-2,2.383783814E0,1.076723667E1
1.559257229E1,-1.056168764E1,-8.010319993E-4,2.325364136E0,1.081464585E1
1.560254129E1,-1.051130569E1,1.476796540E-1,2.311940099E0,1.076356928E1
1.561251129E1,-1.038050348E1,2.873710977E-1,2.320063051E0,1.064049468E1
1.562248129E1,-1.019059293E1,3.879481405E-1,2.336438617E0,1.046220022E1
1.563245129E1,-9.516806574E0,2.101615386E-1,2.226334523E0,9.776008421E0
1.564242129E1,-9.202392433E0,1.215130898E-1,2.166725960E0,9.454813235E0
1.565239129E1,-9.069354828E0,1.602397290E-1,2.187349820E0,9.330775584E0
1.566236029E1,-8.440271022E0,2.321783338E-1,2.075828507E0,8.694891931E0
1.567233029E1,-6.236495204E0,1.954924460E0,1.718244081E0,6.757807691E0
1.568230029E1,1.932500797E1,2.465383287E1,-2.295991087E0,3.140921813E1
1.569227029E1,6.875643588E1,8.243269556E0,-1.752014558E1,7.143076696E1
1.570224029E1,6.991704270E1,-3.039596704E1,-3.936730090E1,8.580263430E1
1.571220929E1,5.806928804E1,-3.342750862E-2,-2.466056419E1,6.308872132E1
1.572217929E1,3.021479457E1,1.503099727E0,-5.878252673E0,3.081796512E1
1.573214929E1,1.658821751E1,-1.821027899E0,-2.409969400E0,1.686099212E1
1.574211929E1,9.846542759E0,-4.656688924E-1,-4.315172061E-1,9.866988341E0
1.575208929E1,5.243302356E0,1.234309217E-1,4.957690430E-1,5.268134559E0
1.576205829E1,1.939913195E0,5.366546752E-1,7.307127991E-1,2.141308628E0
1.577202829E1,-9.262264413E-1,4.566087049E-1,5.682676466E-1,1.178692092E0
1.578199829E1,-2.607188675E0,1.001191693E-1,4.803138287E-1,2.652952696E0
1.579196829E1,-4.667088490E0,8.379179898E-1,1.790604544E-1,4.745090534E0
1.580193829E1,-6.389984615E0,7.922900464E-1,-3.522348091E-2,6.439011383E0
1.581190729E1,-8.044332662E0,6.729260094E-1,2.894267960E-1,8.077616310E0
1.582187729E1,-8.987490885E0,5.901626918E-1,6.112155917E-1,9.027561626E0
1.583184729E1,-9.566676307E0,4.884330531E-1,8.478522630E-1,9.616585458E0
1.584181729E1,-1.023462480E1,4.221704319E-1,9.310030317E-1,1.028555003E1
1.585178729E1,-1.070080225E1,3.914251873E-1,6.867673190E-1,1.072995955E1
1.586175729E1,-1.090901693E1,4.103680464E-1,5.032067013E-1,1.092832417E1
1.587172629E1,-1.109119862E1,4.990730853E-1,4.702670697E-1,1.111237652E1
1.588169629E1,-1.113253493E1,5.363865072E-1,3.311537694E-1,1.115036803E1
1.589166629E1,-1.105081541E1,5.528193028E-1,2.083491576E-1,1.106659568E1
1.590163629E1,-1.103419646E1,7.283571021E-1,2.217006898E-1,1.106043158E1
1.591160629E1,-1.094733490E1,8.363028426E-1,3.365563774E-1,1.098438956E1
1.592157529E1,-1.098331516E1,8.941151409E-1,2.577814456E-1,1.102266324E1
1.593154529E1,-1.123183118E1,8.419029403E-1,-4.770977139E-2,1.126344123E1
1.594151529E1,-1.165047428E1,4.703898612E-1,-6.291720986E-1,1.167692918E1
1.595148529E1,-1.229778678E1,-1.217457542E-1,-1.041567448E0,1.234241647E1
1.596145529E1,-1.278135853E1,-6.196519545E-1,-1.348362082E0,1.286721317E1
1.597142429E1,-1.302139375E1,-1.171407649E0,-9.946394491E-1,1.311175803E1
1.598139429E1,-1.291192218E1,-1.470187359E0,-4.450754374E-1,1.300297186E1
1.599136429E1,-1.280284588E1,-1.408552297E0,3.870622873E-2,1.288015451E1
1.600133429E1,-1.269467589E1,-1.179004205E0,6.562280425E-1,1.276618511E1
1.601130429E1,-1.251138323E1,-1.058874329E0,8.823838721E-1,1.258707775E1
1.602127329E1,-1.233004119E1,-8.116496658E-1,6.532455240E-1,1.237398160E1
1.603124329E1,-1.204683364E1,-4.567160743E-1,3.680296004E-2,1.205554415E1
1.604121329E1,-1.184069824E1,-1.159567183E-1,-3.945702584E-1,1.184783805E1
1.605118329E1,-1.161871688E1,2.357082796E-1,-7.315597683E-1,1.164411096E1
1.606115329E1,-1.133988188E1,4.424041370E-1,-8.519093536E-1,1.138043900E1
1.607112229E1,-1.102523385E1,6.986513463E-1,-9.332292129E-1,1.108669526E1
1.608109229E1,-1.061672280E1,8.743701169E-1,-8.355963528E-1,1.068538944E1
1.609106229E1,-1.016198367E1,1.176074458E0,-6.971344323E-1,1.025353889E1
1.610103229E1,-9.618570346E0,1.255150156E0,-8.618755672E-1,9.738332860E0
1.611100229E1,-9.181482790E0,9.895871624E-1,-7.908511928E-1,9.268460205E0
1.612097129E1,-8.711930907E0,5.138144276E-1,-7.180193710E-1,8.756557384E0
1.613094129E1,-7.894153944E0,-4.925191605E-1,-7.378279835E-1,7.943842380E0
1.614091129E1,-5.313281833E0,-3.920765379E0,-1.443310924E0,6.759179789E0
1.615088129E1,9.817734697E0,-1.999168645E1,-1.066162591E0,2.229780582E1
1.616085129E1,4.591547609E1,-4.478881119E1,6.124351455E0,6.443427840E1
1.617082029E1,7.046830416E1,-2.406493873E1,1.829563606E1,7.667876803E1
1.618079029E1,5.637585955E1,-7.663042746E0,-1.929792601E1,6.007803019E1
1.619075967E1,3.625418014E1,-8.781684097E0,-7.085413619E1,8.007366713E1
1.620072967E1,2.182047799E1,5.697707026E0,-3.186076473E1,3.903466990E1
1.621069967E1,1.498415084E1,4.934187546E0,-7.826999257E0,1.761059058E1
1.622066967E1,1.168454951E1,1.420826480E0,-6.383228157E0,1.339003536E1
1.623063867E1,7.961433177E0,7.257833040E-1,-3.127468369E0,8.584418328E0
1.624060867E1,3.316455933E0,1.233705054E0,-1.009725850E0,3.679735644E0
1.625057867E1,9.828508776E-1,1.614995701E0,4.058376968E-2,1.890992862E0
1.626054867E1,-7.714734471E-1,2.173517501E0,2.292696181E-1,2.317739020E0
1.627051867E1,-2.124718539E0,2.452945558E0,1.118748356E0,3.432632905E0
1.628048767E1,-3.834920359E0,3.923260970E0,3.372059446E0,6.439672019E0
1.629045767E1,-5.260217181E0,4.169033185E0,4.290894130E0,7.966335100E0
1.630042767E1,-6.324799855E0,4.521605086E0,4.664579449E0,9.066769391E0
1.631039767E1,-6.851092533E0,5.740163659E0,5.245545348E0,1.036352709E1
1.632036767E1,-6.950698097E0,6.712991239E0,5.433994092E0,1.108624135E1
1.633033667E1,-7.187458291E0,7.088424000E0,5.059853566E0,1.129191877E1
1.634030667E1,-7.572238410E0,6.982408717E0,4.120247526E0,1.109365881E1
1.635027667E1,-7.998017451E0,6.063096024E0,3.810973380E0,1.073559196E1
1.636024667E1,-8.315927643E0,4.863231000E0,3.889997038E0,1.038930918E1
1.637021667E1,-8.537252356E0,3.795097897E0,4.312706290E0,1.029013515E1
1.638018567E1,-8.593538824E0,3.075776351E0,4.545404423E0,1.019656859E1
1.639015567E1,-8.709186809E0,2.596983822E0,4.759850473E0,1.025916353E1
1.640012567E1,-8.705873192E0,2.269854325E0,4.766993139E0,1.018178227E1
1.641009567E1,-8.716640255E0,2.170551500E0,4.895818702E0,1.023035444E1
1.642006567E1,-8.571473186E0,2.126617130E0,5.032292131E0,1.016447820E1
1.643003467E1,-8.554220392E0,1.985346500E0,5.039318145E0,1.012477232E1
1.644000467E1,-8.548609988E0,1.814664667E0,4.923503514E0,1.003058460E1
1.644997467E1,-8.576981263E0,1.586071864E0,4.893212013E0,1.000118770E1
1.645994467E1,-8.734986479E0,1.268694061E0,4.877857225E0,1.008479373E1
1.646991467E1,-8.932584361E0,8.685875130E-1,4.786121428E0,1.017115854E1
1.647988367E1,-9.059449060E0,5.185872173E-1,4.664399940E0,1.020290041E1
