"Time (s)","Linear Acceleration x (m/s^2)","Linear Acceleration y (m/s^2)","Linear Acceleration z (m/s^2)","Absolute acceleration (m/s^2)"
4.295833423E-5,1.579355313E0,1.681101397E0,-9.794039440E-1,2.505932401E0
1.001295833E-2,1.446462720E0,-1.329010137E0,7.278883016E-1,2.094837398E0
1.998295833E-2,1.001198709E0,-4.179809604E0,3.361223386E0,5.456283518E0
2.995195834E-2,8.288859420E-1,-3.974007493E0,2.118712864E0,4.579162769E0
3.992195833E-2,9.656360900E-1,-4.181693577E0,1.329685893E-1,4.293797256E0
4.989195833E-2,8.519020446E-1,-3.895420330E0,-1.524199734E-1,3.990397034E0
5.986095833E-2,3.305410543E-1,-3.572852831E0,-2.364672482E-1,3.595893700E0
6.983095833E-2,-7.267301144E-1,-2.830628327E0,-1.727154652E0,3.394651171E0
7.980095833E-2,-1.188771102E0,-4.359613824E-1,-2.379374136E0,2.695303386E0
8.976995833E-2,-1.410994240E0,3.005731970E-1,-6.621042019E-1,1.587334548E0
9.973995833E-2,-6.979004176E-1,2.023920143E0,-9.045291781E-2,2.142778446E0
1.097099583E-1,-1.294243178E-1,1.500730582E0,5.623021710E-1,1.607832910E0
1.196789583E-1,4.169610013E-1,2.002453845E0,-6.959532217E-1,2.160562140E0
1.296489583E-1,-6.397495656E-1,-3.833304189E0,2.491704996E0,4.616502388E0
1.396189583E-1,-9.964770828E-1,-8.238325735E0,3.638560917E0,9.061021082E0
1.495879583E-1,-9.767459460E-1,-4.550672765E0,-8.107544571E-1,4.724402401E0
1.595579583E-1,4.455060849E-1,-2.332495839E0,-2.273102161E0,3.287248994E0
1.695269583E-1,1.560406972E0,-2.198941925E0,4.470950657E-1,2.733150107E0
1.794969583E-1,9.280333771E-1,7.624769211E-4,8.528473932E-1,1.260394861E0
1.894669583E-1,4.280370165E-1,2.955220798E0,1.046905956E0,3.164262589E0
1.994359583E-1,8.174872336E-1,1.607317137E0,-1.826518142E-1,1.812488742E0
2.094059583E-1,1.272197421E0,1.051616473E0,-1.897875954E0,2.515217012E0
2.193759583E-1,1.675239564E0,1.506429278E0,-1.644560539E0,2.789325390E0
2.293449583E-1,1.956034115E0,6.542940760E-1,-5.299466032E-1,2.129557137E0
2.393149583E-1,1.667320533E0,-4.638274580E-1,1.212963957E-1,1.734879387E0
2.492849583E-1,1.093002773E0,-8.633139092E-1,6.311240454E-1,1.529144705E0
2.592539583E-1,3.723328587E-1,5.015098393E-1,1.489513868E-1,6.421295759E-1
2.692239583E-1,-1.242143025E-1,1.008799651E0,-4.888237202E-1,1.127853962E0
2.791939583E-1,-1.163254584E0,-2.209203789E0,-3.099217254E-1,2.515908202E0
2.891629583E-1,-1.908800746E0,-1.325547416E0,-4.239365834E-1,2.362269770E0
2.991329583E-1,-1.632492909E0,-4.483457851E-1,-5.937601912E-1,1.794045207E0
3.091019583E-1,-1.450084631E0,-9.226882911E-1,-5.330871427E-1,1.799522443E0
3.190719583E-1,-1.907172588E0,-1.036571002E0,8.234265429E-1,2.321598156E0
3.290419583E-1,-2.448534711E0,-5.848250610E-1,6.562271655E-1,2.601533524E0
3.390109583E-1,-2.326096646E0,-5.785667861E-1,8.845808172E-1,2.554985001E0
3.489809583E-1,-1.731003875E0,-1.284220465E0,6.749400097E-1,2.258570485E0
3.589509583E-1,-9.902999380E-1,-2.455417761E0,4.040162891E-1,2.678245603E0
3.689199583E-1,-5.192843516E-1,-2.973835409E0,6.275816560E-1,3.083376722E0
3.788899583E-1,-3.425752088E-2,-2.472083495E0,9.176678717E-2,2.474023348E0
3.888599583E-1,6.891047435E-1,-1.833136021E0,-2.008080035E0,2.804931095E0
3.988289583E-1,1.304097198E0,-7.822305697E-1,-3.324180690E0,3.655507000E0
4.087989583E-1,1.958021438E0,-6.939101315E-1,-4.259251045E0,4.738837271E0
4.187689583E-1,2.505641835E0,-1.436374957E0,-5.135986653E0,5.892348676E0
4.287379583E-1,2.779411395E0,-6.948719984E-1,-6.033062970E0,6.678759136E0
4.387079583E-1,2.759977589E0,1.335682395E0,-4.749879801E0,5.653572488E0
4.486779583E-1,1.886997648E0,6.032680562E0,-4.168514537E0,7.571691247E0
4.586469583E-1,8.114165081E-1,9.945325620E0,-5.539022364E0,1.141265382E1
4.686169583E-1,-1.416254103E-1,1.060999500E1,-2.399661051E0,1.087889814E1
4.785859583E-1,-1.817259369E0,1.335990076E1,-1.573600338E0,1.357444650E1
4.885559583E-1,-3.565788226E0,1.573508770E1,4.564161122E-1,1.614051258E1
4.985259583E-1,-4.859869143E0,1.614003896E1,6.075458207E0,1.791732062E1
5.084949583E-1,-6.065798607E0,1.594404029E1,1.141820065E1,2.052758241E1
5.184649583E-1,-7.657784345E0,1.349219050E1,1.273784355E1,2.007320413E1
5.284349583E-1,-8.438927332E0,8.522248986E0,1.232839695E1,1.719981377E1
5.384039583E-1,-8.420236707E0,3.974941294E0,1.145438907E1,1.476155728E1
5.483739583E-1,-7.492889940E0,-9.942313135E-1,1.175915998E1,1.397890336E1
5.583439583E-1,-5.321087281E0,-1.026471223E1,1.167506416E1,1.643123276E1
5.683129583E-1,-1.158330936E0,-2.315550257E1,8.152137192E0,2.457593072E1
5.782829583E-1,5.774779176E0,-3.843995823E1,-7.813393371E0,3.964880300E1
5.882529583E-1,1.388694071E1,-4.201327825E1,-1.476535505E1,4.664738344E1
5.982219583E-1,1.620383676E1,-2.402146118E1,-7.491036372E0,2.992842376E1
6.081919583E-1,1.417261812E1,-1.175245206E1,-3.439374347E0,1.872999011E1
6.181619583E-1,1.097338775E1,-7.913748549E0,-3.050164962E0,1.386889185E1
6.281309583E-1,7.892178170E0,-9.624739158E0,-2.048019442E0,1.261413746E1
6.381009583E-1,3.912129918E0,-1.361152282E1,4.896014584E0,1.498496823E1
6.480709583E-1,-4.211647108E-1,-1.589742161E1,8.798165059E0,1.817451793E1
6.580399583E-1,-2.122527880E0,-1.452649278E1,5.982148340E0,1.585276682E1
6.680099583E-1,-4.479018061E0,-1.107569532E1,4.473882451E0,1.275728238E1
6.779799583E-1,-5.962865392E0,-7.115913514E0,-1.071050279E0,9.345541051E0
6.879489583E-1,-5.979828165E0,-3.401510117E0,-5.334949275E0,8.705762444E0
6.979189583E-1,-5.260086789E0,-8.393695611E-1,-5.730356709E0,7.823684700E0
7.078879583E-1,-3.372576632E0,2.527301091E-1,-3.786574996E0,5.077036128E0
7.178579583E-1,-1.315345487E0,1.378040795E0,-1.391544939E0,2.359137024E0
7.278279583E-1,3.062864383E-1,2.799098970E0,1.115049992E0,3.028547987E0
7.377962083E-1,1.554040232E0,4.413686535E0,2.385534178E0,5.252279809E0
7.477662083E-1,2.187165779E0,6.305598768E0,2.835499642E0,7.251505236E0
7.577362083E-1,2.456731338E0,8.255886093E0,2.462099959E0,8.958633839E0
7.677052083E-1,2.706418848E0,9.497714245E0,1.300113198E0,9.961002620E0
7.776752083E-1,2.754231530E0,1.123252115E1,7.406774048E-1,1.158895706E1
7.876452083E-1,2.664799829E0,1.360712922E1,1.243631872E-1,1.386616710E1
7.976142083E-1,2.913664344E0,1.457196190E1,4.343650194E-1,1.486674768E1
8.075842083E-1,3.022137503E0,1.545363782E1,7.113335916E-1,1.576243105E1
8.175542083E-1,2.796616827E0,1.602351799E1,1.038732206E0,1.629886987E1
8.275232083E-1,2.411454300E0,1.639322574E1,1.812781863E0,1.666850743E1
8.374932083E-1,1.557317888E0,1.638117579E1,2.507295427E0,1.664495989E1
8.474632083E-1,5.449250135E-1,1.466489053E1,2.547726585E0,1.489452478E1
8.574322083E-1,-1.026026645E-1,1.143348878E1,2.707530988E0,1.175014541E1
8.674022083E-1,-1.357202195E0,1.064183659E1,2.287550046E0,1.096921005E1
8.773722083E-1,-2.061016633E0,1.055208417E1,1.611617764E0,1.087159518E1
8.873412083E-1,-2.324221006E0,9.998040608E0,1.204973298E0,1.033512361E1
8.973112083E-1,-1.933716024E0,8.661264199E0,7.543539691E-1,8.906503528E0
9.072812083E-1,-1.186743287E0,7.067871621E0,3.144271512E-1,7.173704295E0
9.172502083E-1,-7.950159453E-1,6.271825835E0,1.086483566E-1,6.322946633E0
9.272202083E-1,-8.929828276E-1,6.485210030E0,-9.668129884E-2,6.547114994E0
9.371902083E-1,-1.420069704E0,7.138141705E0,-4.929880341E-1,7.294703706E0
9.471592083E-1,-1.981477835E0,7.677984136E0,-1.005276704E-1,7.930182887E0
9.571292083E-1,-2.269639733E0,8.576984771E0,1.177128638E0,8.949947716E0
9.670992083E-1,-2.367443478E0,9.325588589E0,2.443009969E0,9.926715915E0
9.770682083E-1,-2.387792665E0,8.747664996E0,3.587481980E0,9.751575445E0
9.870382083E-1,-2.885535728E0,7.048999148E0,4.394382538E0,8.793480728E0
9.970072083E-1,-3.665373325E0,4.879408491E0,4.817908062E0,7.775334522E0
1.006977208E0,-3.753243527E0,1.812164397E0,4.998454878E0,6.508097107E0
1.016947208E0,-2.696857481E0,-3.292733780E0,6.145018439E0,7.475051012E0
1.026916208E0,-5.678211386E-1,-1.516503329E1,5.053080736E0,1.599482043E1
1.036886208E0,1.467338887E0,-4.258314789E1,3.240304720E0,4.273145378E1
1.046856208E0,5.136924546E0,-6.338481404E1,-8.041979742E-1,6.359771520E1
1.056825208E0,7.705816298E0,-4.260739278E1,1.526984726E0,4.332552604E1
1.066795208E0,9.680213447E0,-2.275036537E1,-1.828021461E0,2.479167843E1
1.076765208E0,1.172953448E1,-1.568267560E1,-6.413292201E0,2.060724654E1
1.086734208E0,1.349556551E1,-1.382761486E1,-6.328012900E0,2.033167402E1
1.096704208E0,1.227032007E1,-1.553688463E1,-1.801034222E0,1.987961928E1
1.106674208E0,7.463412956E0,-1.734272000E1,2.993449309E0,1.911630741E1
1.116643208E0,2.103683181E0,-1.544644692E1,5.401878844E0,1.649843933E1
1.126613208E0,-3.165737226E0,-1.276744566E1,6.616173627E0,1.472424241E1
1.136583208E0,-9.566800852E0,-1.032246401E1,1.138401783E1,1.810173483E1
1.146552208E0,-1.316911313E1,-5.894155930E0,5.832169597E0,1.556215977E1
1.156522208E0,-9.020596651E0,-7.395195830E-1,-8.339848602E0,1.230736072E1
1.166492208E0,-5.315107918E0,1.467593241E0,-5.108519357E0,7.516726158E0
1.176461208E0,-9.341786546E-1,6.524948877E-1,-3.288277617E0,3.480116237E0
1.186431208E0,8.772118637E-1,1.907738891E0,-1.734733083E0,2.723649610E0
1.196401208E0,1.093221897E0,4.548248509E0,-4.698260435E-1,4.701322700E0
1.206370208E0,1.051818421E0,6.982245580E0,4.577561478E-1,7.075847371E0
1.216340208E0,1.685124282E0,9.443639195E0,5.478219800E-1,9.608437647E0
1.226310208E0,2.099874597E0,1.221935924E1,1.813746361E-1,1.239980284E1
1.236279208E0,4.074890236E-1,1.408344224E1,1.546533576E0,1.417396058E1
1.246249208E0,-1.693077518E0,1.734580266E1,2.858129536E0,1.766103864E1
1.256219208E0,2.236175240E0,1.837969095E1,-7.022622212E-1,1.852853722E1
1.266188208E0,1.976400698E0,1.734396897E1,-4.926932906E0,1.813819415E1
1.276158208E0,7.179814372E-2,1.786044183E1,-4.256640848E0,1.836081503E1
1.286128208E0,-5.787532026E-1,1.829051156E1,-1.683252003E0,1.837691774E1
1.296097208E0,-1.752554373E0,1.651674700E1,2.176842374E0,1.675150802E1
1.306067208E0,-3.047526698E0,1.333599500E1,3.127658111E0,1.403276262E1
1.316037208E0,-3.088879084E0,1.094297755E1,3.861156231E0,1.200826629E1
1.326006208E0,-2.733204943E0,9.342358403E0,4.707346569E0,1.081245493E1
1.335976208E0,-2.001307790E0,7.094221514E0,4.952984591E0,8.880611922E0
1.345946208E0,-1.162012050E0,5.291997383E0,4.089315755E0,6.788078642E0
1.355915208E0,-6.000978421E-1,5.799038689E0,9.340705542E-1,5.904358977E0
1.365885208E0,3.063533159E-1,5.569718492E0,-1.907110316E0,5.895140897E0
1.375854208E0,1.354733501E0,5.077877609E0,-3.949057424E0,6.573826770E0
1.385824208E0,1.747371108E0,4.921164043E0,-5.036407986E0,7.255106252E0
1.395794208E0,1.097445926E0,5.375312020E0,-4.352341057E0,7.002945063E0
1.405763208E0,-1.288301676E-1,6.409849361E0,-2.712289453E0,6.961270007E0
1.415733208E0,-1.181420128E0,7.847020708E0,-1.122552042E0,8.014462590E0
1.425703208E0,-2.031709803E0,9.030636905E0,7.953686786E-1,9.290471407E0
1.435672208E0,-2.600815210E0,1.021539214E1,2.878855577E0,1.092731832E1
1.445642208E0,-2.555013385E0,1.119919553E1,5.367276192E0,1.267902708E1
1.455612208E0,-2.632620262E0,1.177644669E1,7.223497020E0,1.406393598E1
1.465581208E0,-3.706449138E0,1.037151046E1,5.973673385E0,1.252959569E1
1.475551208E0,-4.271814665E0,5.122559692E0,3.456298528E0,7.512324397E0
1.485521208E0,-2.335803463E0,-1.018579119E0,5.281866497E0,5.864434750E0
1.495490208E0,7.354962601E-1,-1.208242213E1,2.835068702E0,1.243235673E1
1.505460208E0,3.295387831E0,-4.168310236E1,-2.151951946E0,4.186850248E1
1.515430208E0,4.951476009E0,-6.802790088E1,1.733991802E0,6.822989916E1
1.525399208E0,5.203745942E0,-4.726465327E1,5.684809822E0,4.788886597E1
1.535369208E0,6.801058493E0,-2.261689917E1,2.039241602E0,2.370521105E1
1.545339208E0,9.074981019E0,-1.326924435E1,-2.136564998E0,1.621706004E1
1.555308208E0,1.267657642E1,-1.179753526E1,-2.664418883E0,1.752074644E1
1.565278208E0,1.261898837E1,-1.754480679E1,3.285483232E0,2.185986077E1
1.575248208E0,8.115703776E0,-1.975445322E1,8.737035343E0,2.307463664E1
1.585217208E0,3.258046927E0,-1.729609431E1,8.630688524E0,1.960251342E1
1.595187208E0,-1.880512062E0,-1.670780126E1,4.107708757E0,1.730780806E1
1.605157208E0,-6.607782873E0,-1.596429271E1,-2.546963523E0,1.746449138E1
1.615126208E0,-8.700662738E0,-1.240153275E1,-6.444781796E0,1.646313333E1
1.625096208E0,-7.640632707E0,-7.108545438E0,-6.881653005E0,1.250071336E1
1.635066208E0,-4.479095829E0,-3.207290756E0,-5.159780728E0,7.548003086E0
1.645035208E0,-1.819423131E0,-1.503147236E0,-2.279587308E0,3.281199542E0
1.655005208E0,-3.285847221E-1,6.133308220E-1,1.488607550E-1,7.115491137E-1
1.664975208E0,7.610892306E-1,3.023295836E0,1.980736993E0,3.693628780E0
1.674944208E0,1.458869488E0,5.325928191E0,3.244415313E0,6.404689064E0
1.684914208E0,1.511907827E0,8.628056107E0,4.052833807E0,9.651667179E0
1.694884208E0,1.221360704E0,1.209005392E1,3.835150155E0,1.274242922E1
1.704853208E0,8.808079013E-1,1.486566754E1,3.627007989E0,1.532707020E1
1.714823208E0,3.956286044E-1,1.928596611E1,2.760954659E0,1.948660775E1
1.724793208E0,4.839380061E-1,2.207284148E1,1.124485205E0,2.210676353E1
1.734762250E0,9.575344804E-1,2.276088568E1,-3.297138926E-1,2.278340406E1
1.744732250E0,1.241979010E0,1.811203349E1,4.310929906E-1,1.815968365E1
1.754702250E0,8.016333854E-1,1.726412641E1,-1.708345183E-1,1.728357200E1
1.764671250E0,1.536318271E-1,1.920041082E1,-5.774989383E-1,1.920970805E1
1.774641250E0,-9.167643307E-1,1.698478854E1,6.623024225E-1,1.702240122E1
1.784611250E0,-1.426101399E0,1.228092458E1,1.710653225E0,1.248123424E1
1.794580250E0,-1.148472749E0,8.484529182E0,2.332416902E0,8.873916481E0
1.804550250E0,-6.115412816E-1,5.559913881E0,2.165409898E0,5.997968417E0
1.814520250E0,-3.920895041E-1,3.814050477E0,1.232870218E0,4.027491055E0
1.824489250E0,-6.635929761E-1,2.751817800E0,1.835570363E-1,2.836644149E0
1.834459250E0,-1.102509103E0,2.358117753E0,-5.964802428E-1,2.670586891E0
1.844429250E0,-1.637891351E0,3.258158024E0,-1.487415887E0,3.938361056E0
1.854398250E0,-1.878001560E0,4.973423533E0,-2.326258468E0,5.802870838E0
1.864368250E0,-1.905840447E0,6.530734697E0,-2.592877614E0,7.280503953E0
1.874338250E0,-1.910897850E0,7.661656955E0,-1.906162920E0,8.123175178E0
1.884307250E0,-1.811748368E0,8.772373576E0,-7.699986331E-1,8.990543265E0
1.894277250E0,-1.789289213E0,1.003784027E1,6.220514325E-1,1.021502526E1
1.904247250E0,-1.902500225E0,1.134761423E1,2.281838486E0,1.173007429E1
1.914216250E0,-2.109807701E0,1.234750799E1,3.645719079E0,1.304620672E1
1.924186250E0,-2.409597371E0,1.325341711E1,4.463780801E0,1.419100291E1
1.934155250E0,-2.621925412E0,1.364409766E1,4.667952708E0,1.465693270E1
1.944125250E0,-2.450551562E0,1.336009488E1,4.658090794E0,1.435949679E1
1.954095250E0,-1.967947086E0,1.189076911E1,3.655103860E0,1.259456192E1
1.964065250E0,-1.960284310E0,8.754378769E0,1.437399974E0,9.085591940E0
1.974034250E0,-2.114502430E0,5.068935462E0,8.280183613E-2,5.492912104E0
1.984004250E0,-1.246907482E0,-1.447893387E-1,1.110144178E0,1.675757237E0
1.993973250E0,1.287472102E0,-1.300231077E1,-1.097486198E0,1.311190855E1
2.003943250E0,3.358607049E0,-4.733860886E1,5.331576601E0,4.775614975E1
2.013913250E0,5.485526773E0,-6.982575597E1,1.020802933E1,7.078086650E1
2.023882250E0,8.536094023E0,-5.762259819E1,2.361657073E0,5.829928085E1
2.033852250E0,1.011495335E1,-2.844618726E1,-3.583370218E0,3.040293395E1
2.043822250E0,9.948057439E0,-1.322840272E1,-3.105909392E0,1.684046195E1
2.053791250E0,1.056779915E1,-9.639856550E0,-3.418840095E0,1.470692628E1
2.063761250E0,9.443047457E0,-1.550218959E1,2.477081695E0,1.832006990E1
2.073731250E0,6.063536319E0,-1.969422222E1,6.433874985E0,2.158757996E1
2.083700250E0,1.794076474E0,-1.868220952E1,3.995776092E0,1.918879594E1
2.093670250E0,-1.944126260E0,-1.712253023E1,-1.469427951E-1,1.723317326E1
2.103640250E0,-3.895592238E0,-1.382523738E1,-3.506555931E0,1.478542397E1
2.113609250E0,-3.923341370E0,-9.425291217E0,-4.794300513E0,1.127892014E1
2.123579250E0,-2.596479207E0,-5.170021541E0,-4.400496971E0,7.268782608E0
2.133549250E0,-8.818048516E-1,-2.357959294E0,-2.828126303E0,3.786271281E0
2.143518250E0,4.673058204E-1,-1.542261600E-1,-8.362278521E-1,9.702770011E-1
2.153488250E0,1.224001819E0,2.378529214E0,8.496085473E-1,2.806673539E0
2.163458250E0,1.543775298E0,5.874871813E0,2.491895031E0,6.565584653E0
2.173427250E0,1.623391864E0,8.816460412E0,4.538800578E0,1.004818820E1
2.183397250E0,1.530155964E0,1.114100638E1,5.318791080E0,1.243997343E1
2.193367250E0,1.117886184E0,1.449374604E1,5.567402995E0,1.556644853E1
2.203336250E0,4.308049787E-1,1.881254513E1,4.582313218E0,1.936737054E1
2.213306250E0,-3.645352678E-1,2.147005435E1,2.994050403E0,2.168087770E1
2.223276250E0,-7.219732583E-1,1.954137249E1,2.222988453E0,1.968065451E1
2.233245250E0,-1.170048902E0,1.817570850E1,1.915074223E0,1.831373537E1
2.243215250E0,-2.068052880E0,2.098088565E1,-3.252024002E-1,2.108506964E1
2.253185250E0,-2.830543250E0,2.078872275E1,-7.551459745E-2,2.098067376E1
2.263154250E0,-3.989252646E0,1.973905399E1,-6.627935886E-2,2.013824178E1
2.273124250E0,-4.353845546E0,1.565404295E1,-1.837655626E-2,1.624824204E1
2.283094250E0,-2.831588147E0,1.079170073E1,1.590861464E0,1.126985077E1
2.293063250E0,-1.253303605E0,7.424393901E0,2.538716025E0,7.945909248E0
2.303033250E0,-1.385242664E-1,5.630808447E0,2.313136293E0,6.088989427E0
2.313003250E0,5.417682114E-1,4.507226783E0,1.732491406E0,4.859025884E0
2.322972250E0,8.554292312E-1,3.685536278E0,9.246658194E-1,3.894861192E0
2.332942250E0,9.563576552E-1,3.575695748E0,-3.024459871E-1,3.713716955E0
2.342912250E0,7.671119358E-1,4.519222931E0,-1.786553593E0,4.919716492E0
2.352881250E0,5.678076169E-1,5.796274125E0,-2.835111387E0,6.477426634E0
2.362851250E0,1.988044551E-1,6.665717670E0,-2.605919244E0,7.159757704E0
2.372821250E0,-4.294225142E-1,7.565063292E0,-1.493506347E0,7.723027095E0
2.382790250E0,-9.304475462E-1,8.575137051E0,-1.971950821E-1,8.627722410E0
2.392760250E0,-1.362114441E0,9.682977426E0,1.232170891E0,9.855640653E0
2.402730250E0,-1.689012534E0,1.079388291E1,2.554859018E0,1.121998112E1
2.412699250E0,-1.915034462E0,1.206935711E1,3.692217307E0,1.276593932E1
2.422669250E0,-2.007652312E0,1.306246927E1,3.847753243E0,1.376459139E1
2.432639250E0,-2.198708475E0,1.263751235E1,3.273906330E0,1.323856110E1
2.442608250E0,-2.642980944E0,1.028266202E1,2.631912457E0,1.093825624E1
2.452578250E0,-3.471960295E0,6.903360794E0,2.066041145E0,7.998713931E0
2.462548250E0,-3.579024568E0,3.461386775E0,1.974127008E0,5.356098646E0
2.472517250E0,-1.942301637E0,-6.666352093E-1,3.227398161E0,3.825315287E0
2.482487250E0,7.934382203E-1,-1.265712625E1,1.441182538E0,1.276359652E1
2.492457250E0,4.847212845E0,-5.149780352E1,5.514778054E0,5.201857376E1
2.502426250E0,1.147651727E1,-6.978288886E1,1.190231853E1,7.171490231E1
2.512396250E0,1.693232031E1,-5.182550019E1,9.376384521E0,5.532180879E1
2.522366250E0,1.875252580E1,-2.408976601E1,-1.791349333E0,3.058076164E1
2.532335250E0,1.905222717E1,-1.136675100E1,-7.647735904E0,2.346653475E1
2.542305250E0,1.637383988E1,-1.091042844E1,-8.656451941E0,2.149591220E1
2.552275250E0,9.088353601E0,-1.913131194E1,-3.699625145E0,2.150098820E1
2.562244250E0,1.116366346E0,-2.214344778E1,-1.014598847E0,2.219477335E1
2.572214250E0,-6.735031149E0,-2.190110641E1,2.122707682E0,2.301141010E1
2.582184250E0,-1.311685305E1,-1.884810321E1,5.443223922E0,2.359939651E1
2.592153250E0,-1.538069147E1,-1.270740879E1,4.936552745E0,2.055269961E1
2.602123250E0,-1.365026062E1,-5.769948791E0,5.370714355E-1,1.482937523E1
2.612093250E0,-8.878366054E0,-1.257543129E-1,-3.440868895E0,9.522645467E0
2.622062250E0,-3.036476630E0,3.291853189E0,-3.263500625E0,5.541382866E0
2.632032250E0,1.026143443E0,3.551962484E0,-1.435424784E0,3.966087766E0
2.642002250E0,3.915820096E0,3.039458125E0,1.066407005E0,5.070421740E0
2.651971250E0,5.755718422E0,4.527737646E0,2.868363333E0,7.864871960E0
2.661941250E0,6.064647290E0,7.324621106E0,2.817602484E0,9.918109944E0
2.671911250E0,4.960638596E0,1.014243760E1,2.366055933E0,1.153582231E1
2.681880250E0,3.179687513E0,1.230787790E1,2.177838739E0,1.289718003E1
2.691850250E0,1.500334141E0,1.572957612E1,9.423828828E-1,1.582904460E1
2.701820250E0,6.921147439E-1,1.802839258E1,-2.969347671E-2,1.804169735E1
2.711789250E0,1.928186604E-1,1.841327034E1,-3.360418224E-1,1.841734584E1
2.721759250E0,-7.784278330E-1,1.556647856E1,1.523410177E0,1.566020381E1
2.731729250E0,-2.690904431E0,1.768962361E1,1.444064484E0,1.795129724E1
2.741698333E0,-4.597737588E0,1.962579576E1,1.470974832E0,2.021075993E1
2.751668333E0,-5.940610889E0,1.881815728E1,1.867306126E0,1.982172378E1
2.761638333E0,-5.881203763E0,1.647728297E1,1.597607982E0,1.756820318E1
2.771607333E0,-3.379130192E0,1.213511490E1,2.773061904E0,1.289842652E1
2.781577333E0,-7.570408378E-1,9.053675519E0,3.842365619E0,9.864376553E0
2.791547333E0,1.344116127E0,7.161887248E0,4.085064830E0,8.353863284E0
2.801516333E0,2.737611989E0,5.826952127E0,3.575444902E0,7.364217320E0
2.811486333E0,3.292309272E0,5.232317777E0,1.798165140E0,6.438155600E0
2.821456333E0,3.034779183E0,5.547883235E0,-7.535773127E-1,6.368419886E0
2.831425333E0,2.177556903E0,6.141383225E0,-2.553648645E0,6.998532945E0
2.841395333E0,1.090914147E0,6.285617663E0,-2.798348773E0,6.966336120E0
2.851365333E0,1.722443551E-1,6.548483920E0,-2.152865281E0,6.895443328E0
2.861334333E0,-5.922519750E-1,7.161401929E0,-1.050415893E0,7.262218224E0
2.871304333E0,-1.245438515E0,7.915803260E0,6.161418709E-1,8.036833279E0
2.881274333E0,-1.754863146E0,8.802135319E0,2.304332725E0,9.266449165E0
2.891243333E0,-2.082744886E0,9.729466299E0,3.802056084E0,1.065157130E1
2.901213333E0,-2.348542499E0,1.073934476E1,4.817853098E0,1.200253666E1
2.911183333E0,-2.394248430E0,1.176716131E1,5.259734201E0,1.310966494E1
2.921152333E0,-2.161668703E0,1.231868239E1,5.319181674E0,1.359104268E1
2.931122333E0,-2.098895188E0,1.179069752E1,4.834778448E0,1.291514583E1
2.941092333E0,-2.688422872E0,9.703032791E0,2.846942643E0,1.046334293E1
2.951061333E0,-3.083018712E0,7.529679451E0,1.394217117E0,8.254993542E0
2.961031333E0,-2.228397274E0,4.909605267E0,1.461639022E0,5.586265919E0
2.971001333E0,-5.095956615E-1,-6.020299083E-1,1.812063825E0,1.976285165E0
2.980970333E0,1.055367023E0,-2.141573138E1,1.366605030E-1,2.144215536E1
2.990940333E0,3.225189668E0,-6.338485146E1,9.402717456E0,6.415958493E1
3.000910333E0,7.565020022E0,-6.818994359E1,1.470263665E1,7.016598506E1
3.010880333E0,1.252694501E1,-4.596685206E1,8.202616205E0,4.834416979E1
3.020849333E0,1.616339625E1,-2.226280114E1,-2.632704754E0,2.763727243E1
3.030819333E0,1.812892025E1,-1.394425278E1,-9.132711164E0,2.462734959E1
3.040789333E0,1.644547412E1,-1.559613330E1,-7.050640461E0,2.373614383E1
3.050758333E0,9.830385733E0,-1.850024066E1,-1.386412253E0,2.099565496E1
3.060728333E0,2.184103738E0,-1.934103402E1,-4.722463157E-1,1.946969241E1
3.070698333E0,-4.604895750E0,-2.031760791E1,5.516988301E-1,2.084021659E1
3.080667333E0,-1.068668591E1,-1.866998182E1,2.058360243E0,2.161042165E1
3.090637333E0,-1.289992018E1,-1.354665965E1,1.387643677E0,1.875754471E1
3.100607333E0,-9.693679000E0,-6.546677715E0,6.027391756E-1,1.171280053E1
3.110576333E0,-4.264472316E0,-1.648745245E0,-2.559162569E-1,4.579255196E0
3.120546333E0,6.380339194E-2,6.038472229E-1,-1.346541259E0,1.477117363E0
3.130516333E0,3.185580629E0,2.354489556E0,-1.800369394E0,4.351192362E0
3.140485333E0,5.640448751E0,3.692921897E0,-8.429917650E-1,6.794333622E0
3.150455333E0,6.896582116E0,5.695701431E0,1.402000053E-1,8.945586382E0
3.160425333E0,6.852420436E0,8.396864802E0,1.126055329E-1,1.083862004E1
3.170394333E0,5.889181119E0,1.134899418E1,6.870010614E-2,1.278619735E1
3.180364333E0,4.389431115E0,1.428613246E1,8.622013302E-1,1.497010612E1
3.190334333E0,2.720691317E0,1.874824564E1,4.517302997E-1,1.895001150E1
3.200303333E0,1.146669395E0,2.110960859E1,2.279408383E-1,2.114195787E1
3.210273333E0,-4.187986350E-1,2.103923384E1,1.413784239E0,2.109084017E1
3.220243333E0,-2.456734261E0,1.750184730E1,4.188444772E0,1.816296429E1
3.230212333E0,-5.142450165E0,1.849910864E1,4.581011628E0,1.973949041E1
3.240182333E0,-6.885872941E0,1.972658772E1,4.442221240E0,2.136087168E1
3.250152333E0,-7.520327999E0,1.802810723E1,4.158144793E0,1.997143339E1
3.260121333E0,-6.928705550E0,1.603842605E1,4.300284466E0,1.799251281E1
3.270091333E0,-4.337989651E0,1.288506708E1,5.314648912E0,1.459755462E1
3.280061333E0,-1.168545510E0,9.606578291E0,5.630740035E0,1.119629753E1
3.290030333E0,1.254965384E0,7.232937934E0,5.379254798E0,9.100918166E0
3.300000333E0,2.722337016E0,5.691333561E0,3.443148140E0,7.187326738E0
3.309970333E0,3.482543170E0,4.703317253E0,1.567989349E-1,5.854390320E0
3.319939333E0,3.788316881E0,3.956809663E0,-3.605231496E0,6.557848857E0
3.329909333E0,3.366575635E0,3.178190333E0,-6.794352322E0,8.221797174E0
3.339879333E0,1.719656475E0,3.056139647E0,-6.667100537E0,7.533089506E0
3.349848333E0,-5.550791786E-1,4.106603633E0,-4.068352318E0,5.807219376E0
3.359818333E0,-2.378497639E0,5.206922734E0,-1.111180158E0,5.831296316E0
3.369788333E0,-3.709935832E0,6.415505372E0,1.869350166E0,7.643088584E0
3.379757333E0,-4.872244483E0,7.933458343E0,4.585339737E0,1.037804741E1
3.389727333E0,-5.768425006E0,9.594457598E0,5.983024253E0,1.269349924E1
3.399697333E0,-5.461267260E0,1.178074673E1,6.447787850E0,1.449777231E1
3.409666333E0,-4.107112926E0,1.372541605E1,6.175335667E0,1.560096770E1
3.419636333E0,-2.461645338E0,1.483520706E1,5.367562705E0,1.596727264E1
3.429606333E0,-1.245798996E0,1.450137899E1,3.995624650E0,1.509327745E1
3.439575333E0,-9.388491911E-1,1.257546637E1,1.897826107E0,1.275247177E1
3.449545333E0,-9.689836210E-1,9.867798557E0,-3.484940529E-2,9.915321079E0
3.459515333E0,-8.998680702E-1,6.658093486E0,-5.459416616E-1,6.740773228E0
3.469484333E0,-5.004911081E-1,2.333289891E0,1.340663638E0,2.737172273E0
3.479454333E0,7.459526896E-1,-4.775509901E0,5.082049012E-2,4.833686270E0
3.489424333E0,2.899153016E0,-2.692552995E1,1.191452562E0,2.710735713E1
3.499393333E0,7.426484281E0,-6.476522939E1,9.434469591E0,6.586878489E1
3.509363333E0,1.174509626E1,-6.654763380E1,9.783081173E0,6.828062337E1
3.519333333E0,1.305868495E1,-3.983405840E1,-1.569826545E0,4.194932439E1
3.529302333E0,1.336075913E1,-1.999831953E1,-4.408215880E0,2.445148330E1
3.539272333E0,1.232042953E1,-1.220924941E1,-4.318169929E0,1.787471249E1
3.549242333E0,1.119978259E1,-1.218715980E1,-3.316510313E0,1.688079484E1
3.559211333E0,9.011936924E0,-1.718418445E1,7.396681023E-1,1.941798937E1
3.569181333E0,5.103076184E0,-1.776403060E1,1.713374519E0,1.856173004E1
3.579151333E0,8.428777443E-1,-1.720436202E1,1.262684001E0,1.727121554E1
3.589120333E0,-3.142352164E0,-1.562587224E1,1.780307597E0,1.603782265E1
3.599090333E0,-5.397310415E0,-1.214526216E1,1.587914321E0,1.338505975E1
3.609060333E0,-5.324986789E0,-7.780157797E0,5.120406747E-1,9.441849676E0
3.619030333E0,-3.631607409E0,-3.694349202E0,-7.458708286E-1,5.233842918E0
3.628999333E0,-1.328962190E0,-8.295035541E-1,-1.398069263E0,2.099717674E0
3.638969333E0,3.162574394E-1,1.031406156E0,-1.366774964E0,1.741232676E0
3.648939333E0,1.291797872E0,3.454843740E0,-1.046237619E0,3.833966636E0
3.658908333E0,1.655509011E0,5.765940524E0,-1.710182671E-1,6.001335473E0
3.668878333E0,1.473135232E0,7.916304951E0,1.041485075E0,8.119279688E0
3.678848333E0,8.798974898E-1,1.048108494E1,1.775924524E0,1.066683032E1
3.688817333E0,2.777322185E-1,1.263291409E1,2.024921186E0,1.279718561E1
3.698787333E0,-5.991399220E-1,1.643721902E1,2.129229666E0,1.658537780E1
3.708757333E0,-1.502908085E0,2.034766962E1,1.260970913E0,2.044202630E1
3.718726333E0,-2.187153061E0,2.222955855E1,6.671627744E-1,2.234685701E1
3.728696333E0,-2.497085896E0,2.013074493E1,1.265293028E0,2.032445069E1
3.738667000E0,-2.931361234E0,1.683239724E1,2.672548267E0,1.729349559E1
3.748636000E0,-3.893814685E0,1.735228956E1,2.636861540E0,1.797823085E1
3.758606000E0,-4.452561749E0,1.691123993E1,3.127792597E0,1.776509016E1
3.768576000E0,-4.352370878E0,1.472738674E1,3.643412937E0,1.578333014E1
3.778545000E0,-3.313596060E0,1.230186930E1,4.259531711E0,1.343352216E1
3.788515000E0,-1.580546830E0,9.528250744E0,3.787866061E0,1.037466240E1
3.798485000E0,3.197579116E-2,7.258575636E0,3.045407667E0,7.871623122E0
3.808454000E0,1.294196400E0,5.600314633E0,2.305543098E0,6.193060414E0
3.818424000E0,1.996908930E0,4.311883003E0,9.534937620E-1,4.846558641E0
3.828394000E0,2.271114108E0,3.718766590E0,-6.729618236E-1,4.409088552E0
3.838363000E0,2.038012517E0,4.377119218E0,-2.156890651E0,5.288179739E0
3.848333000E0,1.287529259E0,5.746758733E0,-3.014000810E0,6.615675961E0
3.858303000E0,3.970799565E-1,6.682062977E0,-3.009133880E0,7.339109267E0
3.868272000E0,-1.522782332E-1,7.314681424E0,-2.107219431E0,7.613680236E0
3.878242000E0,-4.243249116E-1,8.335294790E0,-9.987323539E-1,8.405632468E0
3.888212000E0,-7.679352238E-1,9.574187055E0,3.790795223E-1,9.612412994E0
3.898181000E0,-1.613938816E0,1.092548152E1,1.908386178E0,1.120771532E1
3.908151000E0,-2.504236164E0,1.188971661E1,3.203787689E0,1.256585912E1
3.918121000E0,-2.801703905E0,1.200485998E1,3.997233803E0,1.295932429E1
3.928090000E0,-2.857098672E0,1.160243823E1,4.586221497E0,1.279894579E1
3.938060000E0,-3.479797903E0,1.151030015E1,5.231831288E0,1.311365935E1
3.948030000E0,-4.290228716E0,1.041751284E1,4.617766056E0,1.217597633E1
3.958000000E0,-4.476144154E0,8.025773599E0,3.391800231E0,9.795571303E0
3.967969000E0,-3.399916751E0,5.590429330E0,3.596773206E0,7.466532763E0
3.977939000E0,-1.362599175E0,7.745508367E-1,6.040245105E0,6.240285766E0
3.987909000E0,-1.160976362E-1,-1.553476326E1,4.022744036E0,1.604757981E1
3.997878000E0,3.559666775E0,-5.706295884E1,1.034756026E1,5.810270650E1
4.007848000E0,1.463801907E1,-6.970644002E1,2.112955929E1,7.429480237E1
4.017818000E0,2.048962130E1,-6.217310723E1,1.339159968E1,6.681807230E1
4.027787000E0,2.257313860E1,-3.952325784E1,-1.847777917E1,4.912293578E1
4.037757000E0,1.956962039E1,-1.998477504E1,-1.619718380E1,3.232197455E1
4.047727000E0,1.271847289E1,-1.297346061E1,-1.057460063E1,2.102123715E1
4.057696000E0,5.215709930E0,-1.140956548E1,-5.682185592E0,1.377203862E1
4.067666000E0,-5.084754080E-1,-1.258134750E1,-6.367272860E-1,1.260770692E1
4.077636000E0,-4.985942422E0,-1.397266557E1,2.132100064E0,1.498802374E1
4.087605000E0,-8.183014584E0,-1.325950757E1,2.768150243E0,1.582526222E1
4.097575000E0,-9.544856837E0,-9.652828013E0,2.568072556E0,1.381580173E1
4.107545000E0,-8.538236443E0,-4.742394195E0,3.549582667E0,1.039188729E1
4.117514000E0,-6.241205721E0,6.043951070E-1,4.370024207E0,7.642974150E0
4.127484000E0,-3.527625788E0,4.167284283E0,3.920327715E0,6.721560190E0
4.137454000E0,-1.641886826E-1,4.939668726E0,2.253274838E0,5.431807484E0
4.147423000E0,2.829798899E0,4.218215286E0,6.243681724E-1,5.117708239E0
4.157393000E0,4.832520546E0,4.911575779E0,-3.355249286E-1,6.898507696E0
4.167363000E0,5.848145360E0,8.041101490E0,-2.384082899E0,1.022467450E1
4.177332000E0,5.570494418E0,1.073651354E1,-3.256078169E0,1.252617963E1
4.187302000E0,4.485346210E0,1.392075282E1,-2.772498232E0,1.488598119E1
4.197272000E0,3.226503830E0,1.730562527E1,-2.011501972E0,1.771838404E1
4.207241000E0,2.370557997E0,1.945897938E1,-1.663038179E0,1.967325900E1
4.217211000E0,1.785472150E0,1.729539849E1,-5.685937019E-1,1.739660939E1
4.227181000E0,5.248937683E-1,1.686238059E1,7.993002002E-1,1.688947227E1
4.237151000E0,-1.627036287E0,1.997779113E1,1.346219662E0,2.008909388E1
4.247120000E0,-3.795789915E0,1.937332702E1,3.207977804E0,2.000062355E1
4.257090000E0,-5.908686261E0,1.793417054E1,4.619317907E0,1.943926810E1
4.267060000E0,-7.798642015E0,1.577982007E1,5.092406770E0,1.832359532E1
4.277029000E0,-8.787499738E0,1.354749113E1,5.795842016E0,1.715652798E1
4.286999000E0,-8.340282465E0,1.166954088E1,6.107920779E0,1.558990674E1
4.296969000E0,-6.697118973E0,1.006571511E1,5.284811740E0,1.319466780E1
4.306938000E0,-4.027158684E0,8.422192016E0,4.452778680E0,1.034304420E1
4.316908000E0,-1.211517355E0,6.779999746E0,3.457870259E0,7.706687848E0
4.326878000E0,1.151715542E0,5.654961541E0,1.460468409E0,5.952983008E0
4.336847000E0,2.919447532E0,4.940996044E0,-1.621856093E0,5.963810274E0
4.346817000E0,4.144365537E0,4.601582133E0,-5.408855742E0,8.222289478E0
4.356787000E0,4.602505408E0,4.700131690E0,-7.856241767E0,1.024669843E1
4.366756000E0,3.310747882E0,5.262362525E0,-6.333044429E0,8.874737327E0
4.376726000E0,1.253436775E0,6.362552987E0,-3.921369689E0,7.578279785E0
4.386696000E0,-4.444163100E-1,7.591852310E0,-1.810454671E0,7.817382777E0
4.396665000E0,-1.808686181E0,8.663937546E0,8.051920009E-1,8.887265815E0
4.406635000E0,-2.984420623E0,9.576907765E0,3.433417203E0,1.060246587E1
4.416605000E0,-4.206952086E0,1.004100244E1,5.411670592E0,1.215756367E1
4.426574000E0,-4.363160745E0,8.730087681E0,6.561173548E0,1.176012759E1
4.436544000E0,-3.366098502E0,6.216400078E0,6.150217198E0,9.370134505E0
4.446514000E0,-2.214979230E0,3.893241658E0,4.934147201E0,6.664028225E0
4.456483000E0,-9.948623742E-1,7.367275375E-1,5.363974854E0,5.504974554E0
4.466453000E0,6.366116573E-1,-6.348194565E0,3.278756011E0,7.173220309E0
4.476423000E0,2.704944765E0,-3.148892391E1,-2.422745858E0,3.169761431E1
4.486392000E0,5.951652187E0,-6.551203577E1,6.519813852E0,6.610413729E1
4.496362000E0,8.312316402E0,-6.254629057E1,1.298931124E1,6.441937034E1
4.506332000E0,7.712153510E0,-3.379308005E1,5.315857239E-1,3.466600863E1
4.516302000E0,1.025640685E1,-1.817322109E1,-5.403760478E0,2.155598464E1
4.526271000E0,1.370621731E1,-1.363982802E1,-6.981197759E0,2.055826898E1
4.536241000E0,1.494851440E1,-1.722335845E1,-6.111474717E0,2.361042741E1
4.546211000E0,1.133490473E1,-2.012582392E1,1.261194130E0,2.313264931E1
4.556180000E0,5.064663486E0,-1.761220648E1,3.234173330E0,1.860915125E1
4.566150000E0,-4.581194061E-1,-1.667621226E1,2.685441962E0,1.689726390E1
4.576120000E0,-5.092390398E0,-1.583480729E1,3.832430615E0,1.706930245E1
4.586089000E0,-8.311777874E0,-1.328331626E1,4.004884300E0,1.617316421E1
4.596059000E0,-8.514306128E0,-8.670817380E0,1.847441819E0,1.229184787E1
4.606029000E0,-6.866655482E0,-3.402612902E0,-9.501550019E-1,7.722145207E0
4.615998000E0,-4.619945021E0,1.482146961E0,-2.928353426E0,5.667089676E0
4.625968000E0,-2.189234085E0,3.896137199E0,-2.828743769E0,5.289085201E0
4.635938000E0,-1.433140862E-1,4.686084924E0,-1.591165373E0,4.950933052E0
4.645907000E0,1.635061006E0,5.946739941E0,-1.645489077E-1,6.169620471E0
4.655877000E0,3.194089205E0,7.442605639E0,9.157886497E-1,8.150659691E0
4.665847000E0,4.108881416E0,9.123957297E0,1.908435295E0,1.018683604E1
4.675816000E0,4.413252964E0,1.350481815E1,1.991601412E0,1.434654631E1
4.685786000E0,4.063354703E0,1.675513096E1,1.718576349E0,1.732624511E1
4.695756000E0,3.192957184E0,1.916986964E1,9.411643962E-1,1.945673837E1
4.705725000E0,2.367961248E0,2.048973591E1,-9.528505683E-2,2.062633262E1
4.715695000E0,1.671525412E0,1.963385556E1,3.222681943E-1,1.970751477E1
4.725665000E0,4.976053610E-1,1.567197870E1,2.297250577E0,1.584726752E1
4.735635000E0,-1.494426114E0,1.497734118E1,2.749703447E0,1.530081459E1
4.745603000E0,-3.456439738E0,1.519250468E1,3.209852421E0,1.590793282E1
4.755573000E0,-5.282688031E0,1.488162927E1,2.768766539E0,1.603233454E1
4.765543000E0,-6.531990679E0,1.359072544E1,2.401868813E0,1.526904365E1
4.775512000E0,-6.464723141E0,1.129170433E1,3.297628484E0,1.342272646E1
4.785482000E0,-5.351643076E0,9.693065627E0,4.002938347E0,1.177366214E1
4.795452000E0,-3.418857052E0,8.357125955E0,3.551088910E0,9.702596055E0
4.805421000E0,-1.322644858E0,6.910347047E0,2.407690301E0,7.436347108E0
4.815391000E0,6.847221091E-1,5.591733259E0,1.273900130E0,5.775737766E0
4.825361000E0,2.500201585E0,4.930965731E0,-2.752623546E-1,5.535449428E0
4.835330000E0,4.025968483E0,5.132827402E0,-2.318325112E0,6.923075234E0
4.845300000E0,4.744586316E0,6.058874334E0,-4.205151436E0,8.769512878E0
4.855270000E0,3.981273243E0,7.346770944E0,-4.245722927E0,9.372926070E0
4.865239000E0,2.585690217E0,8.301798431E0,-2.699424409E0,9.104534212E0
4.875209000E0,1.299358322E0,9.470954463E0,-1.217427721E0,9.636879201E0
4.885179000E0,-4.400994569E-2,1.037656947E1,5.248951936E-1,1.038993002E1
4.895148000E0,-9.394472882E-1,1.098217261E1,2.319330833E0,1.126365713E1
4.905118000E0,-1.527045099E0,1.101182852E1,3.399379392E0,1.162531782E1
4.915088000E0,-2.487179544E0,1.100937854E1,4.340458345E0,1.209264473E1
4.925057000E0,-3.636027904E0,1.061513821E1,5.000094438E0,1.228425018E1
4.935027000E0,-4.732479656E0,8.206816844E0,4.598778977E0,1.053076324E1
4.944997000E0,-5.145966096E0,5.180714929E0,4.322423193E0,8.485523938E0
4.954967000E0,-4.679964351E0,2.339032441E0,4.340178849E0,6.797815202E0
4.964936000E0,-3.685159133E0,-3.309031724E0,5.487748715E0,7.392257757E0
4.974906000E0,-3.744135320E0,-1.841985197E1,4.868795210E0,1.941686542E1
4.984876000E0,-7.310039905E-1,-5.417931790E1,7.804027301E0,5.474336213E1
4.994845000E0,1.130486407E1,-6.944498061E1,1.150650764E1,7.129379357E1
5.004815000E0,1.861699903E1,-5.238856367E1,1.076579289E1,5.663087985E1
5.014785000E0,2.068984400E1,-2.919601548E1,-7.235355173E0,3.650790776E1
5.024754000E0,2.076183258E1,-1.569034598E1,-8.357328268E0,2.733286638E1
5.034724000E0,1.698904649E1,-1.147851936E1,-7.171466156E0,2.172128067E1
5.044694000E0,9.121533626E0,-1.489666831E1,-4.589055642E0,1.806024735E1
5.054663000E0,2.055277298E0,-1.835571854E1,-8.348192579E-1,1.848928044E1
5.064633000E0,-4.565672042E0,-1.957620319E1,2.603216076E0,2.026943083E1
5.074603000E0,-1.072348243E1,-1.834886677E1,5.793720646E0,2.202819072E1
5.084572000E0,-1.426324529E1,-1.409305506E1,6.027514547E0,2.093765265E1
5.094542000E0,-1.439809494E1,-7.901719657E0,3.198805861E0,1.673244365E1
5.104512000E0,-1.214081827E1,-9.671592897E-1,-7.576026821E-1,1.220282046E1
5.114481000E0,-7.965434427E0,4.012183380E0,-3.515963516E0,9.586853526E0
5.124451000E0,-2.824588737E0,5.550066000E0,-3.520916108E0,7.153906931E0
5.134421000E0,1.367813722E0,4.740416667E0,-2.271603520E0,5.431633926E0
5.144391000E0,4.226838759E0,4.877975339E0,-1.247188733E0,6.573909722E0
5.154360000E0,5.577937338E0,6.852829741E0,-8.615521431E-1,8.877890093E0
5.164330000E0,5.522327394E0,9.931135597E0,-3.930491053E-2,1.136332253E1
5.174300000E0,4.991189128E0,1.483601865E1,-1.907595634E-2,1.565310775E1
5.184269000E0,4.726640919E0,1.805729653E1,1.648540592E-1,1.866639412E1
5.194239000E0,4.609763264E0,2.075130759E1,-1.174939513E-1,2.125748077E1
5.204209000E0,4.240676487E0,1.848435027E1,4.087893713E-1,1.896896546E1
5.214178000E0,3.383247216E0,1.814885224E1,1.007019028E0,1.848895039E1
5.224148000E0,1.671721294E0,2.111189602E1,1.961626392E0,2.126863380E1
5.234118000E0,-5.867546421E-1,2.051305226E1,3.259234496E0,2.077864778E1
5.244087000E0,-2.862841222E0,1.971374724E1,3.650097474E0,2.025218264E1
5.254057000E0,-4.672811159E0,1.676593779E1,2.818388350E0,1.763165185E1
5.264027000E0,-5.113321091E0,1.319271132E1,2.792524946E0,1.442192359E1
5.273996000E0,-4.272225432E0,1.022026404E1,3.438588481E0,1.159868949E1
5.283966000E0,-2.579737751E0,7.574597762E0,3.859816049E0,8.884129561E0
5.293936000E0,-7.865051767E-1,5.403103251E0,3.572786758E0,6.525099260E0
5.303906000E0,6.017846176E-1,3.677970566E0,2.128508120E0,4.291871273E0
5.313875000E0,1.496948603E0,2.497770313E0,-5.611420103E-1,2.965567739E0
5.323845000E0,1.938092080E0,1.728529333E0,-3.517032387E0,4.371902490E0
5.333815000E0,1.679723501E0,2.016946753E0,-5.584144742E0,6.170268856E0
5.343784000E0,5.273305224E-1,3.334745439E0,-5.154891286E0,6.162102628E0
5.353754000E0,-4.150558323E-1,4.559596201E0,-3.364593136E0,5.681784564E0
5.363724000E0,-9.706489080E-1,6.065902687E0,-1.415229817E0,6.303983673E0
5.373693000E0,-1.596753265E0,7.888396776E0,1.103644267E0,8.123697148E0
5.383663000E0,-2.417454713E0,9.397988228E0,4.137354433E0,1.054912185E1
5.393633000E0,-3.422731709E0,1.037646656E1,6.161492969E0,1.254392866E1
5.403602000E0,-4.297708182E0,1.090353458E1,6.695723827E0,1.349778054E1
5.413572000E0,-4.117409288E0,1.079086692E1,6.491756573E0,1.324910455E1
5.423542000E0,-4.035916351E0,8.382909837E0,5.735596983E0,1.092972419E1
5.433511000E0,-3.460685694E0,4.744376986E0,3.801905226E0,6.995708813E0
5.443481000E0,-1.321806514E0,2.370179390E0,5.297511892E0,5.952189097E0
5.453451000E0,5.583856329E-1,-2.854702483E0,5.411359520E0,6.143609089E0
5.463420000E0,1.970073572E0,-2.572700277E1,1.439383349E0,2.584243962E1
5.473390000E0,7.900687623E0,-6.432822720E1,9.271328766E0,6.547136181E1
5.483360000E0,1.552772205E1,-6.840298339E1,1.321076284E1,7.137648453E1
5.493330000E0,1.861871578E1,-4.826211342E1,-5.776980360E-1,5.173221340E1
5.503299000E0,1.647314899E1,-2.214597377E1,-8.335274325E0,2.883202369E1
5.513269000E0,1.290777884E1,-1.161186160E1,-1.071431634E1,2.040202586E1
5.523239000E0,8.256081390E0,-1.059939984E1,-6.106178309E0,1.475789858E1
5.533208000E0,3.804208736E0,-1.303122643E1,-6.978246231E-2,1.357533557E1
5.543178000E0,5.196633243E-1,-1.343941353E1,1.114224365E0,1.349553193E1
5.553148000E0,-2.293292597E0,-1.207324902E1,1.825105455E0,1.242391012E1
5.563117000E0,-4.364962564E0,-9.794788468E0,2.705086852E0,1.105930713E1
5.573087000E0,-5.366525409E0,-6.274890946E0,3.222067255E0,8.863157944E0
5.583057000E0,-5.194774559E0,-2.399216078E0,3.297111590E0,6.604003736E0
5.593026000E0,-4.218768140E0,1.935834762E0,2.261487837E0,5.163311736E0
5.602996000E0,-2.993090290E0,5.618727515E0,4.425769222E-1,6.381579953E0
5.612966000E0,-1.543784215E0,7.560026500E0,-9.430915654E-1,7.773460754E0
5.622935000E0,-2.903364766E-1,8.781881733E0,-1.166859831E0,8.863819939E0
5.632905000E0,5.467678732E-1,1.012550640E1,-5.876945090E-1,1.015727423E1
5.642875000E0,1.038832705E0,1.112439444E1,1.609248034E-1,1.117395283E1
5.652845000E0,1.178743712E0,1.498569802E1,3.574590039E-1,1.503623486E1
5.662814000E0,1.190651274E0,1.796197172E1,-3.140352416E-1,1.800412998E1
5.672784000E0,1.098813151E0,1.989590906E1,-7.358812261E-1,1.993981215E1
5.682754000E0,9.113277358E-1,2.123324914E1,-1.589787038E-1,2.125339176E1
5.692723000E0,5.666940147E-1,2.006300845E1,1.017049707E0,2.009676193E1
5.702693000E0,-2.079272627E-1,1.652883553E1,2.733608401E0,1.675464869E1
5.712663000E0,-1.508253025E0,1.559489369E1,3.205899704E0,1.599228968E1
5.722632000E0,-2.611202496E0,1.433993503E1,3.615864365E0,1.501754275E1
5.732602000E0,-3.442376600E0,1.260746000E1,3.508532875E0,1.353173334E1
5.742571750E0,-3.572141225E0,1.099621996E1,3.324980589E0,1.203048388E1
5.752540750E0,-3.080860213E0,9.053067409E0,2.793446467E0,9.962583617E0
5.762510750E0,-2.272602224E0,7.207638202E0,2.133064270E0,7.852689507E0
5.772480750E0,-1.390466420E0,5.783023750E0,1.030285391E0,6.036410236E0
5.782449750E0,-6.699436370E-1,4.561600626E0,-1.593223739E-1,4.613286070E0
5.792419750E0,-1.879531923E-1,4.025041991E0,-1.362569647E0,4.253573260E0
5.802389750E0,-1.181208459E-1,4.437564810E0,-2.368674024E0,5.031555486E0
5.812359750E0,-3.704606168E-1,5.469598957E0,-2.658129033E0,6.092569555E0
5.822328750E0,-5.796173114E-1,6.544254629E0,-2.035049587E0,6.877837720E0
5.832298750E0,-6.919727296E-1,7.792629324E0,-1.170990158E0,7.910443476E0
5.842268750E0,-8.487737111E-1,9.056807873E0,4.823375501E-2,9.096620919E0
5.852237750E0,-1.099685555E0,9.938098462E0,1.429447761E0,1.010041733E1
5.862207750E0,-1.428835557E0,1.074501539E1,2.542272302E0,1.113373591E1
5.872177750E0,-1.425046854E0,1.112257946E1,3.090090920E0,1.163147430E1
5.882146750E0,-1.273643437E0,1.120268047E1,3.011007328E0,1.166997782E1
5.892116750E0,-1.269954282E0,1.076365982E1,3.202328224E0,1.130150710E1
5.902086750E0,-2.122445726E0,8.213806606E0,2.593817847E0,8.871261795E0
5.912055750E0,-2.299256318E0,3.841674478E0,1.916665835E0,4.870179703E0
5.922025750E0,-7.048262984E-1,-1.215095851E0,4.472119516E0,4.687546373E0
5.931995750E0,2.718813483E-1,-1.396137109E1,4.531937701E0,1.468101704E1
5.941964750E0,2.554795868E0,-5.125180414E1,6.189285954E0,5.168734536E1
5.951934750E0,1.087090828E1,-6.973819742E1,1.680644496E1,7.255376916E1
5.961904750E0,1.610407040E1,-5.288509051E1,1.266271969E1,5.671435755E1
5.971874750E0,1.622059254E1,-2.973874468E1,-4.335857756E0,3.415113790E1
5.981843750E0,1.532382730E1,-1.593511978E1,-1.036985570E1,2.441887861E1
5.991813750E0,1.216836918E1,-1.042426404E1,-9.089269275E0,1.842143603E1
6.001783750E0,6.992070072E0,-1.411088907E1,-3.967915279E0,1.624039981E1
6.011752750E0,2.200603411E0,-1.775520832E1,-7.193317786E-3,1.789106284E1
6.021722750E0,-1.374263493E0,-1.714948356E1,1.304811435E0,1.725386679E1
6.031692750E0,-4.321854552E0,-1.519807825E1,1.852287991E0,1.590883339E1
6.041661750E0,-5.906677158E0,-1.211327204E1,2.094908849E0,1.363850570E1
6.051631750E0,-5.755755259E0,-8.100762970E0,2.097875142E0,1.015638516E1
6.061601750E0,-4.449490206E0,-3.938792052E0,1.828324932E0,6.217299895E0
6.071570750E0,-2.749781215E0,6.778092384E-3,6.407191801E-1,2.823448908E0
6.081540750E0,-1.104114821E0,4.008666864E0,-1.148825848E0,4.313731609E0
6.091510750E0,4.192374685E-1,6.727392347E0,-2.341901085E0,7.135689773E0
6.101480750E0,1.603982470E0,8.160888720E0,-2.531884139E0,8.693865754E0
6.111449750E0,2.153293882E0,8.883494647E0,-1.969721131E0,9.350558968E0
6.121419750E0,2.050754769E0,9.908330287E0,-9.598121171E-1,1.016375145E1
6.131389750E0,1.629129298E0,1.338376675E1,-5.561813056E-1,1.349402136E1
6.141358750E0,1.041948394E0,1.581941391E1,-2.339714373E-1,1.585541723E1
6.151328750E0,2.900485012E-1,1.784893919E1,2.246982649E-2,1.785130985E1
6.161298750E0,-4.633637738E-1,1.972486864E1,6.542183545E-1,1.974115373E1
6.171267750E0,-1.523458709E0,2.065698265E1,2.193248637E0,2.082887894E1
6.181237750E0,-3.713597359E0,1.999711734E1,4.069220045E0,2.074208425E1
6.191207750E0,-5.908218484E0,1.785083135E1,5.257447940E0,1.952434338E1
6.201176750E0,-6.776144092E0,1.593268032E1,6.159769210E0,1.837686556E1
6.211146750E0,-6.539961603E0,1.469600357E1,5.893961803E0,1.713132815E1
6.221116750E0,-5.260649875E0,1.348994634E1,5.078645933E0,1.534424107E1
6.231086750E0,-3.235209749E0,1.064067417E1,4.643774471E0,1.205218529E1
6.241055750E0,-1.107397740E0,8.150484184E0,4.432070181E0,9.343445204E0
6.251025750E0,5.241230687E-1,8.764494452E0,2.102276341E0,9.028323976E0
6.260995750E0,2.102528648E0,8.380941079E0,3.406836346E-2,8.640715291E0
6.270964750E0,3.597856110E0,6.983522027E0,-1.869130311E0,8.075134464E0
6.280934750E0,4.343069127E0,5.215699990E0,-3.797294111E0,7.777224337E0
6.290904750E0,3.792820407E0,3.943255817E0,-4.430477400E0,7.040162147E0
6.300873750E0,2.200615983E0,4.519417058E0,-3.743113811E0,6.267275505E0
6.310843750E0,7.509841456E-1,5.499019808E0,-2.559913352E0,6.111984326E0
6.320813750E0,-6.888970211E-2,6.473987469E0,-7.045121567E-1,6.512572220E0
6.330782750E0,-5.250100914E-1,7.510010587E0,9.026849663E-1,7.582264488E0
6.340752750E0,-1.120284711E0,8.572289457E0,2.724007273E0,9.064182257E0
6.350722750E0,-2.065463148E0,8.887391816E0,4.421783760E0,1.013923286E1
6.360692750E0,-3.289200307E0,7.803715060E0,4.950431696E0,9.809361925E0
6.370661750E0,-3.989801407E0,5.473297906E0,4.467078631E0,8.113587168E0
6.380631750E0,-2.439467287E0,2.296913193E0,4.545977451E0,5.647364150E0
6.390601750E0,-1.084588337E-1,-1.466546590E0,5.771082566E0,5.955494623E0
6.400570750E0,6.261556663E-1,-1.035109900E1,3.384282466E0,1.090828535E1
6.410540750E0,-8.123808601E-1,-3.339016947E1,5.277660595E0,3.381445078E1
6.420510750E0,3.230450408E0,-6.186045895E1,9.406791211E0,6.265492728E1
6.430479750E0,1.030368743E1,-5.401454804E1,1.498095710E1,5.699268769E1
6.440449750E0,1.379084874E1,-3.171587306E1,6.358245928E0,3.516406411E1
6.450419750E0,1.776810494E1,-2.190358797E1,-8.121657411E0,2.935019657E1
6.460388750E0,1.888914365E1,-1.703128093E1,-9.920828125E0,2.729994704E1
6.470358750E0,1.372314032E1,-1.430262745E1,-5.865202857E0,2.067100232E1
6.480328750E0,6.019794468E0,-1.373919326E1,-3.247117896E0,1.534754481E1
6.490298750E0,4.718466219E-1,-1.420533797E1,-1.415146056E0,1.428344862E1
6.500267750E0,-4.273826399E0,-1.444063461E1,1.054956987E0,1.509670342E1
6.510237750E0,-8.501355130E0,-1.338504378E1,4.102718743E0,1.637878925E1
6.520207750E0,-1.020881870E1,-1.011731679E1,4.581726158E0,1.508549942E1
6.530176750E0,-9.264143123E0,-4.907095642E0,2.601178322E0,1.080139177E1
6.540146750E0,-6.922699875E0,6.604599649E-1,4.407210159E-1,6.968085529E0
6.550116750E0,-3.748075758E0,4.230122555E0,-7.525716647E-1,5.701611424E0
6.560085750E0,-5.892311938E-1,5.811180432E0,-1.710973653E0,6.086414565E0
6.570055750E0,2.324065908E0,6.261452875E0,-2.204253097E0,7.033193170E0
6.580025750E0,4.475405651E0,7.374591996E0,-1.414358436E0,8.741525761E0
6.589994750E0,5.403009696E0,9.079272875E0,-3.336000252E-1,1.057057230E1
6.599964750E0,5.597080538E0,1.118780281E1,7.219580555E-1,1.253058122E1
6.609934750E0,5.489532115E0,1.592213428E1,6.744649234E-1,1.685539160E1
6.619904750E0,4.631023448E0,1.889675790E1,4.169687489E-1,1.946041367E1
6.629873750E0,3.447655174E0,2.104625986E1,9.403506830E-2,2.132698344E1
6.639843750E0,2.438227239E0,1.967875750E1,6.653289413E-1,1.984039091E1
6.649813750E0,8.017102763E-1,1.599872930E1,2.265539957E0,1.617821838E1
6.659782750E0,-1.742874892E0,1.762258879E1,2.239907079E0,1.784966197E1
6.669752750E0,-3.786302223E0,1.848076125E1,2.947131175E0,1.909345969E1
6.679722750E0,-5.381124737E0,1.626719485E1,3.050394173E0,1.740353517E1
6.689691750E0,-6.463591704E0,1.470682325E1,3.068284314E0,1.635490864E1
6.699661750E0,-6.591528783E0,1.295566169E1,3.481169075E0,1.494710539E1
6.709631750E0,-5.725980653E0,1.103704522E1,3.670550157E0,1.296441900E1
6.719600750E0,-4.073706321E0,8.809506903E0,3.077879595E0,1.018213327E1
6.729570750E0,-2.208998259E0,6.618544089E0,2.152282752E0,7.301857312E0
6.739541333E0,-4.896049082E-1,4.801821202E0,9.093414366E-1,4.911629228E0
6.749511333E0,8.739793036E-1,3.645723172E0,-9.937320343E-1,3.878484321E0
6.759480333E0,1.865508546E0,3.441422042E0,-3.177430780E0,5.041782836E0
6.769450333E0,2.326275571E0,4.254635838E0,-4.880074489E0,6.879579287E0
6.779420333E0,2.004336063E0,5.371193826E0,-4.755174454E0,7.448407230E0
6.789389333E0,1.324334704E0,5.987458781E0,-2.803117762E0,6.742476863E0
6.799359333E0,9.864376328E-1,6.770575789E0,-1.373792793E0,6.978614644E0
6.809329333E0,8.802507348E-1,8.216095791E0,-1.200644239E-1,8.263987347E0
6.819298333E0,4.570820370E-1,9.359959107E0,2.488887223E0,9.695994951E0
6.829268333E0,-1.379766747E0,8.780919281E0,5.141613429E0,1.026861667E1
6.839238333E0,-3.312790606E0,5.884537261E0,4.947763027E0,8.371542232E0
6.849208333E0,-2.772737968E0,1.924482393E0,4.752542038E0,5.829096340E0
6.859177333E0,-9.950629337E-1,-1.630870306E0,6.739110167E0,7.004676584E0
6.869147333E0,5.538425656E-1,-1.031667761E1,5.254363534E0,1.159089792E1
6.879117333E0,-6.557871625E-2,-3.199763402E1,2.885758215E0,3.212756579E1
6.889086333E0,1.851524637E0,-6.595852916E1,4.632964724E0,6.614695816E1
6.899056333E0,8.367443367E0,-6.193971445E1,1.158595376E1,6.356710359E1
6.909026333E0,1.045752885E1,-3.681169344E1,1.896426283E0,3.831523347E1
6.918995333E0,1.075159000E1,-2.005420020E1,-7.319514148E0,2.390278060E1
6.928965333E0,1.201070486E1,-1.228840317E1,-8.238623943E0,1.905614883E1
6.938935333E0,1.104917001E1,-1.092965058E1,-6.216716997E0,1.673884673E1
6.948904333E0,6.822192670E0,-1.276115991E1,-3.164579185E0,1.481229477E1
6.958874333E0,1.759499695E0,-1.388483103E1,-1.368042056E0,1.406257128E1
6.968844333E0,-2.333812047E0,-1.363764350E1,8.894147104E-1,1.386445302E1
6.978814333E0,-5.433544441E0,-1.190499422E1,3.317855172E0,1.350038723E1
6.988783333E0,-6.958855548E0,-8.424274794E0,3.904416271E0,1.160338497E1
6.998753333E0,-6.767897179E0,-3.880011747E0,2.791879413E0,8.285741611E0
7.008723333E0,-5.435035481E0,1.539331561E0,8.839458096E-1,5.717561764E0
7.018692333E0,-3.807618248E0,5.403207917E0,-1.033049809E0,6.690276857E0
7.028662333E0,-1.631897662E0,7.064165071E0,-1.736104985E0,7.455171269E0
7.038632333E0,4.987134084E-1,8.061786600E0,-1.295146573E0,8.180374252E0
7.048601333E0,2.162616975E0,9.009647740E0,-1.757274684E-1,9.267229614E0
7.058571333E0,3.382911294E0,9.777691795E0,7.086359055E-1,1.037060801E1
7.068541333E0,4.122291128E0,1.330156659E1,1.599225175E0,1.401722081E1
7.078511333E0,4.089086252E0,1.705913589E1,1.753810354E0,1.762982117E1
7.088480333E0,3.629888619E0,1.992233379E1,2.251379170E0,2.037508732E1
7.098450333E0,2.801703613E0,2.155218902E1,2.588544828E0,2.188714141E1
7.108420333E0,1.481579489E0,1.826017153E1,3.041448225E0,1.857092753E1
7.118389333E0,-1.958024946E-1,1.775043349E1,1.952014593E0,1.785851586E1
7.128359333E0,-1.916614380E0,1.949120923E1,1.437896987E0,1.963792748E1
7.138329333E0,-3.949072334E0,1.877972704E1,1.492000104E0,1.924836057E1
7.148298333E0,-5.440616648E0,1.520657776E1,1.514341146E0,1.622139161E1
7.158268333E0,-5.648300977E0,1.227360737E1,2.183867365E0,1.368627117E1
7.168238333E0,-5.089607708E0,1.016826124E1,2.365471358E0,1.161434880E1
7.178207333E0,-4.055486982E0,8.547025393E0,2.076491289E0,9.685578650E0
7.188177333E0,-2.769438677E0,7.073863263E0,1.583981484E0,7.760046997E0
7.198147333E0,-1.508483405E0,5.699679877E0,8.688693488E-1,5.959597874E0
7.208117333E0,-4.527151536E-1,4.417454481E0,1.167911891E-1,4.442127338E0
7.218086333E0,3.484589330E-1,3.976536414E0,-8.427252050E-1,4.079761176E0
7.228056333E0,7.214932019E-1,4.513391502E0,-1.838247657E0,4.926500760E0
7.238026333E0,5.779765827E-1,5.120054744E0,-1.836943728E0,5.470226666E0
7.247995333E0,3.660623778E-1,5.623543866E0,-5.185253099E-1,5.659250461E0
7.257965333E0,3.889644597E-1,6.668010364E0,5.541101488E-1,6.702290177E0
7.267935333E0,3.974033806E-1,7.864947687E0,1.244175224E0,7.972659754E0
7.277904333E0,-1.340749373E-1,8.831104179E0,2.667579303E0,9.226177781E0
7.287874333E0,-9.644923747E-1,9.304257361E0,4.437411028E0,1.035326360E1
7.297844333E0,-1.233880324E0,8.243914504E0,5.049152577E0,9.745692831E0
7.307814333E0,-1.466692478E0,5.495275835E0,4.050415399E0,6.982485821E0
7.317783333E0,-8.053598160E-1,2.967248520E0,3.890697534E0,4.958900636E0
7.327753333E0,1.032085822E0,3.876511019E-1,5.919642189E0,6.021431571E0
7.337723333E0,2.896531125E0,-9.912366035E0,3.725028958E0,1.097819355E1
7.347692333E0,3.927188253E0,-3.749031661E1,1.704820043E0,3.773397751E1
7.357662333E0,9.141794229E0,-6.836233822E1,9.166288215E0,6.957731332E1
7.367632333E0,1.325354458E1,-5.700581517E1,1.467468930E1,6.033793097E1
7.377601333E0,1.319411816E1,-3.133970531E1,1.740359858E0,3.404835878E1
7.387571333E0,1.373633514E1,-1.782250510E1,-5.304509255E0,2.311852957E1
7.397541333E0,1.351877311E1,-1.049757643E1,-6.038068187E0,1.814978250E1
7.407511333E0,1.147913566E1,-9.704074180E0,-4.178779324E0,1.560133993E1
7.417480333E0,7.174037762E0,-1.246940840E1,-8.308238554E-1,1.440983109E1
7.427450333E0,2.892778382E0,-1.369263539E1,4.903352986E-1,1.400345884E1
7.437420333E0,-9.993308895E-1,-1.388211559E1,1.563334966E0,1.400556359E1
7.447389333E0,-4.832547151E0,-1.298530707E1,3.324114032E0,1.424855943E1
7.457359333E0,-7.158028670E0,-1.033284399E1,3.409738319E0,1.302426024E1
7.467329333E0,-7.566330383E0,-5.875780470E0,2.084248205E0,9.803991136E0
7.477298333E0,-6.721434034E0,-1.883136731E-1,1.202631927E-1,6.725146894E0
7.487268333E0,-4.894588740E0,3.907843325E0,-1.629216714E0,6.471675632E0
7.497238333E0,-2.489904931E0,6.007151619E0,-2.930119286E0,7.132397645E0
7.507208333E0,-1.691368706E-1,6.767670892E0,-3.366311048E0,7.560557298E0
7.517177333E0,1.230505311E0,7.722803628E0,-2.893953087E0,8.338513277E0
7.527147333E0,1.663534023E0,9.342014002E0,-2.157283437E0,9.731106971E0
7.537117333E0,1.598509476E0,1.070342415E1,-1.533047558E0,1.093017639E1
7.547086333E0,1.474066401E0,1.367059607E1,-8.491197201E-1,1.377603255E1
7.557056333E0,1.375336457E0,1.753076880E1,-7.822275730E-1,1.760202502E1
7.567026333E0,9.368461543E-1,2.026169917E1,-4.620550939E-1,2.028860836E1
7.576995333E0,-1.178146711E-1,2.116026887E1,-3.863558706E-1,2.116412365E1
7.586965333E0,-8.740286395E-1,1.668119292E1,2.786180717E0,1.693484356E1
7.596935333E0,-1.741156687E0,1.790325748E1,4.277565694E0,1.848934351E1
7.606905333E0,-3.387705426E0,1.865836925E1,5.616611992E0,1.977770516E1
7.616874333E0,-4.759730897E0,1.680753137E1,5.935555387E0,1.844936223E1
7.626844333E0,-5.316339342E0,1.488949378E1,5.159019420E0,1.663057336E1
7.636814333E0,-4.964982492E0,1.316047679E1,4.318068187E0,1.471376612E1
7.646783333E0,-4.031124265E0,1.135284749E1,3.484734707E0,1.254115166E1
7.656753333E0,-2.619264052E0,9.243414159E0,2.420426853E0,9.907558510E0
7.666723333E0,-1.050169287E0,6.653951318E0,8.906677687E-1,6.794940232E0
7.676692333E0,4.631441743E-1,4.165593268E0,-1.451494102E0,4.435482492E0
7.686662333E0,1.976202185E0,2.279388503E0,-4.899153954E0,5.753494285E0
7.696632333E0,3.269160730E0,1.240877979E0,-7.397644644E0,8.182440731E0
7.706602333E0,3.284971308E0,1.631831589E0,-6.585906100E0,7.538439493E0
7.716571333E0,1.848161611E0,3.448594821E0,-4.826233327E0,6.212973178E0
7.726541333E0,6.917849609E-1,5.338851707E0,-2.876828932E0,6.103937146E0
7.736511333E0,2.154116805E-1,7.397708963E0,-8.448548341E-1,7.448911316E0
7.746480125E0,-5.886326216E-2,9.279492064E0,1.211936016E0,9.358484213E0
7.756450125E0,-1.196838140E0,1.053301874E1,3.604648236E0,1.119689217E1
7.766420125E0,-2.890694142E0,1.096843165E1,5.324100351E0,1.253030926E1
7.776389125E0,-3.253991590E0,9.171227358E0,5.539399509E0,1.119753631E1
7.786359125E0,-2.282980740E0,6.075781558E0,5.068810916E0,8.235287894E0
7.796329125E0,-4.058430324E-1,3.289521904E0,6.478409718E0,7.277049911E0
7.806299125E0,1.093234761E0,-2.911455558E0,7.100287415E0,7.751504182E0
7.816268125E0,8.642206661E-1,-2.264673400E1,4.924153140E0,2.319199695E1
7.826238125E0,2.453863571E0,-6.104250833E1,3.813265781E0,6.121070384E1
7.836208125E0,7.738612161E0,-6.588379706E1,1.332892689E1,6.766255335E1
7.846177125E0,8.974883119E0,-3.619704582E1,1.069328390E1,3.879588862E1
7.856147125E0,9.763376641E0,-1.742054060E1,-1.362880719E-1,1.997041143E1
7.866117125E0,1.263088862E1,-1.068704726E1,-8.065155766E0,1.840649516E1
7.876086125E0,1.387142337E1,-1.187908053E1,-6.597846115E0,1.941804609E1
7.886056125E0,1.151488553E1,-1.491716514E1,-3.782779422E-1,1.884827575E1
7.896026125E0,6.133402945E0,-1.425519835E1,8.571059934E-1,1.554232744E1
7.905996125E0,1.119277894E0,-1.374043872E1,-2.814240774E-1,1.378882296E1
7.915965125E0,-2.883031366E0,-1.371119913E1,8.067017519E-1,1.403423027E1
7.925935125E0,-6.114432238E0,-1.267657058E1,2.140018948E0,1.423591951E1
7.935905125E0,-7.700639173E0,-9.379620370E0,1.614903899E0,1.224275445E1
7.945874125E0,-7.656158819E0,-4.959908863E0,1.920564759E-1,9.124382142E0
7.955844125E0,-6.184004749E0,-3.484759265E-1,-1.364550683E0,6.342345684E0
7.965814125E0,-4.308070326E0,2.989959691E0,-2.815039065E0,5.951787447E0
7.975783125E0,-2.489847336E0,4.250190200E0,-3.421969525E0,5.997777248E0
7.985753125E0,-1.018132685E0,5.413270390E0,-3.014839593E0,6.279279278E0
7.995723125E0,-9.667639266E-2,7.246829749E0,-1.943091742E0,7.503432099E0
8.005693125E0,2.623134032E-1,9.670377846E0,-5.848490345E-1,9.691597618E0
8.015662125E0,2.654165205E-1,1.239808524E1,4.586720045E-1,1.240940544E1
8.025632125E0,2.054793441E-1,1.465512919E1,1.098153804E0,1.469765203E1
8.035602125E0,1.452813819E-1,1.842761006E1,1.381845578E0,1.847991927E1
8.045571125E0,2.362535325E-1,2.140717808E1,4.834945679E-1,2.141394069E1
8.055541125E0,7.017275664E-1,2.014556412E1,8.994024125E-1,2.017783685E1
8.065511125E0,1.203770379E0,1.623579179E1,1.787491486E0,1.637819050E1
8.075480125E0,1.230312938E0,1.837074004E1,-1.863343176E-1,1.841283465E1
8.085450125E0,8.273991412E-1,1.845988669E1,-2.303708681E-1,1.847985597E1
8.095420125E0,3.182089841E-1,1.374934988E1,9.291202283E-1,1.378438041E1
8.105390125E0,-4.994633595E-2,1.028370516E1,1.894948107E0,1.045695533E1
8.115359125E0,-4.672422320E-1,8.051956846E0,2.533848803E0,8.454153660E0
8.125329125E0,-8.993976617E-1,6.857204627E0,2.675156125E0,7.415297145E0
8.135299125E0,-1.323109712E0,6.375253724E0,2.237856899E0,6.884946105E0
8.145268125E0,-1.724534223E0,5.886379718E0,1.664035714E0,6.355509368E0
8.155238125E0,-2.144579192E0,5.813967215E0,7.654460641E-1,6.243984494E0
8.165208125E0,-2.595803269E0,6.467951388E0,-4.681959128E-1,6.985112539E0
8.175177125E0,-2.778517648E0,7.255628055E0,-1.645536293E0,7.941793782E0
8.185147125E0,-2.650199624E0,8.195503651E0,-2.530890112E0,8.977485333E0
8.195117125E0,-2.388828792E0,8.979118842E0,-2.298496034E0,9.571528728E0
8.205087125E0,-1.914444478E0,9.823972507E0,-6.863660538E-1,1.003227949E1
8.215056125E0,-1.330045387E0,1.081439728E1,1.241480827E0,1.096637971E1
8.225026125E0,-8.503200073E-1,1.122174707E1,2.462163109E0,1.152010844E1
8.234996125E0,-6.293638873E-1,1.153458714E1,3.521423646E0,1.207655679E1
8.244965125E0,-6.452773771E-1,1.148534072E1,4.558586386E0,1.237376839E1
8.254935125E0,-8.384679935E-1,9.502158714E0,4.736225383E0,1.065015867E1
8.264905125E0,-1.184979402E0,5.382528069E0,3.004971832E0,6.277391202E0
8.274874125E0,-7.099877818E-1,1.640059206E0,3.035496052E0,3.522515171E0
8.284844125E0,9.404719397E-1,-4.652563421E0,4.030069427E0,6.226740194E0
8.294814125E0,2.159504941E0,-1.885346043E1,1.795020653E-1,1.897758290E1
8.304784125E0,2.176051392E0,-5.578407922E1,1.491018064E-1,5.582670441E1
8.314753125E0,6.681212207E0,-6.793820459E1,7.885328742E0,6.871984174E1
8.324723125E0,1.009590312E1,-3.931904500E1,4.199108924E0,4.081111460E1
8.334693125E0,1.251316312E1,-1.847880126E1,-4.170641170E0,2.270329480E1
8.344662125E0,1.481624454E1,-1.137703859E1,-4.460711013E0,1.920562553E1
8.354632125E0,1.566542514E1,-1.105086336E1,-2.009780406E0,1.927605622E1
8.364602125E0,1.340073771E1,-1.565277762E1,3.317061120E0,2.087084360E1
8.374572125E0,8.746646996E0,-1.706152974E1,5.419704081E0,1.992417685E1
8.384541125E0,3.893669089E0,-1.656345222E1,3.823492561E0,1.743925754E1
8.394511125E0,-7.425200817E-1,-1.536215580E1,3.649443755E0,1.580713783E1
8.404481125E0,-5.408723010E0,-1.401697577E1,5.052255110E0,1.585103075E1
8.414450125E0,-8.863913491E0,-1.172384631E1,4.101271557E0,1.525902890E1
8.424420125E0,-1.006693250E1,-7.343488317E0,3.537512845E-1,1.246575672E1
8.434390125E0,-8.495792674E0,-2.432323013E0,-3.052206810E0,9.349366546E0
8.444359125E0,-5.295170667E0,1.596762913E0,-5.005272732E0,7.459305552E0
8.454329125E0,-2.576629664E0,4.201985754E0,-5.382440361E0,7.298381255E0
8.464299125E0,-6.839081767E-1,4.286365753E0,-3.729700298E0,5.722877430E0
8.474269125E0,6.340846369E-1,4.976718439E0,-1.334981314E0,5.191528181E0
8.484238125E0,1.086655328E0,6.978388172E0,8.724221170E-1,7.116167622E0
8.494208125E0,8.983197275E-1,9.461986588E0,2.842104657E0,9.920369318E0
8.504178125E0,9.017499965E-1,1.164947674E1,3.339527292E0,1.215219749E1
8.514147125E0,7.344336748E-1,1.392434184E1,2.695295105E0,1.420180637E1
8.524117125E0,5.152598593E-1,1.595807361E1,2.267992133E0,1.612666718E1
8.534087125E0,6.675985381E-1,1.938036707E1,2.462792269E0,1.954762546E1
8.544056125E0,4.019580692E-1,2.167754865E1,2.072239194E0,2.178007945E1
8.554026125E0,-4.556647450E-2,2.170826524E1,1.532442956E0,2.176233530E1
8.563996125E0,-6.613680375E-1,1.804001684E1,1.639102017E0,1.812639707E1
8.573966125E0,-1.260267347E0,1.535806041E1,1.266178297E0,1.546161378E1
8.583935125E0,-1.861285394E0,1.505702469E1,8.866122861E-1,1.519751484E1
8.593905125E0,-2.032962862E0,1.360551539E1,1.631234003E0,1.385293873E1
8.603875125E0,-1.901180947E0,1.170580999E1,2.259064751E0,1.207244176E1
8.613844125E0,-1.652709072E0,9.910209582E0,2.431424296E0,1.033709463E1
8.623814125E0,-1.251958453E0,8.144361565E0,2.090671957E0,8.501113721E0
8.633784125E0,-1.049611170E0,6.528484688E0,1.286254127E0,6.736263476E0
8.643754125E0,-1.042591734E0,5.280288919E0,4.088897241E-1,5.397743917E0
8.653723125E0,-1.043485115E0,4.718942183E0,-6.625689825E-1,4.878142491E0
8.663693125E0,-1.186667347E0,4.903627658E0,-1.805588619E0,5.358534675E0
8.673663125E0,-1.195556357E0,5.363574319E0,-2.225424403E0,5.928726529E0
8.683632125E0,-9.421650741E-1,5.642257880E0,-1.881721705E0,6.021928726E0
8.693602125E0,-4.458429576E-1,6.163788586E0,-9.843962967E-1,6.257803268E0
8.703572125E0,1.478347879E-1,7.255319322E0,-1.726179556E-1,7.258878050E0
8.713541125E0,4.663785251E-1,8.413941595E0,4.011681469E-1,8.436400771E0
8.723511125E0,5.966430878E-1,9.335263976E0,9.134590459E-1,9.398805451E0
8.733481125E0,8.343195402E-1,1.009086983E1,1.991503179E0,1.031929397E1
8.743451458E0,9.455719543E-1,1.002095234E1,2.503458484E0,1.037212112E1
8.753420458E0,9.214837646E-1,8.155784100E0,2.336917503E0,8.533881300E0
8.763390458E0,6.966223624E-1,5.285761912E0,1.876989554E0,5.652225358E0
8.773360458E0,8.985818289E-1,1.797503673E0,2.071061565E0,2.885786680E0
8.783329458E0,2.416908291E0,-3.261319613E0,2.327029862E0,4.678965621E0
8.793299458E0,4.002781934E0,-1.563043774E1,-5.119395179E-1,1.614295293E1
8.803269458E0,5.072948990E0,-4.969031221E1,2.288734839E0,5.000100246E1
8.813238458E0,5.177870843E0,-6.920961380E1,9.051520820E0,6.999079238E1
8.823208458E0,2.669892461E0,-4.294995542E1,5.272941307E0,4.335471031E1
8.833178458E0,2.980721675E0,-1.901911673E1,-9.245700713E-1,1.927346188E1
8.843148458E0,4.488820041E0,-1.103106703E1,-8.403454614E-1,1.193901695E1
8.853117458E0,5.873300666E0,-8.969683190E0,-2.064711488E0,1.091851230E1
8.863087458E0,7.304744666E0,-1.673535568E1,-4.233513502E-1,1.826501165E1
8.873057458E0,6.534765767E0,-2.254233547E1,4.196448441E0,2.384261378E1
8.883026458E0,3.859792076E0,-1.913733574E1,5.602539498E0,2.031068839E1
8.892996458E0,2.497590657E-1,-1.430373024E1,3.536970808E0,1.473666315E1
8.902966458E0,-2.802027841E0,-1.138224028E1,1.446232193E0,1.181094159E1
8.912936458E0,-4.017640001E0,-8.173315222E0,-3.533583881E-1,9.114240234E0
8.922905458E0,-3.709485597E0,-4.391336723E0,-2.491006839E0,6.264921123E0
8.932875458E0,-2.208317351E0,-1.038170800E0,-3.924559345E0,4.621323423E0
8.942845458E0,-1.670184792E-1,8.517715055E-1,-3.819973122E0,3.917346618E0
8.952814458E0,1.860150450E0,1.803774227E0,-2.337037371E0,3.489341605E0
8.962784458E0,3.634928627E0,3.793098149E0,-7.888361692E-1,5.312491148E0
8.972754458E0,4.744099828E0,5.723956347E0,3.154197892E-1,7.441078489E0
8.982723458E0,4.952756549E0,7.643098478E0,1.017206266E0,9.164139914E0
8.992693458E0,4.419759746E0,9.913432567E0,1.367822639E0,1.093989763E1
9.002663458E0,3.419229519E0,1.246408861E1,1.601668142E0,1.302343949E1
9.012633458E0,2.255054438E0,1.451687762E1,1.404381039E0,1.475795692E1
9.022602458E0,1.448106810E0,1.806062711E1,1.486253607E0,1.817944484E1
9.032572458E0,1.174597451E0,2.076845397E1,2.521598886E0,2.095392136E1
9.042542458E0,-6.940536806E-1,2.230811472E1,4.115632904E0,2.269520053E1
9.052511458E0,-2.761966520E0,1.995553896E1,5.656264300E0,2.092475377E1
9.062481458E0,-4.579852125E0,1.705114976E1,6.117482146E0,1.868529747E1
9.072451458E0,-6.067694859E0,1.688175593E1,6.030324719E0,1.892552299E1
9.082421458E0,-6.783511584E0,1.671165341E1,5.138392782E0,1.875362550E1
9.092390458E0,-6.783352540E0,1.533184617E1,3.891185192E0,1.721106333E1
9.102360458E0,-5.302673814E0,1.177546904E1,3.125394069E0,1.328714073E1
9.112330458E0,-2.746924850E0,9.073143239E0,2.083107998E0,9.706022012E0
9.122299458E0,-1.572296006E-1,6.887123660E0,1.019435225E0,6.963938659E0
9.132269458E0,1.826974810E0,5.362356344E0,-1.894122919E-1,5.668207789E0
9.142239458E0,3.374816408E0,4.452244830E0,-1.754335288E0,5.855728999E0
9.152208458E0,4.472993382E0,4.262771069E0,-3.560262022E0,7.131223783E0
9.162178458E0,5.056698409E0,5.070797800E0,-5.067011143E0,8.772558979E0
9.172148458E0,4.675755817E0,6.397363801E0,-5.170725546E0,9.461784120E0
9.182118458E0,3.449345896E0,7.279432654E0,-3.692956395E0,8.861492753E0
9.192087458E0,2.294616114E0,7.996853855E0,-1.872234013E0,8.527613669E0
9.202057458E0,1.326108749E0,8.816107825E0,2.660190761E-1,8.919253766E0
9.212027458E0,2.645985682E-1,9.615219891E0,2.784494380E0,1.001378425E1
9.221996458E0,-1.074207775E0,9.859039428E0,4.795610290E0,1.101600921E1
9.231966458E0,-2.430926113E0,8.709073958E0,5.869839699E0,1.078018502E1
9.241936458E0,-3.080437167E0,6.553252324E0,6.294453975E0,9.594496340E0
9.251906458E0,-3.204013684E0,3.737814479E0,5.649399669E0,7.493509017E0
9.261875458E0,-2.803823521E0,-1.778758085E-1,5.472193952E0,6.151257821E0
9.271845458E0,-2.649776870E0,-1.072584237E1,2.634751865E0,1.135812174E1
9.281815458E0,-4.696415784E0,-3.360035583E1,4.166362981E-1,3.392954197E1
9.291784458E0,-3.924296805E0,-6.627676270E1,7.815381424E0,6.685124955E1
9.301754458E0,3.089064149E0,-5.979837052E1,9.937020235E0,6.069704940E1
9.311724458E0,9.686889213E0,-3.181820168E1,1.576109962E0,3.329741586E1
9.321694458E0,1.550522547E1,-1.991073526E1,-6.271649249E0,2.600351860E1
9.331663458E0,2.001609039E1,-1.642011591E1,-8.608276731E0,2.728308101E1
9.341633458E0,2.105845715E1,-1.695646697E1,-6.174000748E0,2.773262834E1
9.351603458E0,1.654565446E1,-1.733877196E1,-2.454936535E0,2.409187432E1
9.361572458E0,7.325882936E0,-1.554082799E1,-1.421328317E0,1.723966559E1
9.371542458E0,3.628866088E-2,-1.460672243E1,-5.271452022E-1,1.461627651E1
9.381512458E0,-4.938447243E0,-1.416510445E1,1.620621307E0,1.508856715E1
9.391481458E0,-8.302971382E0,-1.148030627E1,2.821061697E0,1.444628516E1
9.401451458E0,-9.769544284E0,-6.707971405E0,2.787874070E0,1.217428099E1
9.411421458E0,-9.624833883E0,-1.510493093E0,2.124510963E0,9.971587812E0
9.421391458E0,-8.287145308E0,3.867452513E0,9.947072768E-1,9.199098264E0
9.431360458E0,-5.591967148E0,6.764410484E0,5.738984422E-1,8.795266068E0
9.441330458E0,-2.837204982E0,8.194197968E0,1.677451711E0,8.832239620E0
9.451300458E0,-8.825813618E-1,1.070778149E1,1.981474035E0,1.092528140E1
9.461269458E0,5.709651133E-1,1.309970200E1,1.547427031E0,1.320313311E1
9.471239458E0,1.564897049E0,1.477154959E1,1.617251995E0,1.494199064E1
9.481209458E0,2.334400569E0,1.856075233E1,9.548349671E-1,1.873132838E1
9.491179458E0,2.552790273E0,2.133958426E1,-3.033067703E-1,2.149387331E1
9.501148458E0,2.394691795E0,2.251768829E1,-2.720171499E-1,2.264629833E1
9.511118458E0,2.090814044E0,2.167699199E1,3.792900221E-1,2.178089406E1
9.521088458E0,1.061430439E0,1.871692795E1,1.544983918E0,1.881055559E1
9.531057458E0,-1.059569855E0,1.574708736E1,2.369926644E0,1.595963661E1
9.541027458E0,-3.141117524E0,1.368868618E1,2.516932808E0,1.426820590E1
9.550997458E0,-4.674524101E0,1.216723482E1,2.566649344E0,1.328459513E1
9.560966458E0,-5.694355402E0,1.039296857E1,2.486307431E0,1.210872428E1
9.570936458E0,-5.718523114E0,7.133943404E0,2.510015552E0,9.481288581E0
9.580906458E0,-5.333170552E0,7.090883923E0,1.706039772E0,9.035148845E0
9.590876458E0,-4.515980357E0,7.755726961E0,6.113731011E-1,8.995507565E0
9.600845458E0,-3.056460367E0,6.617888031E0,-6.727138285E-1,7.320583027E0
9.610815458E0,-1.482152224E0,5.075617075E0,-1.748854254E0,5.569304724E0
9.620785458E0,1.857631177E-2,3.967194902E0,-2.610865989E0,4.749273806E0
9.630754458E0,1.179564076E0,3.801794128E0,-3.217023447E0,5.118031835E0
9.640724458E0,1.582411945E0,4.699185610E0,-2.856975296E0,5.722646311E0
9.650694458E0,1.371706214E0,6.017313495E0,-1.550385722E0,6.363437398E0
9.660664458E0,1.031669573E0,7.462668021E0,-2.335588431E-1,7.537261162E0
9.670633458E0,8.557458580E-1,8.964738200E0,1.010380154E0,9.061992056E0
9.680603458E0,5.582274657E-1,1.017807638E1,1.952773561E0,1.037873698E1
9.690573458E0,2.638901049E-1,1.084953671E1,2.126173911E0,1.105905513E1
9.700542458E0,-2.960185084E-1,1.157460315E1,3.373333554E0,1.205978624E1
9.710512458E0,-9.886736081E-1,1.204648514E1,4.283943837E0,1.282370674E1
9.720482458E0,-2.240299720E0,9.923177537E0,3.230058060E0,1.067340950E1
9.730451458E0,-2.680775884E0,7.173772298E0,2.609613515E0,8.090713876E0
9.740421458E0,-8.668703319E-1,4.395444977E0,4.133126603E0,6.095419283E0
9.750391208E0,7.597983116E-1,-4.177092987E0,3.615465585E0,5.576467582E0
9.760361208E0,6.082560235E-1,-3.178527484E1,7.284999204E-1,3.179943999E1
9.770330208E0,5.157474586E0,-6.802746117E1,5.065232420E0,6.841046408E1
9.780300208E0,1.039265750E1,-6.548730439E1,1.126318395E1,6.725662554E1
9.790270208E0,1.092820398E1,-3.760254573E1,-2.142514686E0,3.921692819E1
9.800239208E0,9.622580366E0,-1.638576235E1,-7.675566312E0,2.049394005E1
9.810209208E0,6.833269050E0,-1.149482841E1,-5.958821458E0,1.464008877E1
9.820179208E0,3.903693848E0,-1.487133350E1,-7.927684949E-1,1.539557948E1
9.830149208E0,2.158759567E0,-1.801436511E1,4.883420851E0,1.878896996E1
9.840118208E0,8.590773091E-2,-1.808949364E1,5.674173737E0,1.895872907E1
9.850088208E0,-2.129110675E0,-1.605976488E1,6.187064012E0,1.734153745E1
9.860058208E0,-3.460856432E0,-1.255918421E1,5.004769871E0,1.395558515E1
9.870027208E0,-3.510123902E0,-8.201066692E0,1.896002945E0,9.119939247E0
9.879997208E0,-2.545289758E0,-3.927354898E0,-6.521364534E-1,4.725240566E0
9.889967208E0,-1.140969456E0,-2.270900685E-1,-1.867379655E0,2.200110900E0
9.899937208E0,2.089931918E-1,2.665791809E0,-2.320390348E0,3.540386348E0
9.909906208E0,1.349474223E0,5.744671277E0,-1.568135530E0,6.105847837E0
9.919876208E0,2.115463566E0,8.757604678E0,-4.759626232E-2,9.009611046E0
9.929846208E0,2.320997582E0,1.042966219E1,1.455840923E0,1.078352243E1
9.939815208E0,2.135074835E0,1.226195504E1,2.310317789E0,1.265905424E1
9.949785208E0,1.791185757E0,1.429658260E1,2.393703762E0,1.460583576E1
9.959755208E0,1.596035227E0,1.614248076E1,1.935946444E0,1.633630626E1
9.969725208E0,1.817540327E0,1.935199170E1,1.138271697E0,1.947045706E1
9.979694208E0,2.286230038E0,2.151076969E1,8.290348267E-1,2.164780264E1
9.989664208E0,2.466666634E0,2.028340638E1,1.493720209E0,2.048736729E1
9.999634208E0,1.738381599E0,1.609168249E1,2.256404121E0,1.634183513E1
1.000960321E1,9.764967084E-2,1.800281919E1,9.021073345E-1,1.802567147E1
1.001957321E1,-1.826557611E0,1.853593791E1,1.189232301E0,1.866364328E1
1.002954321E1,-3.135623480E0,1.455441558E1,1.369605017E0,1.495121953E1
1.003951221E1,-3.002940217E0,1.100121231E1,2.330422855E0,1.163938113E1
1.004948221E1,-2.299698514E0,8.482577382E0,3.109302531E0,9.322579821E0
1.005945221E1,-1.596655909E0,6.787856065E0,2.941280451E0,7.568053299E0
1.006942221E1,-9.325569293E-1,5.951115997E0,2.402114689E0,6.485028837E0
1.007939121E1,-2.646370867E-1,5.388029130E0,1.715182478E0,5.660630850E0
1.008936121E1,1.467832392E-1,5.204221905E0,5.004959321E-1,5.230293217E0
1.009933121E1,6.725756150E-2,5.918718914E0,-9.719463321E-1,5.998369515E0
1.010930021E1,-9.714363087E-2,6.977541495E0,-2.058018619E0,7.275366852E0
1.011927021E1,-1.382548559E-2,7.320010577E0,-2.338507215E0,7.684488401E0
1.012924021E1,2.257683054E-1,7.109887959E0,-1.562027528E0,7.282953255E0
1.013921021E1,5.284731414E-1,7.129409473E0,-6.879285029E-1,7.181991988E0
1.014917921E1,7.956785810E-1,7.565136967E0,1.032384396E-2,7.606872440E0
1.015914921E1,8.944485053E-1,8.010327010E0,8.386650447E-1,8.103624867E0
1.016911921E1,4.696986107E-1,8.632539167E0,2.138658886E0,8.905908774E0
1.017908821E1,-5.223958012E-1,9.462454365E0,3.184097775E0,9.997470612E0
1.018905821E1,-1.117630953E0,8.176165740E0,3.328645624E0,8.898239536E0
1.019902821E1,-9.218644184E-1,4.928673622E0,2.278562876E0,5.507586264E0
1.020899821E1,-3.244663820E-1,2.555817962E0,2.910629931E0,3.887061934E0
1.021896721E1,7.419626959E-1,-2.604741615E0,4.441316968E0,5.201969236E0
1.022893721E1,7.674691276E-1,-1.484042161E1,2.798639964E0,1.512149159E1
1.023890721E1,-1.428971943E0,-4.788848569E1,6.051640159E0,4.829048945E1
1.024887621E1,1.926362273E0,-6.968651271E1,1.293394513E1,7.090280574E1
1.025884621E1,5.770337631E0,-5.216208464E1,1.114125547E1,5.364985968E1
1.026881621E1,8.075153920E0,-2.637301017E1,2.533092758E0,2.769765938E1
1.027878621E1,1.079491436E1,-1.434312059E1,-3.149509156E0,1.822566027E1
1.028875521E1,1.340091313E1,-1.140531924E1,-8.867822939E0,1.970543233E1
1.029872521E1,1.268934557E1,-1.679790101E1,-7.145014522E0,2.223151371E1
1.030869521E1,6.094534748E0,-1.720163838E1,-3.750283667E0,1.863073655E1
1.031866421E1,-7.707925388E-1,-1.421492273E1,-1.772084658E0,1.434567647E1
1.032863421E1,-4.134991573E0,-1.224148745E1,8.269857430E-1,1.294743510E1
1.033860421E1,-4.840376280E0,-9.614783689E0,2.531690011E0,1.105815365E1
1.034857421E1,-4.693521120E0,-6.278647197E0,2.661307579E0,8.278472635E0
1.035854321E1,-4.586658576E0,-2.689487650E0,2.463989779E0,5.860207023E0
1.036851321E1,-4.229148994E0,8.225120384E-1,2.071795975E0,4.780644918E0
1.037848321E1,-3.283953308E0,4.769139360E0,1.295909050E0,5.933668328E0
1.038845221E1,-1.808626832E0,8.672804264E0,7.039802793E-1,8.887308538E0
1.039842221E1,-1.132076316E-1,1.036044051E1,9.969175974E-1,1.040890908E1
1.040839221E1,1.123525238E0,1.199906422E1,1.539367083E0,1.214946510E1
1.041836121E1,1.893826319E0,1.376563905E1,1.408512390E0,1.396650650E1
1.042833121E1,2.307443444E0,1.571397457E1,1.263390344E0,1.593265349E1
1.043830121E1,2.415764283E0,1.951682471E1,6.480961005E-1,1.967644257E1
1.044827121E1,2.078245454E0,2.234346699E1,-8.107281446E-2,2.244005780E1
1.045824021E1,1.355678411E0,2.401139461E1,-5.992804013E-2,2.404970949E1
1.046821021E1,1.583718725E-1,2.210190214E1,-1.063601218E-2,2.210247210E1
1.047818021E1,-8.336053759E-1,1.595815547E1,4.315477578E-1,1.598573919E1
1.048814921E1,-1.429033193E0,1.340493601E1,5.057093096E-1,1.349037387E1
1.049811921E1,-1.846627009E0,1.219975938E1,1.490992337E0,1.242848415E1
1.050808921E1,-2.264040439E0,1.071421343E1,2.022590486E0,1.113602805E1
1.051805921E1,-2.693869846E0,9.827407161E0,2.194160511E0,1.042349301E1
1.052802821E1,-2.670860468E0,7.975636064E0,2.344533356E0,8.731615138E0
1.053799821E1,-1.940654622E0,5.874642602E0,2.131324139E0,6.543707562E0
1.054796821E1,-9.403205699E-1,4.693613799E0,1.349116519E0,4.973361906E0
1.055793721E1,-1.924456081E-1,4.386018680E0,1.655814528E-1,4.393360035E0
1.056790721E1,1.428781763E-1,4.660007511E0,-1.149408231E0,4.801793775E0
1.057787721E1,8.149472762E-2,5.376918250E0,-2.261598934E0,5.833757023E0
1.058784721E1,-3.664455897E-1,6.345033560E0,-2.387052115E0,6.789090590E0
1.059781621E1,-8.276073021E-1,7.473221076E0,-1.124515464E0,7.602532612E0
1.060778621E1,-1.013934091E0,8.340397071E0,7.593779699E-1,8.436050055E0
1.061775621E1,-7.906119686E-1,8.901450861E0,2.337637296E0,9.237177212E0
1.062772621E1,-5.204006947E-1,9.749593585E0,3.042040840E0,1.022640721E1
1.063769521E1,-5.371337083E-1,1.059820233E1,3.144992766E0,1.106803437E1
1.064766521E1,-7.384299543E-1,1.141010927E1,3.537937353E0,1.196882923E1
1.065763521E1,-1.060240896E0,1.238151423E1,4.335881145E0,1.316152995E1
1.066760421E1,-1.493049095E0,1.110929576E1,4.296372678E0,1.200435196E1
1.067757421E1,-1.436790402E0,7.713001941E0,3.527767875E0,8.602320139E0
1.068754421E1,-6.101596577E-1,4.430605454E0,4.272952825E0,6.185522237E0
1.069751421E1,7.631039619E-1,-2.618488419E-1,6.511703179E0,6.561491505E0
1.070748321E1,1.896638391E0,-1.385968684E1,4.777301488E0,1.478210966E1
1.071745321E1,4.923657880E0,-5.462821567E1,3.442912497E0,5.495760184E1
1.072742321E1,1.240688647E1,-6.980396690E1,1.344529934E1,7.216162901E1
1.073739221E1,1.463732676E1,-5.675072220E1,1.459893745E1,6.039888062E1
1.074736225E1,1.305016673E1,-3.212962906E1,-2.781380153E0,3.479017089E1
1.075733225E1,1.068011364E1,-1.615308761E1,-6.676348493E0,2.048318080E1
1.076730225E1,8.911642558E0,-9.624340963E0,-5.824796843E0,1.435177934E1
1.077727125E1,6.741785853E0,-1.120588006E1,-3.558756949E0,1.355316109E1
1.078724125E1,3.098857358E0,-1.479996238E1,-1.489612101E0,1.519410240E1
1.079721125E1,-1.297903535E0,-1.510059113E1,2.351492492E-1,1.515809029E1
1.080718125E1,-5.345780073E0,-1.462172288E1,2.154875554E0,1.571673099E1
1.081715025E1,-7.899134603E0,-1.183536090E1,2.809966021E0,1.450406853E1
1.082712025E1,-8.438641988E0,-7.212311296E0,1.906172422E0,1.126328576E1
1.083709025E1,-7.666982015E0,-2.303907632E0,1.270552014E0,8.105856279E0
1.084705925E1,-5.987473984E0,3.289719540E0,3.588120496E-1,6.841114342E0
1.085702925E1,-3.418575801E0,7.652414846E0,-9.343464696E-1,8.433215093E0
1.086699925E1,-5.443971196E-1,9.119391207E0,-1.498467125E0,9.257703167E0
1.087696925E1,2.053903203E0,9.956713657E0,-6.382083126E-1,1.018636221E1
1.088693825E1,3.947885642E0,1.136314210E1,-3.107233421E-1,1.203342630E1
1.089690825E1,5.380902543E0,1.348740163E1,-4.974074328E-1,1.452967753E1
1.090687825E1,6.228038376E0,1.619587870E1,-1.201868280E0,1.739366081E1
1.091684825E1,6.648819802E0,1.999296348E1,-2.002000101E0,2.116443710E1
1.092681725E1,6.454748375E0,2.213654104E1,-2.215224667E0,2.316457309E1
1.093678725E1,5.659915302E0,1.784572322E1,-1.045823563E0,1.875095265E1
1.094675725E1,4.162322921E0,1.848975894E1,-1.244605579E0,1.899329252E1
1.095672625E1,1.796255878E0,1.824975179E1,-1.274108291E-2,1.833794258E1
1.096669625E1,-5.848139513E-1,1.723241579E1,7.495732856E-1,1.725862165E1
1.097666625E1,-2.673587902E0,1.472153485E1,6.726438812E-1,1.497745340E1
1.098663625E1,-4.391855371E0,1.202096672E1,8.228237680E-1,1.282454964E1
1.099660525E1,-5.505707268E0,9.894199905E0,1.394470886E0,1.140844220E1
1.100657525E1,-5.824522024E0,8.364945436E0,2.242568586E0,1.043678508E1
1.101654525E1,-5.043886575E0,6.890281742E0,3.156074409E0,9.103712426E0
1.102651425E1,-3.422547230E0,5.583285202E0,2.904427789E0,7.163979618E0
1.103648425E1,-1.813688474E0,4.743249058E0,1.166248139E0,5.210375440E0
1.104645425E1,-4.993215554E-1,4.423512781E0,-6.247129389E-1,4.495225645E0
1.105642425E1,1.761209860E-1,4.751736292E0,-1.917726374E0,5.127152312E0
1.106639325E1,5.229486555E-2,5.615716783E0,-2.136153939E0,6.008507585E0
1.107636325E1,-2.354811153E-1,6.752410244E0,-1.159415156E0,6.855270889E0
1.108633325E1,-2.046668735E-1,7.901432558E0,-1.120782602E-1,7.904877389E0
1.109630325E1,3.295949748E-1,9.332250322E0,4.617897034E-1,9.349480127E0
1.110627225E1,8.424864194E-1,1.069783655E1,8.824267030E-1,1.076718009E1
1.111624225E1,1.004189999E0,1.095169458E1,6.941720867E-1,1.101952298E1
1.112621225E1,1.153948594E0,1.090911867E1,1.325156822E0,1.104972887E1
1.113618225E1,8.237513557E-1,1.096721076E1,2.409829359E0,1.125902108E1
1.114615125E1,-3.017282414E-1,9.886253539E0,2.751372242E0,1.026640629E1
1.115612125E1,-1.870641816E0,7.174564596E0,2.346771816E0,7.776954153E0
1.116609125E1,-1.963346204E0,4.241202444E0,3.007039992E0,5.557410909E0
1.117606025E1,-1.068344845E0,5.892964268E-1,4.020494027E0,4.201547716E0
1.118603025E1,-2.802609931E-1,-9.227800339E0,2.287158283E0,9.511148108E0
1.119600025E1,-1.421215612E0,-4.300466197E1,1.711019846E0,4.306214572E1
1.120597025E1,8.973419268E-1,-6.963697042E1,1.108139986E1,7.051886482E1
1.121593925E1,6.045653195E0,-6.296499799E1,9.923323717E0,6.402822228E1
1.122590925E1,7.660117968E0,-3.818034653E1,-3.393869560E0,3.908880427E1
1.123587925E1,8.404083189E0,-1.931964724E1,-5.606879302E0,2.180170818E1
1.124584925E1,9.749495936E0,-1.361282090E1,-4.907582130E0,1.744837890E1
1.125581825E1,1.010573696E1,-1.425738521E1,-3.690192416E0,1.786103224E1
1.126578825E1,7.255939711E0,-1.533135032E1,-8.981902117E-1,1.698545582E1
1.127575825E1,2.312948889E0,-1.426418552E1,1.096791111E-1,1.445090830E1
1.128572825E1,-1.682172022E0,-1.283450621E1,1.548647929E0,1.303658555E1
1.129569725E1,-4.299375516E0,-1.026944965E1,2.924373227E0,1.151078558E1
1.130566725E1,-5.181695507E0,-6.657657868E0,2.482482768E0,8.794151313E0
1.131563725E1,-4.764015445E0,-2.992110296E0,6.647453892E-1,5.664843653E0
1.132560625E1,-3.861315860E0,4.950884271E-1,-4.723918748E-1,3.921482731E0
1.133557625E1,-2.643149636E0,4.034052551E0,-7.801331735E-1,4.885532494E0
1.134554625E1,-1.358962499E0,7.151910728E0,-4.799851421E-1,7.295683099E0
1.135551625E1,9.866942525E-2,8.210285997E0,3.943572005E-1,8.220343631E0
1.136548525E1,1.387747173E0,9.371062385E0,1.495237123E0,9.590536298E0
1.137545525E1,2.424353258E0,1.107483928E1,2.322322415E0,1.157249909E1
1.138542525E1,3.097469229E0,1.279658234E1,2.374392893E0,1.337851176E1
1.139539525E1,3.340142419E0,1.570334551E1,2.285003145E0,1.621643767E1
1.140536425E1,3.091531089E0,1.909214845E1,1.611037720E0,1.940781130E1
1.141533425E1,2.164376987E0,2.120134439E1,1.542628806E0,2.136729359E1
1.142530425E1,6.370482981E-1,2.207772507E1,1.428658386E0,2.213307118E1
1.143527425E1,-8.907268256E-1,2.029930145E1,8.820244876E-1,2.033796944E1
1.144524325E1,-2.248054151E0,1.706890542E1,6.983306996E-1,1.723046562E1
1.145521325E1,-2.826459554E0,1.439890303E1,9.273111729E-1,1.470296528E1
1.146518325E1,-2.587249377E0,1.279002176E1,1.065773093E0,1.309253178E1
1.147515325E1,-2.056290036E0,1.168130197E1,1.274221727E0,1.192915694E1
1.148512225E1,-1.430144456E0,1.037933520E1,1.880896225E0,1.064489000E1
1.149509225E1,-7.302839059E-1,8.812707669E0,2.275846260E0,9.131079194E0
1.150506225E1,1.025177611E-1,7.188941730E0,2.351131500E0,7.564338201E0
1.151503125E1,1.002928462E0,5.979201928E0,2.118309698E0,6.422145839E0
1.152500125E1,1.692679761E0,5.328320287E0,1.248119756E0,5.728347474E0
1.153497125E1,1.673151231E0,5.169916291E0,-7.560800672E-2,5.434444412E0
1.154494125E1,8.559063640E-1,5.713078187E0,-1.086020905E0,5.878033640E0
1.155491025E1,-2.260797061E-1,6.451201454E0,-9.650571426E-1,6.526901832E0
1.156488025E1,-7.446379432E-1,7.314193767E0,-3.524211160E-1,7.360442702E0
1.157485025E1,-7.473658886E-1,8.044778219E0,9.217338793E-1,8.131826715E0
1.158482025E1,-5.910927280E-1,8.641580717E0,2.359073188E0,8.977278775E0
1.159478925E1,-5.768375086E-1,9.322656795E0,3.399446050E0,9.939864419E0
1.160475925E1,-4.943016842E-1,9.917774709E0,4.514325303E0,1.090805768E1
1.161472925E1,-3.220550268E-1,1.025519063E1,4.954003175E0,1.139362987E1
1.162469925E1,-1.349709865E-1,8.399175037E0,3.210264065E0,8.992783431E0
1.163466825E1,2.462181381E-1,5.591074862E0,2.046020279E0,5.958770047E0
1.164463825E1,1.333566580E0,2.216081868E0,3.596273269E0,4.429740410E0
1.165460825E1,2.557009332E0,-4.906482854E0,1.979968377E0,5.876405831E0
1.166457825E1,2.814285944E0,-2.342277178E1,-3.258831038E0,2.381525610E1
1.167454725E1,-6.597851962E-2,-5.894902737E1,3.562745919E0,5.905662824E1
1.168451725E1,-3.078637248E-1,-6.794866877E1,1.452194716E1,6.948383493E1
1.169448725E1,2.562328252E0,-4.215504282E1,1.037710390E1,4.348904974E1
1.170445725E1,7.702826616E0,-2.250032440E1,3.487960031E0,2.403672193E1
1.171442625E1,1.194630714E1,-1.563789762E1,-1.399190758E0,1.972855370E1
1.172439625E1,1.547727110E1,-1.362223258E1,-6.035853846E0,2.148354423E1
1.173436625E1,1.589916759E1,-1.412446864E1,-6.760722646E0,2.231572350E1
1.174433533E1,1.046080797E1,-1.335607434E1,-5.799989446E0,1.792911327E1
1.175430533E1,2.624581510E0,-1.244875721E1,-4.073252869E0,1.335856927E1
1.176427533E1,-3.116299602E0,-1.198864449E1,-7.991401327E-1,1.241279762E1
1.177424533E1,-6.762485581E0,-1.030247706E1,2.197642089E0,1.251806197E1
1.178421433E1,-8.240537737E0,-6.528716238E0,2.622658653E0,1.083554043E1
1.179418433E1,-8.221437807E0,-2.107481532E0,1.078725919E0,8.555534328E0
1.180415433E1,-7.072200315E0,3.504792411E0,-1.401273537E-1,7.894252518E0
1.181412433E1,-5.149469748E0,7.258608965E0,-4.281049173E-1,8.909978485E0
1.182409333E1,-2.509751258E0,8.432519369E0,-3.121768503E-1,8.803617930E0
1.183406333E1,7.898018369E-1,8.489554279E0,3.456873894E-1,8.533218536E0
1.184403333E1,3.378587862E0,9.303156331E0,9.140415747E-1,9.939770906E0
1.185400333E1,4.802737168E0,1.116200256E1,5.936784033E-1,1.216589658E1
1.186397233E1,5.381648648E0,1.323673501E1,-5.494358846E-1,1.429948165E1
1.187394233E1,5.443448455E0,1.711676605E1,-1.185205981E0,1.800054233E1
1.188391233E1,4.894296964E0,2.037988310E1,-1.968196177E0,2.105154564E1
1.189388233E1,3.911303414E0,2.242054031E1,-1.770883055E0,2.282794228E1
1.190385133E1,2.347934535E0,2.134890472E1,-8.345834689E-1,2.149383770E1
1.191382133E1,5.886087942E-1,1.647192224E1,3.466464058E-1,1.648608038E1
1.192379133E1,-1.412524457E0,1.470180985E1,7.220516840E-1,1.478714972E1
1.193376133E1,-3.190805701E0,1.398357179E1,1.584534631E0,1.443025541E1
1.194373033E1,-4.491725814E0,1.342282966E1,2.628425177E0,1.439640843E1
1.195370033E1,-5.166767566E0,1.157115095E1,4.484990991E0,1.344255056E1
1.196367033E1,-5.416503900E0,9.781972541E0,6.164936979E0,1.276839650E1
1.197364033E1,-5.157400911E0,8.763517383E0,6.898581280E0,1.228773554E1
1.198360933E1,-4.133696999E0,7.835619223E0,6.266386170E0,1.085135822E1
1.199357933E1,-2.407042284E0,6.661410027E0,4.634843434E0,8.464632878E0
1.200354933E1,-6.374163803E-1,5.631736985E0,2.504342583E0,6.196328984E0
1.201351933E1,8.876380339E-1,4.918787150E0,-3.133451971E-1,5.008048873E0
1.202348833E1,2.028780641E0,4.318162912E0,-3.443979614E0,5.884171769E0
1.203345833E1,2.633066112E0,4.427511692E0,-5.525579031E0,7.554331245E0
1.204342833E1,2.412953819E0,5.485969992E0,-5.259755251E0,7.973909843E0
1.205339833E1,1.641926514E0,7.006912059E0,-4.158570178E0,8.311825624E0
1.206336733E1,1.019879759E0,8.265877231E0,-3.180615174E0,8.915222600E0
1.207333733E1,6.860576132E-1,9.122322416E0,-1.381024629E0,9.251738773E0
1.208330733E1,3.003170159E-2,9.433470302E0,7.633616048E-1,9.464353374E0
1.209327733E1,-1.088902266E0,8.813765430E0,2.595637500E0,9.252324208E0
1.210324633E1,-1.811206331E0,6.814375527E0,3.670749840E0,7.949250693E0
1.211321633E1,-1.803642958E0,3.868134298E0,4.082549942E0,5.906166684E0
1.212318633E1,-1.061347555E0,2.864843309E-2,5.438967149E0,5.541628191E0
1.213315633E1,-4.184535031E-1,-1.110009224E1,4.184303189E0,1.186994289E1
1.214312533E1,-1.479983345E0,-3.887828188E1,2.188511077E0,3.896794495E1
1.215309533E1,1.500997946E0,-6.891506382E1,1.005492232E1,6.966089635E1
1.216306533E1,7.747027473E0,-5.696025367E1,1.845699816E1,6.037505871E1
1.217303533E1,9.870014652E0,-3.279016329E1,4.668201799E0,3.456015199E1
1.218300433E1,1.276633469E1,-2.030031185E1,-8.367866120E0,2.539888080E1
1.219297433E1,1.682593607E1,-1.469324836E1,-1.127952224E1,2.502461376E1
1.220294433E1,1.775259930E1,-1.414770314E1,-9.128963683E0,2.446733054E1
1.221291433E1,1.287434797E1,-1.428934726E1,-5.691976755E0,2.005823721E1
1.222288333E1,5.350515148E0,-1.336617365E1,-2.451574970E0,1.460454827E1
1.223285333E1,-5.981797361E-1,-1.256641722E1,-1.530395407E-2,1.258065558E1
1.224282333E1,-5.146052635E0,-1.203304356E1,2.366944125E0,1.329956464E1
1.225279233E1,-7.987834525E0,-1.028833265E1,4.341574579E0,1.372969624E1
1.226276233E1,-9.165559652E0,-7.028210542E0,4.086199189E0,1.225154076E1
1.227273233E1,-9.233463367E0,-2.708104016E0,2.702094247E0,9.994597863E0
1.228270233E1,-8.539208250E0,3.202864999E0,1.309421965E0,9.213631619E0
1.229267133E1,-7.156528859E0,7.122446609E0,3.143463135E-1,1.010168128E1
1.230264133E1,-4.726739152E0,9.197291322E0,-1.787961602E-1,1.034234977E1
1.231261133E1,-2.038801014E0,1.060668898E1,-2.901400832E-1,1.080475553E1
1.232258133E1,3.517176229E-1,1.140398490E1,6.509002789E-1,1.142795905E1
1.233255133E1,2.574986012E0,1.355638124E1,1.316451634E0,1.386142381E1
1.234252033E1,4.002084946E0,1.644251776E1,1.447989281E0,1.698439717E1
1.235249033E1,4.584738058E0,1.903690045E1,1.159431528E0,1.961549600E1
1.236246033E1,4.458351369E0,2.083082738E1,1.030275963E0,2.132748778E1
1.237242933E1,3.356847914E0,2.075035800E1,9.894050948E-1,2.104340057E1
1.238239933E1,1.917168842E0,1.931881928E1,1.329678036E0,1.945919727E1
1.239236933E1,-3.649361309E-1,1.732500060E1,1.391238545E0,1.738460149E1
1.240233933E1,-2.776177593E0,1.524315443E1,9.671259606E-1,1.552405397E1
1.241230833E1,-4.440076189E0,1.353375251E1,9.160587180E-1,1.427290780E1
1.242227833E1,-5.245205040E0,1.216288917E1,1.494458274E0,1.332972072E1
1.243224833E1,-5.344656823E0,1.115523148E1,2.253079541E0,1.257302324E1
1.244221833E1,-4.463276187E0,1.004520776E1,2.724040017E0,1.132463806E1
1.245218733E1,-2.699206308E0,8.766389535E0,2.602445998E0,9.534570014E0
1.246215733E1,-5.336955820E-1,7.287712896E0,1.830062724E0,7.532909120E0
1.247212733E1,1.538177613E0,5.957186576E0,3.682401001E-1,6.163575508E0
1.248209733E1,3.215556088E0,5.050717292E0,-1.230739492E0,6.112631660E0
1.249206633E1,4.312997189E0,4.439285061E0,-2.819795190E0,6.801502887E0
1.250203633E1,4.357447430E0,4.321364263E0,-3.576728951E0,7.103135025E0
1.251200633E1,3.073037808E0,4.980058953E0,-3.276323569E0,6.706626922E0
1.252197633E1,1.312478305E0,5.812980790E0,-2.143764675E0,6.333172344E0
1.253194533E1,3.386894417E-1,6.820273029E0,-3.962424159E-1,6.840163944E0
1.254191533E1,-3.484346306E-1,8.137101662E0,1.207711987E0,8.233613932E0
1.255188533E1,-1.498575006E0,8.917055326E0,2.957126405E0,9.513369503E0
1.256185533E1,-2.092284619E0,8.563317490E0,4.133518952E0,9.736223101E0
1.257182433E1,-1.794712359E0,6.487424371E0,3.777903575E0,7.718822633E0
1.258179433E1,-9.300089320E-1,3.931253822E0,2.980500650E0,5.020264669E0
1.259176433E1,5.977614409E-1,5.811366373E-1,4.516920297E0,4.593213200E0
1.260173433E1,3.214443070E0,-7.452041291E0,1.298638530E0,8.219003935E0
1.261170433E1,4.403450984E0,-3.003996049E1,-1.866985552E0,3.041833726E1
1.262167333E1,4.354108670E0,-6.457381026E1,6.779395144E0,6.507453751E1
1.263164333E1,8.198693892E0,-6.493422328E1,1.401818497E1,6.693415753E1
1.264161333E1,8.480735509E0,-3.744954281E1,2.495635495E0,3.847881661E1
1.265158333E1,8.922164623E0,-1.959361269E1,-3.629168535E0,2.183312950E1
1.266155233E1,1.157691163E1,-1.155436476E1,-5.915372552E0,1.739309806E1
1.267152233E1,1.324677935E1,-9.351867145E0,-7.720361831E0,1.795935882E1
1.268149233E1,1.098698721E1,-1.095583909E1,-4.501260869E0,1.615566921E1
1.269146233E1,4.985474644E0,-1.210668106E1,-1.380988376E0,1.316562997E1
1.270143133E1,-1.110163766E0,-1.241238285E1,2.639561784E-1,1.246472561E1
1.271140133E1,-5.913713112E0,-1.235063508E1,3.154059459E0,1.405198494E1
1.272137133E1,-9.315895659E0,-1.069255300E1,5.589089148E0,1.524317943E1
1.273134133E1,-1.075420721E1,-6.926553190E0,5.037428910E0,1.374793810E1
1.274131033E1,-1.053263516E1,-2.061352848E0,3.298792080E0,1.122798327E1
1.275128025E1,-8.663295522E0,2.999950828E0,1.798404729E0,9.342732675E0
1.276125025E1,-5.850646214E0,7.263213063E0,2.578271270E-2,9.326574391E0
1.277122025E1,-2.803714178E0,8.401867679E0,-1.255834572E0,8.945910472E0
1.278118925E1,5.949578471E-3,8.702400531E0,-1.053426259E0,8.765929345E0
1.279115925E1,2.049148539E0,9.773314569E0,-2.156476521E-1,9.988152547E0
1.280112925E1,3.133477552E0,1.176274549E1,-1.047411740E-1,1.217340683E1
1.281109925E1,3.494603053E0,1.422275332E1,-6.903222799E-3,1.464578472E1
1.282106825E1,3.311864407E0,1.656037307E1,2.946085985E-1,1.689086133E1
1.283103825E1,2.568180730E0,1.982997819E1,1.011161415E0,2.002113970E1
1.284100825E1,1.483610812E0,2.220584926E1,2.073192290E0,2.235171064E1
1.285097825E1,-4.480719527E-2,2.300223068E1,2.789034158E0,2.317074309E1
1.286094725E1,-1.964795729E0,2.110027644E1,2.895686202E0,2.138848023E1
1.287091725E1,-3.030145265E0,1.739342472E1,3.139747814E0,1.793240140E1
1.288088725E1,-3.036231632E0,1.448059214E1,3.749613576E0,1.526321897E1
1.289085725E1,-2.387380729E0,1.235080699E1,3.790972102E0,1.313824530E1
1.290082625E1,-1.266891072E0,1.066090553E1,3.453060340E0,1.127756824E1
1.291079625E1,2.192852050E-2,9.082177772E0,2.649400309E0,9.460748170E0
1.292076625E1,1.306588989E0,7.362701683E0,1.750151313E0,7.679816435E0
1.293073625E1,2.421229968E0,5.847171214E0,4.385997192E-1,6.343826564E0
1.294070525E1,3.168504421E0,4.540983344E0,-1.326947240E0,5.693921229E0
1.295067525E1,3.248188521E0,3.460778664E0,-2.948232790E0,5.587467603E0
1.296064525E1,2.311510767E0,3.072534655E0,-3.781940492E0,5.393201750E0
1.297061525E1,5.114462321E-1,3.596027686E0,-3.476288989E0,5.027681125E0
1.298058425E1,-1.048268430E0,4.231680254E0,-2.359912848E0,4.957335285E0
1.299055425E1,-1.973722966E0,5.362855112E0,-5.271229097E-1,5.738785225E0
1.300052425E1,-2.479522907E0,6.965069384E0,1.642806813E0,7.573575087E0
1.301049425E1,-2.973735421E0,8.231528932E0,3.082457964E0,9.279155027E0
1.302046325E1,-3.089284881E0,9.305328571E0,3.995356847E0,1.058752555E1
1.303043325E1,-2.745126246E0,1.023752502E1,4.035424308E0,1.134139700E1
1.304040325E1,-2.539689587E0,1.011832836E1,3.688643489E0,1.106511106E1
1.305037325E1,-2.311043282E0,8.287794934E0,2.650128872E0,9.002868929E0
1.306034225E1,-1.164305767E0,5.365056004E0,2.511590792E0,6.037178327E0
1.307031225E1,1.000562240E0,1.346868119E0,3.308746380E0,3.709849206E0
1.308028225E1,4.234193972E0,-7.326034378E0,-1.109354877E0,8.534040458E0
1.309025225E1,5.596277715E0,-2.878537020E1,5.029136827E-1,2.932863420E1
1.310022125E1,7.882418582E0,-6.333787727E1,7.022263924E0,6.421161429E1
1.311019125E1,1.341250348E1,-6.552415588E1,1.238201826E1,6.801929601E1
1.312016125E1,1.129479166E1,-3.824627506E1,2.600526357E0,3.996389135E1
1.313013125E1,9.470067440E0,-2.175010792E1,-1.223464825E0,2.375386785E1
1.314010025E1,1.049127781E1,-1.422190898E1,-4.359703871E0,1.820265428E1
1.315007025E1,1.086895064E1,-1.158376690E1,-7.731964461E0,1.766638101E1
1.316004025E1,7.669137298E0,-1.408841003E1,-6.128419363E0,1.717138573E1
1.317001025E1,2.278526331E0,-1.584902070E1,-2.991822029E0,1.628908034E1
1.317997925E1,-2.080742215E0,-1.572793422E1,-6.996216917E-1,1.588039274E1
1.318994925E1,-5.099051546E0,-1.419050943E1,9.654302680E-1,1.510969690E1
1.319991925E1,-6.388443874E0,-1.061073174E1,1.652378705E0,1.249520703E1
1.320988925E1,-6.445721444E0,-6.264249598E0,1.728128214E0,9.152845190E0
1.321985825E1,-5.840818214E0,-2.251623584E0,1.966433827E0,6.561389195E0
1.322982825E1,-4.782888210E0,1.172143375E0,2.295471854E0,5.433151089E0
1.323979825E1,-3.609987036E0,5.058556069E0,2.596688830E0,6.735264567E0
1.324976825E1,-2.553426743E0,8.580210680E0,3.074000552E0,9.465172098E0
1.325973725E1,-1.812146271E0,1.115554255E1,4.067275261E0,1.201135845E1
1.326970725E1,-1.438306292E0,1.395215704E1,4.786687438E0,1.482038420E1
1.327967725E1,-1.356528304E0,1.673590766E1,4.426459193E0,1.736445551E1
1.328964725E1,-1.288489810E0,1.913126399E1,3.312115545E0,1.945856051E1
1.329961625E1,-7.468788886E-1,2.195500839E1,1.526241399E0,2.202066380E1
1.330958625E1,3.930255702E-1,2.333867011E1,-2.838285255E-1,2.334370472E1
1.331955625E1,1.798778951E0,2.334291285E1,-1.212047040E0,2.344346911E1
1.332952625E1,3.205811703E0,2.058832932E1,-8.978177440E-1,2.085575723E1
1.333949525E1,3.537367834E0,1.692773375E1,9.780286789E-2,1.729366088E1
1.334946525E1,3.001048350E0,1.430903366E1,1.218933964E0,1.467107820E1
1.335943525E1,1.944056240E0,1.201382377E1,1.531530790E0,1.226608751E1
1.336940525E1,2.893434366E-2,1.059339358E1,2.659556923E0,1.092218237E1
1.337937425E1,-4.976305625E0,1.030507439E1,4.626957879E0,1.234369941E1
1.338934425E1,4.232293627E0,6.479079809E0,1.051021738E0,7.809957184E0
1.339931425E1,4.759851935E0,5.423714687E0,-2.353657059E-1,7.219990890E0
1.340928425E1,2.065944374E0,5.210228165E0,-9.991042368E-1,5.693225182E0
1.341925325E1,-3.553639466E-1,5.307588399E0,-1.220952423E0,5.457792866E0
1.342922325E1,-2.151464288E0,5.197240330E0,-1.328206730E0,5.779640019E0
1.343919325E1,-3.140290436E0,5.359552020E0,-1.796104435E0,6.466236387E0
1.344916325E1,-3.373003187E0,5.880281657E0,-1.849683641E0,7.026819511E0
1.345913325E1,-3.085770997E0,6.391551669E0,-7.557456064E-1,7.137581299E0
1.346910225E1,-2.359039274E0,7.157415297E0,2.571628467E-1,7.540543267E0
1.347907225E1,-1.488954582E0,8.082639526E0,9.787701058E-1,8.276716642E0
1.348904225E1,-1.092569567E0,8.969311892E0,2.021277201E0,9.258932206E0
1.349901225E1,-1.231740828E0,9.733928894E0,3.263721650E0,1.034013715E1
1.350898125E1,-1.296435445E0,9.637898317E0,4.040645871E0,1.053074774E1
1.351895125E1,-8.557862768E-1,7.795539483E0,3.130348415E0,8.444044480E0
1.352892125E1,9.752388261E-2,5.163960317E0,2.315350049E0,5.660109797E0
1.353889125E1,2.093967593E0,1.586180037E0,4.347701876E0,5.079682962E0
1.354886025E1,4.291425349E0,-6.795711215E0,4.865585089E-1,8.052003578E0
1.355883025E1,5.287615480E0,-3.031896389E1,-2.850270878E0,3.090829165E1
1.356880025E1,5.191984268E0,-6.545479387E1,4.362433936E0,6.580514851E1
1.357877025E1,6.805596517E0,-6.537533255E1,1.207055462E1,6.682775276E1
1.358873925E1,5.334472142E0,-3.862724922E1,1.278878449E0,3.901482418E1
1.359870925E1,5.504231431E0,-2.028344380E1,-2.887674932E0,2.121446022E1
1.360867925E1,7.909768349E0,-1.306078527E1,-2.721482445E0,1.550983604E1
1.361864925E1,1.028950092E1,-1.271584866E1,-4.464887679E0,1.695587976E1
1.362861825E1,1.046160202E1,-1.556574883E1,-1.439783884E0,1.880985462E1
1.363858825E1,6.332467893E0,-1.489909374E1,9.029153466E-1,1.621414197E1
1.364855825E1,1.350108061E0,-1.324503571E1,1.099801623E0,1.335901667E1
1.365852825E1,-1.950642398E0,-1.158511176E1,2.498158568E0,1.201085411E1
1.366849725E1,-4.032394865E0,-8.749596332E0,3.607853680E0,1.028748038E1
1.367846725E1,-4.470449551E0,-4.961388209E0,2.604170927E0,7.168123769E0
1.368843725E1,-3.851404830E0,-9.556092846E-1,1.301840465E0,4.176277872E0
1.369840725E1,-2.845760628E0,2.523788084E0,4.165871450E-1,3.826408851E0
1.370837625E1,-1.818655976E0,6.353633645E0,4.160178454E-1,6.621875935E0
1.371834625E1,-8.547255188E-1,8.797718332E0,1.362814060E0,8.943582376E0
1.372831625E1,-2.667761078E-2,1.021133651E1,1.852951065E0,1.037812761E1
1.373828625E1,2.568220089E-1,1.233689529E1,2.211247391E0,1.253613011E1
1.374825483E1,1.285700578E-1,1.448055355E1,2.750006332E0,1.473992864E1
1.375822483E1,-1.054478100E-1,1.716255793E1,3.472139804E0,1.751057592E1
1.376819483E1,-8.539072010E-1,1.991489614E1,3.769992292E0,2.028657407E1
1.377816483E1,-2.680256066E0,2.169416176E1,2.321530555E0,2.198203655E1
1.378813383E1,-4.166855390E0,2.153123260E1,1.101310350E0,2.195835936E1
1.379810383E1,-4.952508627E0,1.889391849E1,1.421634272E-1,1.953273427E1
1.380807383E1,-4.152808916E0,1.580107821E1,5.288339511E-1,1.634623993E1
1.381804383E1,-2.211593838E0,1.345984955E1,1.907700884E0,1.377309043E1
1.382801283E1,-2.582870105E-1,1.175396649E1,2.188963652E0,1.195884619E1
1.383798283E1,1.435355495E0,1.009850162E1,1.292472056E0,1.028155943E1
1.384795283E1,3.009787599E0,8.416493905E0,2.971472403E-1,8.943404694E0
1.385792283E1,3.815440360E0,6.822450532E0,-1.355179936E0,7.933468917E0
1.386789183E1,3.857322212E0,5.422207859E0,-3.055081301E0,7.322075831E0
1.387786183E1,3.190092048E0,4.297554401E0,-3.473993372E0,6.380775114E0
1.388783183E1,1.678706670E0,4.281187459E0,-3.283941321E0,5.650742672E0
1.389780183E1,-3.215325415E-2,5.356718459E0,-3.019279969E0,6.149107091E0
1.390777083E1,-9.267386574E-1,6.193390115E0,-2.376373930E0,6.698065296E0
1.391774083E1,-1.305861888E0,6.575008060E0,-1.679971715E0,6.910738833E0
1.392771083E1,-1.641385354E0,7.077633548E0,-7.035463428E-1,7.299453402E0
1.393768083E1,-2.041519092E0,7.876852033E0,9.060319857E-1,8.187398373E0
1.394764983E1,-2.188896701E0,9.009321465E0,2.663642957E0,9.646457165E0
1.395761983E1,-2.056172215E0,1.040269249E1,4.023227016E0,1.134152595E1
1.396758983E1,-1.912243001E0,1.182710229E1,5.016656091E0,1.298860501E1
1.397755983E1,-2.027827837E0,1.260231445E1,4.992595968E0,1.370607273E1
1.398752883E1,-1.930907899E0,1.252060662E1,4.470467677E0,1.343425014E1
1.399749883E1,-9.244062761E-1,1.136137624E1,3.614318361E0,1.195820615E1
1.400746883E1,1.299090520E-2,9.549705933E0,2.405845066E0,9.848103505E0
1.401743883E1,6.297888337E-1,6.760023903E0,2.453081213E0,7.218875576E0
1.402740783E1,1.615651466E0,1.832553053E0,2.396688327E0,3.422381523E0
1.403737783E1,4.615495290E0,-1.068316939E1,-3.730866233E0,1.222097655E1
1.404734783E1,6.268626823E0,-4.580966020E1,1.349974160E0,4.625627611E1
1.405731783E1,8.475202873E0,-6.981938952E1,8.432204204E0,7.083557217E1
1.406728683E1,6.217281253E0,-5.767939570E1,7.253191520E0,5.846516965E1
1.407725683E1,4.264365312E0,-2.749623691E1,-2.305579351E0,2.792030716E1
1.408722683E1,4.457385702E0,-1.348882718E1,-1.371501853E0,1.427227254E1
1.409719683E1,5.886838725E0,-9.588575299E0,-7.023681289E-1,1.127337427E1
1.410716583E1,8.139413066E0,-1.193574823E1,-1.165205069E0,1.449378604E1
1.411713583E1,8.659614115E0,-1.560673313E1,1.236755692E0,1.789102010E1
1.412710583E1,4.445477847E0,-1.522604197E1,2.146504095E0,1.600631460E1
1.413707583E1,-5.188578703E-1,-1.421624654E1,1.394961467E0,1.429394265E1
1.414704483E1,-3.769525684E0,-1.333367132E1,1.978814721E0,1.399685044E1
1.415701483E1,-5.726479420E0,-1.085265211E1,2.058472509E0,1.244226400E1
1.416698483E1,-6.052993205E0,-6.753441108E0,7.822159517E-1,9.102722413E0
1.417695483E1,-5.090963677E0,-2.450617197E0,-9.114663148E-1,5.723129096E0
1.418692483E1,-3.454868299E0,1.043085385E0,-1.958569322E0,4.106109578E0
1.419689383E1,-1.635611229E0,3.460010925E0,-1.791632484E0,4.225736226E0
1.420686383E1,-6.425541826E-3,6.072027646E0,-9.134624811E-1,6.140356237E0
1.421683383E1,1.318200682E0,8.804964201E0,8.721801154E-1,8.945711027E0
1.422680383E1,2.430241404E0,1.140895620E1,1.701069639E0,1.178829898E1
1.423677283E1,3.172331716E0,1.429775205E1,1.422251008E0,1.471435354E1
1.424674283E1,3.403230953E0,1.693145024E1,1.150087677E0,1.730834163E1
1.425671283E1,3.758044969E0,2.060888111E1,1.133159988E0,2.097934542E1
1.426668283E1,4.116769895E0,2.386018094E1,1.037068015E0,2.423492395E1
1.427665183E1,3.542175122E0,2.484452929E1,9.489903096E-1,2.511370587E1
1.428662183E1,2.049860145E0,2.006976783E1,1.653342326E0,2.024181435E1
1.429659183E1,7.660872844E-1,1.586213951E1,2.424345657E0,1.606461364E1
1.430656183E1,-8.623716304E-1,1.657120329E1,2.763694664E0,1.682220174E1
1.431653083E1,-2.321837242E0,1.446262014E1,3.609761041E0,1.508604270E1
1.432650083E1,-3.234558662E0,1.162829111E1,3.925805386E0,1.269218152E1
1.433647083E1,-3.618226933E0,9.894010456E0,3.710064179E0,1.116904585E1
1.434644083E1,-3.327246385E0,8.304399857E0,3.067680881E0,9.457499219E0
1.435640983E1,-2.469024816E0,6.635173570E0,1.783440535E0,7.300840499E0
1.436637983E1,-1.191875096E0,4.785109860E0,-3.994875475E-1,4.947467323E0
1.437634983E1,3.214594513E-1,2.915666138E0,-3.334851859E0,4.441360391E0
1.438631983E1,1.431234085E0,2.064351885E0,-5.756798987E0,6.280980361E0
1.439628883E1,1.271949791E0,2.838486400E0,-5.984867295E0,6.744886793E0
1.440625883E1,4.034984816E-1,4.282117167E0,-4.103843747E0,5.944818917E0
1.441622883E1,-9.903926164E-2,5.737989079E0,-1.847769263E0,6.028978247E0
1.442619883E1,-3.157057911E-1,7.407983691E0,9.187800121E-1,7.471415476E0
1.443616783E1,-1.761629397E-1,9.377373869E0,3.431632633E0,9.987105516E0
1.444613783E1,-4.850711234E-2,1.130710940E1,4.975106946E0,1.235333012E1
1.445610783E1,-1.134269863E0,1.251718951E1,5.493754975E0,1.371670314E1
1.446607783E1,-1.579934042E0,1.294571207E1,5.744096496E0,1.425069462E1
1.447604683E1,-1.383020284E0,1.217864859E1,4.808310442E0,1.316632355E1
1.448601683E1,-1.207528458E0,9.224013682E0,3.086218894E0,9.801290754E0
1.449598683E1,-1.030725979E0,6.384944315E0,3.293778677E0,7.258022315E0
1.450595683E1,-3.978930849E-1,3.129171370E0,4.776149002E0,5.723777744E0
1.451592583E1,2.358660083E-1,-7.071250727E0,2.554273712E0,7.522136254E0
1.452589583E1,-6.144735141E-1,-3.801448207E1,2.170113983E0,3.808133164E1
1.453586583E1,2.632009521E0,-6.908693922E1,1.350296926E1,7.044333058E1
1.454583583E1,9.695423225E0,-6.669942284E1,1.384459049E1,6.880760804E1
1.455580483E1,1.292411245E1,-4.446208749E1,-5.659461558E0,4.664696573E1
1.456577483E1,1.227681048E1,-1.912548460E1,-1.017164327E1,2.489912777E1
1.457574483E1,1.267406680E1,-8.959942898E0,-1.039724522E1,1.868194996E1
1.458571483E1,1.197015793E1,-7.228874120E0,-8.658203182E0,1.644706005E1
1.459568383E1,8.063609177E0,-8.745100408E0,-3.706279861E0,1.245933724E1
1.460565383E1,2.389289552E0,-1.017792318E1,-3.102129533E-1,1.045920919E1
1.461562383E1,-2.031920888E0,-1.101326576E1,2.049312261E0,1.138509579E1
1.462559383E1,-5.209061061E0,-1.044989589E1,3.646466353E0,1.223238972E1
1.463556283E1,-7.439179755E0,-8.048153817E0,4.194817067E0,1.173501877E1
1.464553283E1,-8.353208905E0,-4.326285864E0,3.975017892E0,1.021242457E1
1.465550283E1,-8.066903499E0,4.273823476E-1,3.828591918E0,8.939558367E0
1.466547283E1,-6.634123410E0,5.563649667E0,3.430742687E0,9.313204949E0
1.467544183E1,-4.110469227E0,8.433799324E0,2.612354690E0,9.739061830E0
1.468541183E1,-1.527040129E0,1.027011272E1,1.503473511E0,1.049130590E1
1.469538183E1,5.551899102E-1,1.209805758E1,1.310192628E0,1.218145467E1
1.470535183E1,2.289014189E0,1.393507031E1,9.615769529E-1,1.415451874E1
1.471532083E1,3.488297708E0,1.595983479E1,4.685538355E-1,1.634331943E1
1.472529083E1,4.343100702E0,1.918226340E1,-3.685850859E-1,1.967123809E1
1.473526083E1,4.674922881E0,2.111998389E1,-1.346150665E0,2.167304190E1
1.474523083E1,4.418616615E0,2.186772817E1,-1.295181656E0,2.234724152E1
1.475520037E1,3.617718225E0,2.058279083E1,-4.497923863E-1,2.090314514E1
1.476517038E1,2.091715685E0,1.769817458E1,6.685074878E-1,1.783388797E1
1.477514038E1,3.621470091E-1,1.498430404E1,1.540340205E0,1.506761979E1
1.478511037E1,-1.007132318E0,1.296859690E1,2.345453854E0,1.321741180E1
1.479508037E1,-1.897916738E0,1.134206172E1,2.789403702E0,1.183322547E1
1.480504938E1,-2.129177626E0,1.001439644E1,3.197306635E0,1.072587074E1
1.481501938E1,-1.930767273E0,8.699637721E0,3.203259101E0,9.469552662E0
1.482498937E1,-1.445119468E0,7.362215779E0,2.525318885E0,7.916301342E0
1.483495937E1,-8.254306760E-1,6.340351694E0,1.329267415E0,6.530570210E0
1.484492838E1,-3.061295137E-1,5.695694414E0,-3.579536784E-1,5.715136129E0
1.485489838E1,-1.869810927E-1,5.469544578E0,-2.296030848E0,5.934866256E0
1.486486837E1,-6.133223435E-1,5.482919499E0,-3.814067434E0,6.707136567E0
1.487483837E1,-1.442269243E0,5.620275273E0,-3.700813884E0,6.882125988E0
1.488480738E1,-2.314619147E0,6.083918543E0,-1.978242863E0,6.803305922E0
1.489477738E1,-2.644754989E0,6.823577875E0,-5.361545920E-2,7.318389070E0
1.490474737E1,-2.501223386E0,7.511886374E0,1.436668049E0,8.046649638E0
1.491471737E1,-2.583638429E0,8.221777530E0,3.617216241E0,9.346500234E0
1.492468638E1,-3.218154883E0,8.922390325E0,5.510620683E0,1.096961760E1
1.493465638E1,-3.235325816E0,8.023063999E0,6.003249772E0,1.052976243E1
1.494462637E1,-2.125176084E0,4.858182514E0,4.588023609E0,7.012009082E0
1.495459637E1,-2.792896244E-1,2.328865303E0,4.820131173E0,5.360529901E0
1.496456538E1,2.365425603E0,-1.932601837E0,4.085254279E0,5.100930373E0
1.497453538E1,5.143674572E0,-1.593213302E1,-5.459158169E0,1.760944799E1
1.498450537E1,5.925620967E0,-4.343939544E1,5.126476157E-1,4.384469030E1
1.499447537E1,8.351306806E0,-6.874462918E1,7.651701486E0,6.967149275E1
1.500444438E1,7.192210323E0,-5.409077235E1,7.358647224E0,5.506077761E1
1.501441438E1,4.394085499E0,-2.595748130E1,-4.450673244E-1,2.633053185E1
1.502438437E1,6.726956729E0,-1.489684022E1,5.776569593E-1,1.635547257E1
1.503435437E1,9.400539953E0,-1.127323414E1,-3.055585331E-1,1.468159819E1
1.504432338E1,1.078405959E1,-1.270233926E1,-3.838045696E0,1.709900461E1
1.505429338E1,8.753176582E0,-1.596920905E1,-2.541696351E0,1.838733146E1
1.506426337E1,3.024078486E0,-1.488458797E1,-5.233187842E-1,1.519769299E1
1.507423337E1,-2.473104419E0,-1.281430408E1,5.199379241E-1,1.306112438E1
1.508420238E1,-6.121737750E0,-1.097552900E1,2.374877043E0,1.278975961E1
1.509417238E1,-7.508540012E0,-7.329724556E0,2.802866331E0,1.086089752E1
1.510414237E1,-7.135499348E0,-3.079685799E0,1.259263380E0,7.873090869E0
1.511411237E1,-5.827630404E0,6.914426064E-1,1.514206660E-1,5.870459711E0
1.512408138E1,-3.944193710E0,4.970059630E0,-3.891532516E-1,6.356854332E0
1.513405138E1,-1.918217686E0,7.559876812E0,2.623163268E-2,7.799486175E0
1.514402137E1,-1.535739031E-1,9.004296368E0,1.776290560E0,9.179114673E0
1.515399138E1,1.407998419E0,1.102769085E1,2.491989756E0,1.139308728E1
1.516396038E1,2.479022093E0,1.356137242E1,2.639538395E0,1.403650723E1
1.517393038E1,2.718997963E0,1.607197269E1,2.591925688E0,1.650513056E1
1.518390037E1,2.469432659E0,1.905014440E1,2.185047040E0,1.933340450E1
1.519387038E1,2.081696773E0,2.211578577E1,1.105329434E0,2.224102504E1
1.520383938E1,1.369355341E0,2.385046988E1,1.145107019E-1,2.389002219E1
1.521380937E1,4.830779538E-1,2.345197979E1,-5.885104879E-1,2.346433603E1
1.522377937E1,-9.934366769E-1,2.013363813E1,-8.758018076E-1,2.017714870E1
1.523374938E1,-2.714629801E0,1.619036478E1,-6.493275241E-1,1.642920426E1
1.524371938E1,-3.465755522E0,1.344508065E1,2.724274052E-1,1.388725573E1
1.525368837E1,-3.592086663E0,1.094022936E1,1.116924682E0,1.156889043E1
1.526365837E1,-3.050318451E0,7.955805232E0,1.981463510E0,8.747884155E0
1.527362838E1,-2.461676328E0,7.961240804E0,2.116267558E0,8.597662116E0
1.528359838E1,-1.465944911E0,7.591092757E0,2.265199649E0,8.056352350E0
1.529356737E1,-6.020472307E-2,6.432685077E0,1.540666626E0,6.614885907E0
1.530353737E1,1.388608175E0,4.829623543E0,1.055844156E-1,5.026394762E0
1.531350738E1,2.545459034E0,3.042175326E0,-1.279783452E0,4.167977699E0
1.532347738E1,3.131460263E0,2.188727424E0,-2.473921859E0,4.551577801E0
1.533344637E1,2.794123574E0,2.726082450E0,-2.770783828E0,4.787054950E0
1.534341637E1,1.832490488E0,4.132862309E0,-1.706685305E0,4.832323146E0
1.535338638E1,1.146496025E0,5.959747657E0,3.858109832E-2,6.069146049E0
1.536335638E1,8.029617997E-1,7.933204574E0,1.522582358E0,8.117803859E0
1.537332537E1,7.067418462E-1,9.258021088E0,2.063626245E0,9.511518900E0
1.538329537E1,3.254005478E-1,1.010719292E1,2.423552774E0,1.039879043E1
1.539326538E1,1.458856916E-1,1.014857016E1,3.619242886E0,1.077560569E1
1.540323538E1,9.106512129E-2,9.417800349E0,5.505934725E0,1.090956339E1
1.541320437E1,-6.403123601E-1,6.893961394E0,5.290506343E0,8.713561901E0
1.542317437E1,-6.061998501E-1,3.218592839E0,5.548512395E0,6.443043374E0
1.543314438E1,6.796925535E-1,-7.696847838E-1,7.042754906E0,7.117218088E0
1.544311438E1,1.483711968E0,-1.414539349E1,4.132267063E0,1.481111708E1
1.545308337E1,3.814460367E0,-5.219164816E1,2.589150599E0,5.239486565E1
1.546305337E1,1.059534538E1,-6.960675201E1,1.356899953E1,7.170410740E1
1.547302338E1,1.289434077E1,-5.090882050E1,7.857372619E0,5.310094475E1
1.548299338E1,1.201129309E1,-2.479158859E1,-6.204678165E0,2.823813127E1
1.549296237E1,1.044047018E1,-1.262753700E1,-7.465748919E0,1.800543016E1
1.550293237E1,6.808106142E0,-1.006370367E1,-6.957893681E0,1.400145440E1
1.551290238E1,3.648900841E0,-1.445384581E1,-1.928229289E0,1.503150705E1
1.552287238E1,1.633272050E0,-1.554415389E1,1.804340238E0,1.573352921E1
1.553284237E1,-5.953404743E-1,-1.451725184E1,2.131730520E0,1.468500277E1
1.554281137E1,-2.698104692E0,-1.331585485E1,2.464512520E0,1.380817082E1
1.555278138E1,-4.128515489E0,-1.096460524E1,2.969504961E0,1.208656973E1
1.556275138E1,-4.596343027E0,-7.274768915E0,2.563689483E0,8.978927317E0
1.557272137E1,-4.432246475E0,-3.324863060E0,1.263032495E0,5.682849133E0
1.558269037E1,-3.988548934E0,4.236360365E-1,-1.166168324E-1,4.012678603E0
1.559266038E1,-3.601633119E0,4.124382677E0,-1.104574120E0,5.585908841E0
1.560263038E1,-3.264975585E0,8.183403423E0,-1.269874907E0,8.901726767E0
1.561260037E1,-2.756134507E0,1.046977993E1,-3.652579471E-1,1.083263507E1
1.562256938E1,-2.231749483E0,1.243014786E1,6.451502001E-1,1.264537466E1
1.563253938E1,-1.581107578E0,1.437704380E1,1.182267317E0,1.451196215E1
1.564250938E1,-6.700958839E-1,1.587867778E1,1.111000283E0,1.593159622E1
1.565247937E1,5.385539970E-1,1.859577013E1,9.269065455E-1,1.862664390E1
1.566244838E1,2.146734183E0,2.097869411E1,7.734745105E-1,2.110242491E1
1.567241838E1,3.368386517E0,2.226394953E1,1.403504834E0,2.256101289E1
1.568238838E1,3.706765180E0,2.127787977E1,1.732568589E0,2.166771952E1
1.569235837E1,2.986374763E0,1.806862961E1,1.488072091E0,1.837411681E1
1.570232738E1,1.590409621E0,1.476311206E1,1.615337763E0,1.493613727E1
1.571229738E1,5.220692343E-1,1.228523982E1,1.938775327E0,1.244823375E1
1.572226738E1,-3.320695165E-1,1.070590687E1,1.847768093E0,1.086926672E1
1.573223737E1,-1.050429488E0,9.068015816E0,1.377346730E0,9.231976872E0
1.574220638E1,-1.379888515E0,7.235934632E0,9.205084491E-1,7.423622978E0
1.575217671E1,-1.469103285E0,5.755896177E0,3.333181894E-1,5.949765229E0
1.576214671E1,-1.602565397E0,4.815266874E0,-5.128931987E-1,5.100791150E0
1.577211671E1,-2.097921335E0,4.510294817E0,-1.474484185E0,5.188269160E0
1.578208671E1,-2.981287685E0,4.960878916E0,-2.043151635E0,6.137822455E0
1.579205571E1,-3.776164613E0,5.707583558E0,-2.039138106E0,7.141009275E0
1.580202571E1,-4.106417107E0,6.402649099E0,-1.513205616E0,7.755408963E0
1.581199571E1,-3.953413015E0,7.105121893E0,-4.907848033E-1,8.145741299E0
1.582196571E1,-3.396465432E0,8.043493001E0,1.114059473E0,8.801981913E0
1.583193471E1,-2.628592408E0,9.392300642E0,3.097532086E0,1.023325532E1
1.584190471E1,-1.740204468E0,1.096562265E1,4.325144488E0,1.191553887E1
1.585187471E1,-6.957368016E-1,1.208324776E1,5.217569929E0,1.317998338E1
1.586184471E1,-5.354532916E-2,1.226889919E1,5.640292046E0,1.350339398E1
1.587181371E1,5.643480752E-1,1.081214494E1,4.605783942E0,1.176580692E1
1.588178371E1,1.142773614E0,8.165366517E0,3.193090208E0,8.841660872E0
1.589175371E1,1.494861147E0,4.710139199E0,2.937087997E0,5.748609139E0
1.590172371E1,2.977096108E0,-1.563826132E-1,3.109935200E0,4.308045231E0
1.591169271E1,6.547631981E0,-1.238166392E1,-3.442348825E0,1.442313597E1
1.592166271E1,8.450161003E0,-4.744111289E1,1.886234586E0,4.822470626E1
1.593163271E1,9.304305308E0,-6.980919665E1,1.025677990E1,7.116948481E1
1.594160271E1,7.415999054E0,-5.512630021E1,3.087640352E0,5.570852304E1
1.595157271E1,6.377034202E0,-2.690415720E1,-6.110097113E0,2.831666518E1
1.596154171E1,6.806442025E0,-1.479712297E1,-4.200399989E0,1.682040016E1
1.597151171E1,6.864704266E0,-1.145460191E1,-4.476186839E0,1.408432881E1
1.598148171E1,6.419834651E0,-1.480772865E1,-2.624812183E0,1.635153644E1
1.599145171E1,3.889302681E0,-1.661863941E1,1.665561837E0,1.714875935E1
1.600142071E1,-3.229139462E-1,-1.499070908E1,1.697905126E0,1.509001372E1
1.601139071E1,-3.833095443E0,-1.304605964E1,1.517696278E0,1.368194777E1
1.602136071E1,-5.787762918E0,-9.981912818E0,2.389568172E0,1.178332802E1
1.603133071E1,-5.945368769E0,-6.220969092E0,3.050143912E0,9.129690253E0
1.604129971E1,-4.905760138E0,-2.604296057E0,2.122383746E0,5.945868587E0
1.605126971E1,-2.970983722E0,1.859601688E-1,6.415868338E-1,3.045153383E0
1.606123971E1,-7.405355367E-1,2.118117617E0,-4.771913425E-1,2.294019769E0
1.607120971E1,1.037384350E0,4.368161868E0,-9.840781351E-1,4.596239134E0
1.608117971E1,1.924324518E0,6.267909370E0,-4.481504881E-1,6.571951885E0
1.609114871E1,2.106617606E0,8.382442644E0,-2.239751105E-1,8.646001808E0
1.610111871E1,2.063140926E0,1.099157259E1,-6.303916816E-1,1.120127726E1
1.611108871E1,1.697147911E0,1.384765210E1,-6.244826317E-1,1.396523391E1
1.612105871E1,1.322285547E0,1.631660850E1,-5.134358203E-1,1.637814911E1
1.613102771E1,1.325495084E0,1.900167799E1,6.082520036E-1,1.905756213E1
1.614099771E1,1.334608554E0,2.187077106E1,1.963878740E0,2.199928695E1
1.615096771E1,7.600184593E-1,2.367178131E1,2.857650357E0,2.385575452E1
1.616093771E1,-5.273545325E-1,2.358389766E1,3.621094115E0,2.386609843E1
1.617090671E1,-2.308655864E0,2.007233593E1,3.986288985E0,2.059415114E1
1.618087671E1,-3.303646730E0,1.609047562E1,3.347519267E0,1.676375175E1
1.619084671E1,-3.265625503E0,1.346737960E1,2.647867169E0,1.410836006E1
1.620081671E1,-2.578894291E0,1.116778779E1,2.460329422E0,1.172277275E1
1.621078571E1,-1.584047558E0,9.055227370E0,2.421107469E0,9.506214324E0
1.622075571E1,-4.344516313E-1,7.208091946E0,1.995673267E0,7.491865556E0
1.623072571E1,8.919459701E-1,5.416189320E0,8.815285707E-1,5.559475424E0
1.624069571E1,1.920495177E0,4.004004879E0,-8.460850152E-1,4.520643389E0
1.625066571E1,2.407442818E0,3.058221840E0,-2.442797130E0,4.595188741E0
1.626063471E1,1.955181737E0,2.965637028E0,-3.475694911E0,4.969727731E0
1.627060471E1,6.397201833E-1,3.867160737E0,-3.394189403E0,5.185045398E0
1.628057471E1,-4.603653582E-1,4.655302257E0,-2.617987897E0,5.360749574E0
1.629054471E1,-9.575447130E-1,5.622750984E0,-1.157366218E0,5.819941328E0
1.630051371E1,-1.447965893E0,7.023314084E0,7.515472325E-1,7.210296054E0
1.631048371E1,-2.193343509E0,8.822521051E0,2.561533030E0,9.445056109E0
1.632045371E1,-2.752182374E0,1.061264729E1,4.180487881E0,1.173368098E1
1.633042371E1,-3.194547919E0,1.217101914E1,6.021425257E0,1.394978156E1
1.634039271E1,-2.880188449E0,1.267399195E1,6.548883870E0,1.455381179E1
1.635036271E1,-1.811072430E0,1.045933447E1,4.521623797E0,1.153788293E1
1.636033271E1,-7.383241928E-1,7.876007110E0,3.494839865E0,8.648151034E0
1.637030271E1,1.110251182E0,4.316201756E0,4.851962246E0,6.588155502E0
1.638027271E1,3.887418708E0,-3.794296829E0,3.137840452E0,6.273336858E0
1.639024171E1,6.293224890E0,-2.864860617E1,-1.782182214E0,2.938577017E1
1.640021171E1,7.445036327E0,-6.631677169E1,7.245743921E0,6.712558065E1
1.641018171E1,7.157508852E0,-6.635195322E1,1.397212996E1,6.818381072E1
1.642015171E1,5.023068148E0,-3.851061832E1,-4.172486843E-1,3.883906582E1
1.643012071E1,5.480240305E0,-1.587420115E1,-6.101514570E0,1.786761808E1
1.644009071E1,7.030960488E0,-7.020632551E0,-5.293905330E0,1.125829119E1
1.645006071E1,8.410712178E0,-5.806845306E0,-5.637676002E0,1.167231436E1
1.646003071E1,7.648216546E0,-1.048304960E1,-2.911378959E0,1.329908541E1
1.647000071E1,4.203884052E0,-1.386340216E1,1.493261933E-2,1.448677961E1
1.647996971E1,-4.751050559E-1,-1.383958528E1,6.146686649E-1,1.386137306E1
1.648993971E1,-5.017325597E0,-1.323542991E1,1.341402726E0,1.421792960E1
1.649990971E1,-7.384987176E0,-1.117927289E1,2.164067962E0,1.357193310E1
1.650987971E1,-7.138165678E0,-6.747757614E0,1.733202428E0,9.974448994E0
1.651984871E1,-5.155794096E0,-2.425201689E0,4.434738851E-1,5.714935265E0
1.652981871E1,-2.520855998E0,2.173702419E-1,-5.752888370E-1,2.594787473E0
1.653978871E1,-2.786865024E-1,2.166347206E0,-7.924801540E-1,2.323521289E0
1.654975871E1,1.513601181E0,5.042873837E0,2.992721915E-2,5.265212313E0
1.655972771E1,2.928823543E0,8.558999906E0,1.356239451E0,9.147342356E0
1.656969771E1,4.196395523E0,1.117860982E1,2.305076491E0,1.216077426E1
1.657966771E1,4.926427122E0,1.423344203E1,2.407021526E0,1.525300983E1
1.658963771E1,5.230216872E0,1.701122965E1,1.725512170E0,1.788056193E1
1.659960771E1,5.609734497E0,1.970662065E1,1.297949435E0,2.053057942E1
1.660957671E1,5.575954548E0,2.210868725E1,5.961096025E-1,2.280878488E1
1.661954671E1,5.019914744E0,2.283522952E1,3.868809506E-1,2.338368936E1
1.662951671E1,3.976241130E0,2.126349328E1,5.575296736E-1,2.163925782E1
1.663948671E1,2.217829309E0,1.781571531E1,1.039674704E0,1.798330899E1
