"Time (s)","Linear Acceleration x (m/s^2)","Linear Acceleration y (m/s^2)","Linear Acceleration z (m/s^2)","Absolute acceleration (m/s^2)"
4.580250003E-3,5.517833809E0,-4.413076086E0,-2.525152239E0,7.503207602E0
1.454845833E-2,1.165706877E1,-1.234466040E1,-2.143179222E0,1.711347743E1
2.451845834E-2,1.930304583E1,-2.183239929E1,-1.068018790E-1,2.914228275E1
3.448745834E-2,2.344993795E1,-2.434943384E1,3.998854067E0,3.404093641E1
4.445745833E-2,2.306955786E1,-2.336458497E1,6.172532512E0,3.340970650E1
5.442645833E-2,2.250460222E1,-2.256287557E1,6.700809150E0,3.256441798E1
6.439645834E-2,2.229563910E1,-2.035667433E1,8.380741689E0,3.133251576E1
7.436545833E-2,2.236537534E1,-2.063458547E1,9.997979797E0,3.203054373E1
8.433545833E-2,2.276265388E1,-2.198108229E1,9.944160855E0,3.316915322E1
9.430445834E-2,2.168340756E1,-2.087086444E1,9.831351693E0,3.166099528E1
1.042744583E-1,1.739568174E1,-1.645754511E1,1.096583783E1,2.633837758E1
1.142434583E-1,1.156420563E1,-1.170324657E1,9.344223665E0,1.892118780E1
1.242134583E-1,8.587388722E0,-7.368932476E0,7.154848369E0,1.338791493E1
1.341824583E-1,7.258118384E0,-5.350536198E0,5.162075175E0,1.039016555E1
1.441524583E-1,6.011848102E0,-4.625699558E0,1.660896344E0,7.765178084E0
1.541214583E-1,4.121567827E0,-3.186387545E0,-3.153809783E0,6.089901731E0
1.640914583E-1,1.642869962E0,-6.413951182E-1,-7.744372253E0,7.942651384E0
1.740604583E-1,-1.640781337E-1,1.624114434E0,-1.144188538E1,1.155774245E1
1.840304583E-1,-2.127676061E0,3.009515703E0,-1.339465661E1,1.389248055E1
1.940004583E-1,-4.110045889E0,5.093709530E0,-1.424809281E1,1.567949307E1
2.039694583E-1,-4.927791862E0,8.159464338E0,-1.319363284E1,1.627672997E1
2.139394583E-1,-5.466284171E0,9.629535044E0,-1.223148754E1,1.649901498E1
2.239084583E-1,-5.340728663E0,9.329003363E0,-1.175044295E1,1.592565842E1
2.338784583E-1,-5.262451403E0,8.314436603E0,-1.066130665E1,1.450816013E1
2.438474583E-1,-4.996135288E0,7.666892552E0,-9.162791580E0,1.294987872E1
2.538174583E-1,-4.612341594E0,7.760349185E0,-8.117885957E0,1.214070784E1
2.637864583E-1,-4.407046437E0,7.788153280E0,-7.629210756E0,1.175934720E1
2.737564583E-1,-4.305880836E0,7.679691523E0,-7.252105692E0,1.140663441E1
2.837254583E-1,-4.536899064E0,7.517265812E0,-6.717738594E0,1.105534939E1
2.936954583E-1,-4.865081059E0,7.314469755E0,-6.121555316E0,1.070719015E1
3.036644583E-1,-5.031501587E0,7.079618677E0,-5.510647581E0,1.028611907E1
3.136344583E-1,-5.155978868E0,6.730989554E0,-4.999565265E0,9.843068185E0
3.236034583E-1,-5.393274082E0,6.602301108E0,-4.623868210E0,9.698347409E0
3.335734583E-1,-5.605072512E0,6.555739730E0,-4.241758807E0,9.611819757E0
3.435424583E-1,-5.691019565E0,6.384577695E0,-3.753788780E0,9.340314033E0
3.535124583E-1,-5.702816908E0,6.124159082E0,-3.258001319E0,8.980090074E0
3.634814583E-1,-5.680918500E0,5.850176682E0,-2.813161524E0,8.626197307E0
3.734514583E-1,-5.637367269E0,5.600352640E0,-2.394115552E0,8.299135418E0
3.834214583E-1,-5.650725233E0,5.386766131E0,-1.998181430E0,8.058577668E0
3.933904583E-1,-5.708022099E0,5.248438550E0,-1.591166689E0,7.915771278E0
4.033604583E-1,-5.739015266E0,5.077025669E0,-1.281604421E0,7.768847775E0
4.133294583E-1,-5.756314838E0,4.858163218E0,-1.043656950E0,7.604349426E0
4.232994583E-1,-5.782128541E0,4.648213970E0,-8.634713455E-1,7.468901280E0
4.332684583E-1,-5.718102114E0,4.373826943E0,-7.394195956E-1,7.236974178E0
4.432384583E-1,-5.593856968E0,3.953665907E0,-6.045354402E-1,6.876639657E0
4.532074583E-1,-5.448584649E0,3.386041600E0,-4.828583908E-1,6.433156661E0
4.631774583E-1,-5.072666570E0,2.470557664E0,-4.243537822E-1,5.658239782E0
4.731464583E-1,-4.257502728E0,8.235779858E-1,-5.692761451E-1,4.373635273E0
4.831164583E-1,-2.424669008E0,-2.238002495E0,-9.477403942E-1,3.433057940E0
4.930854583E-1,1.699797285E-1,-6.792250248E0,-1.591803889E0,6.978351966E0
5.030554583E-1,3.976983141E0,-1.294611318E1,-2.105713334E0,1.370592099E1
5.130244583E-1,9.418158783E0,-2.081991414E1,-1.972400326E0,2.293601759E1
5.229944583E-1,1.287782589E1,-2.412573574E1,2.939380690E-2,2.734758470E1
5.329634583E-1,1.492435605E1,-2.419725187E1,4.135065540E0,2.872876900E1
5.429334583E-1,1.532312797E1,-2.391110551E1,5.616516683E0,2.894968872E1
5.529034583E-1,1.284043061E1,-1.959169012E1,2.503181326E0,2.355794763E1
5.628724583E-1,1.120304183E1,-1.545174683E1,2.041575226E0,1.919459965E1
5.728424583E-1,1.125436050E1,-1.529307679E1,4.561195414E0,1.952801402E1
5.828114583E-1,1.299347329E1,-1.832253793E1,5.643630806E0,2.316023128E1
5.927814583E-1,1.611605836E1,-2.187937816E1,5.103186697E0,2.764917793E1
6.027504583E-1,1.746994372E1,-2.042377931E1,6.053153418E0,2.754941672E1
6.127204583E-1,1.715723814E1,-1.469835064E1,8.773281648E0,2.423598157E1
6.226894583E-1,1.555161494E1,-7.762602117E0,8.841939654E0,1.950104140E1
6.326594583E-1,1.366174689E1,-1.907993830E0,7.652784390E0,1.577494461E1
6.426284583E-1,1.113518489E1,2.757830492E0,6.795862073E0,1.333348090E1
6.525984583E-1,8.574958711E0,5.624540232E0,6.569270772E0,1.217869813E1
6.625674583E-1,7.060342746E0,5.978881500E0,6.055061949E0,1.105708998E1
6.725374583E-1,6.299616482E0,5.198231433E0,4.794449033E0,9.470666258E0
6.825064583E-1,5.699711452E0,4.967067609E0,2.977985762E0,8.125691999E0
6.924764583E-1,5.051389137E0,5.520838108E0,1.340942989E0,7.602257147E0
7.024464583E-1,4.254861540E0,6.054387181E0,-1.861636519E-2,7.399986313E0
7.124154583E-1,3.357288210E0,6.565937274E0,-1.184055907E0,7.468929294E0
7.223854583E-1,2.357518998E0,7.301121731E0,-2.004585155E0,7.929857250E0
7.323544583E-1,1.251259711E0,7.991709475E0,-2.892570806E0,8.590694795E0
7.423244583E-1,-1.843001443E-1,8.403917713E0,-3.984991488E0,9.302685453E0
7.522934583E-1,-1.427519934E0,8.457449557E0,-5.113371962E0,9.985631627E0
7.622634583E-1,-2.484700032E0,8.434889830E0,-6.201097330E0,1.075986565E1
7.722324583E-1,-3.444367284E0,8.316681349E0,-6.872588067E0,1.132533979E1
7.822024583E-1,-4.308429052E0,8.552883718E0,-7.384697154E0,1.209330943E1
7.921714583E-1,-5.379158319E0,8.434944209E0,-7.823140680E0,1.269980937E1
8.021414583E-1,-6.125621470E0,7.791983206E0,-8.224610506E0,1.287953643E1
8.121104583E-1,-6.226250882E0,6.342990543E0,-8.720654368E0,1.245188908E1
8.220804583E-1,-6.099804844E0,5.754230306E0,-8.825991958E0,1.217443714E1
8.320504583E-1,-5.916967673E0,5.773774624E0,-8.875314977E0,1.212922899E1
8.420194583E-1,-5.758892875E0,5.711750869E0,-9.001354049E0,1.211665465E1
8.519894583E-1,-5.589979094E0,5.645277382E0,-8.980449083E0,1.199022472E1
8.619584583E-1,-5.359070794E0,5.722292229E0,-9.136228849E0,1.203889304E1
8.719284583E-1,-5.506362156E0,5.900770301E0,-9.036454300E0,1.211596553E1
8.818974583E-1,-5.539430500E0,6.082697060E0,-8.853327107E0,1.208577241E1
8.918674583E-1,-5.603704264E0,6.367775720E0,-8.381263846E0,1.192458187E1
9.018364583E-1,-5.850260298E0,6.590898453E0,-7.676349839E0,1.168725095E1
9.118064583E-1,-5.888130959E0,6.619773758E0,-7.034424963E0,1.131258703E1
9.217754583E-1,-5.840420018E0,6.669685591E0,-6.594449467E0,1.104907126E1
9.317454583E-1,-5.797373986E0,6.767895425E0,-6.246726077E0,1.088280939E1
9.417144583E-1,-5.616317877E0,6.807089896E0,-5.891704777E0,1.061092289E1
9.516844583E-1,-5.423246909E0,6.750977676E0,-5.453972858E0,1.023392039E1
9.616534583E-1,-5.325559816E0,6.427295698E0,-5.014843454E0,9.737575274E0
9.716234583E-1,-5.119596323E0,5.573453693E0,-4.754364030E0,8.937428596E0
9.815934583E-1,-4.659098854E0,3.981326453E0,-4.624543564E0,7.677536430E0
9.915624583E-1,-3.310884122E0,1.088460948E0,-4.746260374E0,5.888436842E0
1.001532458E0,-5.939110494E-1,-4.485058819E0,-4.865960772E0,6.644249934E0
1.011502458E0,3.803380478E0,-1.447551325E1,-3.363474272E0,1.534011558E1
1.021472458E0,1.072919984E1,-2.745020295E1,-7.977180898E-1,2.948331266E1
1.031441458E0,1.711259348E1,-3.402099984E1,-1.395758151E-1,3.808265704E1
1.041411458E0,2.331181502E1,-3.424154512E1,7.234537002E-1,4.143003158E1
1.051380458E0,3.062657889E1,-3.448380228E1,2.077156702E0,4.616746186E1
1.061350458E0,3.222224194E1,-2.885791544E1,3.964328012E0,4.343694344E1
1.071319458E0,2.779331522E1,-2.237922154E1,1.379471608E0,3.570995477E1
1.081289458E0,2.472348257E1,-2.355151344E1,-2.183770155E0,3.421539460E1
1.091259458E0,2.557368176E1,-2.608942021E1,1.438173122E0,3.656144673E1
1.101228458E0,2.169489383E1,-2.261356859E1,1.303661522E1,3.394105536E1
1.111198458E0,1.189195961E1,-1.329375588E1,2.009363850E1,2.686814018E1
1.121167458E0,4.552034581E0,-4.953679240E-1,1.973820731E1,2.026236008E1
1.131137458E0,1.026841820E0,6.815952521E0,1.759620850E1,1.889809954E1
1.141106458E0,2.180794507E0,3.319087180E0,1.376329666E1,1.432482248E1
1.151076458E0,3.288941860E0,-4.734110445E-1,9.158397982E0,9.742561787E0
1.161045458E0,3.237524369E0,-4.814819562E-1,4.934169420E0,5.921099288E0
1.171015458E0,3.117186332E0,7.036697191E-1,2.141420526E0,3.846775737E0
1.180984458E0,2.413722435E0,1.779410634E0,6.183246365E-1,3.061810503E0
1.190954458E0,1.288743287E0,2.898119813E0,-3.944484901E-1,3.196176985E0
1.200924458E0,9.873432934E-2,4.167609388E0,-1.270890568E0,4.358196796E0
1.210893458E0,-1.332353575E0,5.115020292E0,-2.059626750E0,5.672800101E0
1.220863458E0,-2.480481851E0,5.476901545E0,-3.076336514E0,6.753746153E0
1.230832458E0,-3.041163173E0,5.648861141E0,-4.105131889E0,7.616456752E0
1.240802458E0,-3.373270989E0,5.844963305E0,-5.201264384E0,8.520311285E0
1.250771458E0,-3.719301610E0,5.774106161E0,-6.145803135E0,9.216528772E0
1.260741458E0,-3.865579650E0,5.402898599E0,-6.943163960E0,9.609450821E0
1.270710458E0,-4.003791456E0,4.923177824E0,-7.610352901E0,9.908859530E0
1.280680458E0,-4.313752942E0,4.467229781E0,-8.179724940E0,1.026998084E1
1.290649458E0,-4.645126348E0,4.074840681E0,-8.668125907E0,1.064508958E1
1.300619458E0,-4.928274257E0,3.779609208E0,-9.364825745E0,1.123713906E1
1.310589458E0,-4.961889315E0,3.738055677E0,-1.018759214E1,1.193232749E1
1.320558458E0,-5.103499523E0,3.920652235E0,-1.039063787E1,1.222221652E1
1.330528458E0,-5.350070175E0,4.081083753E0,-1.025289150E1,1.226377917E1
1.340497458E0,-5.725264953E0,4.271796831E0,-9.954592288E0,1.225237996E1
1.350467458E0,-5.935839561E0,4.370398136E0,-9.434536834E0,1.197267958E1
1.360436458E0,-5.968267635E0,4.291230637E0,-9.016241060E0,1.163303407E1
1.370406458E0,-6.338191733E0,4.194413317E0,-8.737625912E0,1.158066855E1
1.380375458E0,-6.674565092E0,4.188322857E0,-8.490229633E0,1.158343070E1
1.390345458E0,-6.595042959E0,4.192929294E0,-8.264124820E0,1.137413763E1
1.400314458E0,-6.425694730E0,4.190916097E0,-7.919113369E0,1.102568307E1
1.410284458E0,-6.439304125E0,4.248202146E0,-7.391979861E0,1.068425128E1
1.420253458E0,-6.508939201E0,4.231533196E0,-6.853087603E0,1.035552859E1
1.430223458E0,-6.659347714E0,4.125243972E0,-6.368161052E0,1.009544575E1
1.440193458E0,-6.845561067E0,3.856914076E0,-5.803511224E0,9.768225788E0
1.450162458E0,-6.866585315E0,3.225334971E0,-5.317035745E0,9.264105391E0
1.460132458E0,-6.586025968E0,2.150007454E0,-5.037552286E0,8.565932707E0
1.470101458E0,-6.148013383E0,5.098172709E-1,-4.899011282E0,7.877708661E0
1.480071458E0,-5.260237647E0,-1.736746717E0,-4.466185176E0,7.115700899E0
1.490040458E0,-3.736086627E0,-4.363544322E0,-3.884691274E0,6.934672929E0
1.500010458E0,-1.719183143E0,-7.846751736E0,-2.769200695E0,8.496797984E0
1.509979458E0,1.474674219E0,-1.377232008E1,-1.036883390E0,1.388980171E1
1.519949458E0,6.340783219E0,-2.067767009E1,1.616174792E-1,2.162863132E1
1.529919458E0,1.098124992E1,-2.467071028E1,1.813280046E0,2.706510262E1
1.539888458E0,1.608493246E1,-2.702707036E1,3.247012646E0,3.161851792E1
1.549858458E0,1.974275878E1,-3.067879686E1,4.600202190E0,3.677127903E1
1.559827458E0,1.913039158E1,-3.118309349E1,4.591334302E0,3.687055129E1
1.569797458E0,1.904083563E1,-2.988387257E1,2.190916622E0,3.550210384E1
1.579766458E0,2.130474655E1,-2.824032550E1,3.169956869E0,3.551699363E1
1.589736458E0,2.303342908E1,-2.383478531E1,4.560556898E0,3.345795160E1
1.599705458E0,2.203648115E1,-1.613756676E1,6.712476100E0,2.812623149E1
1.609675458E0,1.972522182E1,-8.260958553E0,1.056604615E1,2.385307408E1
1.619644458E0,1.665188551E1,-1.945299650E0,1.228664666E1,2.078535946E1
1.629614458E0,1.332243297E1,2.008682883E0,1.227944406E1,1.822928341E1
1.639584458E0,1.057978828E1,3.486901100E0,1.128498821E1,1.585690255E1
1.649553458E0,8.558068444E0,4.170493820E0,9.515420784E0,1.346019268E1
1.659523458E0,7.275001634E0,5.105700999E0,7.378636515E0,1.155154138E1
1.669492458E0,6.853869376E0,5.908185740E0,5.213388001E0,1.044325613E1
1.679462458E0,6.626806789E0,6.443711171E0,3.321165866E0,9.821716988E0
1.689431458E0,5.683076123E0,6.824711065E0,1.789547806E0,9.059609081E0
1.699401458E0,4.714675469E0,7.342904765E0,-1.003355893E-1,8.726768153E0
1.709370458E0,3.790466902E0,8.040449526E0,-1.928290392E0,9.095865641E0
1.719340458E0,2.201824602E0,8.214907052E0,-3.462461493E0,9.182666772E0
1.729310458E0,1.496717638E-1,7.752062511E0,-4.693415870E0,9.063389396E0
1.739279458E0,-1.920150191E0,7.543519226E0,-5.627656213E0,9.605320063E0
1.749249458E0,-3.624734591E0,7.077293240E0,-6.489581993E0,1.026359854E1
1.759218458E0,-5.091847191E0,6.526694856E0,-6.958339823E0,1.081402546E1
1.769188458E0,-6.365173125E0,5.844106688E0,-6.764770088E0,1.097411164E1
1.779157458E0,-7.159985148E0,4.711472949E0,-6.667983466E0,1.085934474E1
1.789127458E0,-7.416874382E0,3.892575367E0,-7.194062136E0,1.104158950E1
1.799096458E0,-7.319304233E0,3.790330954E0,-7.425946337E0,1.109430044E1
1.809066458E0,-7.133074508E0,3.915937333E0,-7.203914695E0,1.086792087E1
1.819035458E0,-6.983681656E0,4.108062513E0,-6.926860753E0,1.065970858E1
1.829005458E0,-7.031900135E0,4.197337510E0,-6.939271469E0,1.073399973E1
1.838975458E0,-7.061343205E0,4.198824164E0,-7.103802177E0,1.086078715E1
1.848944458E0,-7.093114051E0,4.273884872E0,-7.231445725E0,1.099418783E1
1.858914458E0,-7.083529880E0,4.377138514E0,-7.310379628E0,1.108049581E1
1.868883458E0,-7.133862128E0,4.490241206E0,-7.191250795E0,1.108008768E1
1.878853458E0,-7.305126489E0,4.581374448E0,-6.891858151E0,1.103864003E1
1.888822458E0,-7.371590620E0,4.534821256E0,-6.577892491E0,1.087076914E1
1.898792458E0,-7.308564652E0,4.374841728E0,-6.246389862E0,1.056275266E1
1.908761458E0,-7.119442309E0,4.049358515E0,-5.878381312E0,1.008162338E1
1.918731458E0,-7.027767323E0,3.535417787E0,-5.385333563E0,9.533651455E0
1.928701458E0,-6.849549453E0,2.779228377E0,-4.737277589E0,8.779649027E0
1.938670458E0,-6.358889122E0,1.708547350E0,-4.224839011E0,7.823290202E0
1.948640458E0,-5.480451390E0,2.860782418E-1,-3.748579788E0,6.645979132E0
1.958609458E0,-3.890537905E0,-2.107330528E0,-3.252796420E0,5.491612850E0
1.968579458E0,-1.196168999E0,-6.106357234E0,-2.851674795E0,6.844740176E0
1.978548458E0,1.863312331E0,-1.129372863E1,-1.854980926E0,1.159574032E1
1.988518458E0,4.953658190E0,-1.602750579E1,8.957995775E-1,1.679946809E1
1.998487458E0,7.988356097E0,-1.931876197E1,3.875063249E0,2.126133845E1
2.008457458E0,9.535728164E0,-2.066482493E1,4.623648355E0,2.322376423E1
2.018430458E0,1.134415736E1,-2.062307347E1,4.999942410E0,2.406242901E1
2.028399458E0,1.463087260E1,-2.223526777E1,4.725619118E0,2.703333206E1
2.038369458E0,1.772950396E1,-2.412322846E1,3.681581222E0,3.016321439E1
2.048338458E0,2.035286428E1,-2.403701009E1,3.125059608E0,3.165095474E1
2.058308458E0,2.323501535E1,-2.278645439E1,2.162519034E0,3.261540940E1
2.068277458E0,2.406925398E1,-1.857425121E1,1.339480454E0,3.043231840E1
2.078247458E0,2.207496519E1,-1.191719853E1,2.171227000E0,2.518010992E1
2.088216458E0,1.922430021E1,-6.237130212E0,3.880075774E0,2.057985665E1
2.098186458E0,1.619669380E1,-2.070635303E0,4.640390103E0,1.697508884E1
2.108156458E0,1.313222187E1,4.732110697E-1,4.514560946E0,1.389461912E1
2.118125458E0,1.008292113E1,2.013751835E0,4.038883813E0,1.104685826E1
2.128095458E0,7.519314092E0,2.852896863E0,3.161754395E0,8.641515826E0
2.138064458E0,5.607634177E0,3.338240320E0,1.919278371E0,6.802428902E0
2.148034458E0,4.090582262E0,3.904218636E0,6.608394492E-1,5.693197272E0
2.158003458E0,3.034710771E0,4.501828049E0,-5.372708255E-1,5.455692915E0
2.167973458E0,2.505731882E0,5.334969156E0,-1.856126250E0,6.179465415E0
2.177942458E0,2.062983052E0,6.462844430E0,-3.184689513E0,7.494431566E0
2.187912458E0,1.376695935E0,7.585816814E0,-4.270986699E0,8.813695923E0
2.197882458E0,4.844605279E-1,8.295888650E0,-5.013876325E0,9.705432824E0
2.207851458E0,-6.819940907E-1,8.760692593E0,-5.177724663E0,1.019920013E1
2.217821458E0,-1.893839475E0,9.254279455E0,-5.175765846E0,1.077111268E1
2.227790458E0,-2.922945337E0,9.529723073E0,-5.604526967E0,1.143546911E1
2.237760458E0,-3.945196508E0,9.386012546E0,-6.074867054E0,1.185604558E1
2.247729458E0,-4.703610198E0,8.648030196E0,-6.272052122E0,1.167266092E1
2.257699458E0,-4.993286524E0,7.841186941E0,-6.274467022E0,1.121543844E1
2.267668458E0,-5.157575743E0,7.584401788E0,-6.312794352E0,1.113441110E1
2.277638458E0,-5.392516868E0,7.465762367E0,-6.467842630E0,1.125388085E1
2.287608458E0,-5.631273885E0,7.236347446E0,-6.611828561E0,1.130452329E1
2.297577458E0,-5.813067328E0,7.093585922E0,-6.736315198E0,1.137930821E1
2.307547458E0,-5.974647532E0,7.030068787E0,-6.727156119E0,1.141809571E1
2.317516458E0,-6.165143970E0,6.971058102E0,-6.639460164E0,1.143184510E1
2.327486458E0,-6.342230989E0,6.984207906E0,-6.521086791E0,1.146854947E1
2.337455458E0,-6.525008519E0,7.072333632E0,-6.266023643E0,1.148288690E1
2.347425458E0,-6.703861982E0,7.151693212E0,-5.957929173E0,1.147106801E1
2.357394458E0,-6.828756754E0,7.198187932E0,-5.669624019E0,1.142761851E1
2.367364458E0,-6.889617498E0,7.268808264E0,-5.467766440E0,1.141047206E1
2.377334458E0,-6.878525330E0,7.399831502E0,-5.173219968E0,1.135049875E1
2.387303458E0,-6.875694693E0,7.544450687E0,-4.774568792E0,1.126900265E1
2.397273458E0,-6.834136192E0,7.608976466E0,-4.263441452E0,1.108056286E1
2.407242458E0,-6.814037558E0,7.453803642E0,-3.532823378E0,1.069911854E1
2.417212458E0,-6.816201612E0,7.031803656E0,-2.781350040E0,1.018050957E1
2.427181458E0,-6.668114444E0,5.950120801E0,-2.288916541E0,9.225336130E0
2.437151458E0,-5.795857219E0,3.272125560E0,-1.991081156E0,6.947169981E0
2.447120458E0,-3.655647066E0,-1.421918886E0,-1.712418061E0,4.279951449E0
2.457090458E0,5.654959202E-1,-8.930655949E0,-1.092758213E0,9.015016463E0
2.467060458E0,6.614688435E0,-2.080316772E1,5.041714188E-1,2.183529434E1
2.477029458E0,1.282984949E1,-2.865825173E1,5.416488698E0,3.186281187E1
2.486999458E0,1.556531847E1,-2.698923185E1,7.240176787E0,3.198621477E1
2.496968458E0,1.413026791E1,-2.419481709E1,5.599839839E0,2.857292164E1
2.506938458E0,1.624938657E1,-2.434759782E1,3.907108037E0,2.953156915E1
2.516907458E0,1.950973555E1,-2.478044614E1,4.618806568E0,3.187528300E1
2.526877458E0,2.332638862E1,-2.499135521E1,4.797572323E0,3.452107967E1
2.536846458E0,2.868584358E1,-2.446422404E1,5.368746766E-1,3.770496140E1
2.546816458E0,2.692865704E1,-1.754802861E1,-1.017033116E0,3.215773988E1
2.556786458E0,2.100743201E1,-1.064222953E1,2.103042326E0,2.364301241E1
2.566755458E0,1.640191704E1,-5.552696663E0,3.382556075E0,1.764361098E1
2.576725458E0,1.309811974E1,-1.210533854E0,2.232630951E0,1.334206783E1
2.586694458E0,1.079605808E1,1.224670667E0,1.849569036E0,1.102159670E1
2.596664458E0,8.631666178E0,2.500629601E0,1.338315396E0,9.085697415E0
2.606633458E0,6.810025198E0,3.179586648E0,1.970850813E-1,7.518314770E0
2.616603458E0,5.388952990E0,3.558018445E0,-1.035734119E0,6.540111218E0
2.626573458E0,3.848160210E0,3.995306561E0,-1.828977481E0,5.840887787E0
2.636542458E0,2.180807955E0,4.618736109E0,-2.312905912E0,5.606976043E0
2.646512458E0,6.783553684E-1,5.175265909E0,-2.875335845E0,5.959119017E0
2.656481458E0,-5.858056390E-1,5.501009030E0,-3.688530053E0,6.649024180E0
2.666451458E0,-1.527082229E0,6.114438670E0,-4.809368788E0,7.927696294E0
2.676420458E0,-2.138694554E0,5.732624259E0,-5.981659513E0,8.556707650E0
2.686390458E0,-2.522780609E0,5.177589008E0,-6.839672921E0,8.941642779E0
2.696359458E0,-2.726090051E0,6.219141253E0,-7.507388695E0,1.012275506E1
2.706329458E0,-3.620830405E0,7.006938372E0,-8.782224380E0,1.180402742E1
2.716299458E0,-4.941778402E0,7.315731584E0,-1.046288607E1,1.368988996E1
2.726268458E0,-5.883041543E0,7.478558999E0,-1.160464965E1,1.500689561E1
2.736238458E0,-6.133940304E0,7.386762391E0,-1.205661018E1,1.541270033E1
2.746207458E0,-6.358479817E0,7.105459278E0,-1.166800189E1,1.506851304E1
2.756177458E0,-6.641321332E0,6.603202164E0,-1.067539727E1,1.420118075E1
2.766146458E0,-6.852713381E0,5.533763963E0,-9.360339761E0,1.285294459E1
2.776116458E0,-7.169733042E0,4.632853919E0,-8.115319614E0,1.177823500E1
2.786086458E0,-7.164223795E0,4.245254273E0,-7.708765633E0,1.134783477E1
2.796055458E0,-6.820856581E0,4.319471811E0,-7.958412505E0,1.133658903E1
2.806025458E0,-6.255829607E0,4.673521304E0,-8.183178890E0,1.131112825E1
2.815994458E0,-5.905228218E0,5.028083889E0,-8.127779446E0,1.123450696E1
2.825964458E0,-5.837423905E0,5.527602167E0,-7.855429589E0,1.124000345E1
2.835933458E0,-5.895378583E0,6.015137161E0,-7.494840571E0,1.127430702E1
2.845903458E0,-5.895721815E0,6.212889994E0,-7.020011576E0,1.107429909E1
2.855872458E0,-5.844183871E0,6.170553814E0,-6.457304778E0,1.067365938E1
2.865842458E0,-5.897509893E0,6.055767124E0,-5.887606464E0,1.030130323E1
2.875812458E0,-5.928760337E0,5.860944915E0,-5.311884348E0,9.885190426E0
2.885781458E0,-5.927448807E0,5.463072295E0,-4.820855058E0,9.392574288E0
2.895751458E0,-5.892452052E0,4.710503481E0,-4.338721722E0,8.702547926E0
2.905720458E0,-5.543679087E0,3.218729372E0,-3.790199392E0,7.447026790E0
2.915690458E0,-4.796703134E0,1.022438282E0,-3.318350139E0,5.921586666E0
2.925659458E0,-3.447869182E0,-1.795737230E0,-2.892459708E0,4.845492468E0
2.935629458E0,-9.586878437E-1,-5.728953962E0,-2.219328243E0,6.218151954E0
2.945599458E0,2.632258027E0,-1.154337667E1,1.441192478E-1,1.184056999E1
2.955568458E0,7.005022824E0,-1.916005100E1,4.679137262E0,2.093017498E1
2.965538458E0,1.349115671E1,-2.724288173E1,6.980200224E0,3.119149098E1
2.975507458E0,1.768347117E1,-2.918509756E1,8.538696034E0,3.517647512E1
2.985477458E0,2.018475215E1,-2.631228566E1,8.860861244E0,3.432601722E1
2.995446458E0,2.024767287E1,-2.412696600E1,7.680597256E0,3.242021467E1
3.005416458E0,1.778405498E1,-2.171563741E1,5.911417496E0,2.868425311E1
3.015381833E0,1.873205119E1,-2.091491502E1,5.136837423E0,2.854313421E1
3.025350833E0,2.218219610E1,-2.106004058E1,4.291167487E0,3.088671642E1
3.035320833E0,2.413047900E1,-1.731607541E1,1.963518697E0,2.976544793E1
3.045289833E0,2.179172606E1,-1.001973027E1,6.177623098E0,2.476766736E1
3.055259833E0,2.002515123E1,-4.303111594E0,9.794483829E0,2.270364210E1
3.065228833E0,1.722646800E1,1.211543083E-1,9.426553631E0,1.963735704E1
3.075198833E0,1.333134295E1,2.664542259E0,6.535815343E0,1.508447456E1
3.085168833E0,1.010921840E1,4.085651890E0,5.155842043E0,1.206115895E1
3.095137833E0,8.171841724E0,4.579165662E0,4.335146735E0,1.032188222E1
3.105107833E0,7.265335602E0,4.093292447E0,2.909820676E0,8.832168524E0
3.115076833E0,6.719141926E0,3.297918506E0,9.401375520E-1,7.543672402E0
3.125046833E0,5.908916641E0,2.928176841E0,-9.757675606E-1,6.666456166E0
3.135015833E0,3.548613784E0,3.668943050E0,-2.010381207E0,5.485930686E0
3.144985833E0,8.922266364E-1,4.982239965E0,-2.357238917E0,5.583489836E0
3.154954833E0,-1.038578936E0,5.783669282E0,-3.802181214E0,6.999004112E0
3.164924833E0,-3.167433211E0,5.399310747E0,-4.893842928E0,7.945746554E0
3.174894833E0,-4.311240394E0,5.037504923E0,-6.221203566E0,9.092118751E0
3.184863833E0,-5.491938245E0,5.661332082E0,-8.627953781E0,1.168989534E1
3.194833833E0,-7.647303795E0,6.703352104E0,-9.916316414E0,1.420385567E1
3.204802833E0,-9.028209726E0,6.796181331E0,-1.084359126E1,1.566142149E1
3.214772833E0,-8.977772228E0,6.053255160E0,-1.124095868E1,1.560773668E1
3.224741833E0,-8.198049529E0,6.431505693E0,-9.414541111E0,1.404300060E1
3.234711833E0,-7.050238173E0,4.697884605E0,-1.017740863E1,1.324219107E1
3.244681833E0,-6.822711902E0,3.589829637E0,-1.150250932E1,1.384716560E1
3.254650833E0,-7.182097564E0,4.901925826E0,-1.210881763E1,1.490754395E1
3.264620833E0,-7.050897739E0,6.724648833E0,-1.186590324E1,1.535368753E1
3.274589833E0,-6.472556655E0,7.923447325E0,-1.059381926E1,1.472766151E1
3.284559833E0,-6.365194759E0,8.172431123E0,-9.286882945E0,1.391224387E1
3.294528833E0,-6.652121724E0,7.611310090E0,-8.126588953E0,1.297012771E1
3.304498833E0,-8.508636083E0,6.336249872E0,-4.497249094E0,1.152259519E1
3.314468833E0,-9.557406716E0,5.593824808E0,-6.985525283E-1,1.109607475E1
3.324437833E0,-7.923746118E0,5.621295027E0,4.737384886E-2,9.715294880E0
3.334407833E0,-5.528464631E0,6.740000113E0,-1.428057293E0,8.833508382E0
3.344376833E0,-4.420220214E0,7.409514492E0,-2.351470639E0,8.942520109E0
3.354346833E0,-3.844410975E0,7.708619453E0,-2.305206299E0,8.917190460E0
3.364315833E0,-3.701239561E0,8.630010247E0,-2.378015243E0,9.686651002E0
3.374285833E0,-3.854719031E0,8.926788016E0,-3.275892044E0,1.026050056E1
3.384255833E0,-3.646349993E0,7.508285658E0,-4.608087160E0,9.534395056E0
3.394224833E0,-3.360981311E0,5.106165853E0,-5.249163605E0,8.057471294E0
3.404194833E0,-3.294482682E0,2.786202351E0,-4.580315809E0,6.292521958E0
3.414163833E0,-2.851756071E0,-1.931879121E-1,-4.396852401E0,5.244248783E0
3.424133833E0,-1.439442991E0,-4.184245301E0,-5.094233440E0,6.747675097E0
3.434102833E0,1.076493452E0,-8.897112812E0,-4.990226676E0,1.025767112E1
3.444072833E0,5.342677540E0,-1.528500062E1,-2.779456419E0,1.642865865E1
3.454042833E0,1.217860415E1,-2.301700308E1,5.388677001E0,2.659207908E1
3.464011833E0,1.658455599E1,-2.681681851E1,1.832186784E1,3.646752108E1
3.473981833E0,1.540121403E1,-2.547074737E1,5.379564700E0,3.024724916E1
3.483950833E0,1.569077867E1,-2.405855124E1,2.255383344E0,2.881147648E1
3.493920833E0,1.549954665E1,-2.259971537E1,6.214771628E0,2.809993715E1
3.503889833E0,1.581587751E1,-2.258774729E1,7.881742644E0,2.867874084E1
3.513859833E0,1.663190206E1,-2.204694533E1,6.033290427E0,2.826815448E1
3.523829833E0,1.715205867E1,-2.019356742E1,6.121712022E0,2.719280493E1
3.533798833E0,1.801236068E1,-1.626133594E1,7.981725354E0,2.554572613E1
3.543768833E0,1.740125999E1,-1.081526735E1,1.056475743E1,2.305185364E1
3.553737833E0,1.558701632E1,-5.442397710E0,1.159936376E1,2.017721513E1
3.563707833E0,1.355798220E1,-1.466164182E0,1.030164325E1,1.709071012E1
3.573676833E0,1.164193968E1,1.709950390E0,8.860741961E0,1.472995037E1
3.583646833E0,9.861091801E0,4.768500844E0,7.064614137E0,1.303412846E1
3.593616833E0,8.363737986E0,5.628248536E0,3.198444504E0,1.057635769E1
3.603585833E0,7.038012230E0,4.931685523E0,-1.659570780E0,8.752674644E0
3.613555833E0,5.831094294E0,5.112516514E0,-5.155187740E0,9.312112886E0
3.623524833E0,4.423251995E0,6.086535757E0,-6.544265739E0,9.971884967E0
3.633494833E0,2.219677321E0,7.159617358E0,-7.997460212E0,1.096113397E1
3.643463833E0,-1.250191424E0,7.235632331E0,-9.075966275E0,1.167435299E1
3.653433833E0,-3.249311771E0,7.650661266E0,-9.861622728E0,1.289737367E1
3.663403833E0,-4.004784898E0,7.975690443E0,-7.958250538E0,1.195757884E1
3.673372833E0,-4.803520403E0,7.119208421E0,-5.620345439E0,1.026378194E1
3.683342833E0,-5.386984232E0,5.654023063E0,-4.226202874E0,8.879660278E0
3.693311833E0,-5.732258808E0,4.958968046E0,-2.335795715E0,7.931336379E0
3.703281833E0,-6.262596005E0,4.477870252E0,-8.157617202E-1,7.741892398E0
3.713251833E0,-6.858549487E0,4.047008811E0,-1.193517579E-1,7.964435085E0
3.723220833E0,-7.460558345E0,3.774384136E0,1.023958558E-1,8.361602199E0
3.733190833E0,-7.942076554E0,3.393295656E0,1.204697455E-1,8.637450339E0
3.743159833E0,-8.044094095E0,3.531466824E0,-3.164337695E-2,8.785198293E0
3.753129833E0,-8.082925454E0,3.883022186E0,-4.799026233E-1,8.980080831E0
3.763098833E0,-8.093268594E0,3.997691640E0,-1.048810979E0,9.087493574E0
3.773068833E0,-8.093194335E0,3.988284932E0,-1.998738524E0,9.241275178E0
3.783038833E0,-8.185829433E0,4.070654367E0,-3.087080188E0,9.649253576E0
3.793007833E0,-8.545334963E0,4.276156515E0,-3.775372315E0,1.027432238E1
3.802977833E0,-8.818926183E0,4.537073603E0,-4.084076650E0,1.072558520E1
3.812946833E0,-8.739754298E0,4.534897562E0,-4.113076501E0,1.067080125E1
3.822916833E0,-8.471052520E0,4.171367394E0,-3.835143723E0,1.019153394E1
3.832885833E0,-8.567410541E0,3.640362737E0,-3.361469554E0,9.897082489E0
3.842855833E0,-8.867510698E0,2.799002491E0,-3.046133891E0,9.784993235E0
3.852825833E0,-9.167306800E0,1.633817596E0,-3.195945404E0,9.844944943E0
3.862794833E0,-9.171315066E0,2.240623802E-1,-3.832913010E0,9.942557324E0
3.872764833E0,-8.392025646E0,-1.107720945E0,-4.382004567E0,9.531794383E0
3.882733833E0,-7.081924819E0,-2.202713964E0,-4.110811874E0,8.479645171E0
3.892703833E0,-5.827867216E0,-3.177674024E0,-3.509170221E0,7.508390249E0
3.902672833E0,-4.284962422E0,-4.535571161E0,-3.327208378E0,7.071253376E0
3.912642833E0,-3.228157130E0,-5.613745102E0,-3.554092625E0,7.386928111E0
3.922612833E0,-3.101277813E0,-5.908805544E0,-3.687496265E0,7.624272801E0
3.932581833E0,-1.770210625E0,-8.087748238E0,-2.976043317E0,8.797849228E0
3.942551833E0,-6.890417397E-2,-1.351783171E1,9.122149046E-1,1.354875116E1
3.952520833E0,1.867562088E0,-1.877868156E1,6.961499074E0,2.011440128E1
3.962490833E0,5.807460433E0,-2.248624430E1,4.753440170E0,2.370554730E1
3.972459833E0,9.624798215E0,-2.423604230E1,4.521914989E0,2.646639760E1
3.982429833E0,1.170459143E1,-2.620639025E1,6.893135183E0,2.951758227E1
3.992399833E0,1.187646448E1,-2.737050540E1,5.932123071E0,3.042014232E1
4.002368833E0,1.361948906E1,-2.706123681E1,5.216520939E0,3.074106554E1
4.012338708E0,1.573763007E1,-2.506963305E1,6.272290689E0,3.025724925E1
4.022307708E0,1.726851416E1,-2.073949154E1,6.209848273E0,2.769278437E1
4.032277708E0,1.750361667E1,-1.468800925E1,5.417637091E0,2.348329202E1
4.042247708E0,1.637269265E1,-8.562749140E0,5.451025862E0,1.926394094E1
4.052216708E0,1.457661629E1,-3.899586471E0,5.266729810E0,1.598195732E1
4.062186708E0,1.262698736E1,-3.911027133E-1,4.259106034E0,1.333168239E1
4.072155708E0,1.095587885E1,2.186274517E0,3.227636143E0,1.162878810E1
4.082125708E0,9.851316426E0,3.792861922E0,2.112552238E0,1.076555218E1
4.092094708E0,9.216815175E0,4.621552128E0,8.112438691E-1,1.034246308E1
4.102064708E0,8.669166126E0,5.152783365E0,-3.261787391E-1,1.009019377E1
4.112034708E0,8.050017325E0,5.742919452E0,-1.231147628E0,9.964919831E0
4.122003708E0,7.146906681E0,6.327795383E0,-1.846634318E0,9.722619391E0
4.131973708E0,6.000453633E0,6.904684018E0,-2.340820520E0,9.442433262E0
4.141942708E0,4.702389885E0,7.500552716E0,-2.929694193E0,9.324905883E0
4.151912708E0,3.426746700E0,8.073970444E0,-3.568059284E0,9.469035786E0
4.161882708E0,2.320565180E0,8.538228841E0,-4.270590258E0,9.824678909E0
4.171851708E0,1.133510821E0,8.956197172E0,-5.093633516E0,1.036549164E1
4.181821708E0,8.145405293E-2,9.153827214E0,-5.954868740E0,1.092060663E1
4.191790708E0,-8.393648833E-1,9.041006942E0,-6.692658716E0,1.127989453E1
4.201760708E0,-1.589891850E0,8.892870072E0,-7.182806246E0,1.154138639E1
4.211729708E0,-2.063635016E0,8.457301038E0,-7.543284168E0,1.151892644E1
4.221699708E0,-2.268216228E0,7.853823944E0,-7.680514226E0,1.121684689E1
4.231669708E0,-2.461480154E0,7.781787416E0,-7.668375406E0,1.119906609E1
4.241638708E0,-2.779608446E0,8.039342648E0,-7.706732556E0,1.147828297E1
4.251608708E0,-3.110942675E0,8.135609452E0,-7.982750956E0,1.181483890E1
4.261577708E0,-3.303297944E0,8.075005401E0,-8.187582428E0,1.196469789E1
4.271547708E0,-3.481952602E0,8.091371173E0,-8.113556094E0,1.197597904E1
4.281517708E0,-3.791766154E0,8.138026106E0,-7.724850154E0,1.184391276E1
4.291486708E0,-4.008503727E0,7.947380564E0,-7.363264770E0,1.155191015E1
4.301456708E0,-4.150998033E0,7.713807102E0,-7.073825841E0,1.125933465E1
4.311425708E0,-4.241612919E0,7.676715290E0,-6.896202047E0,1.115709821E1
4.321395708E0,-4.293665417E0,7.640447350E0,-6.558241754E0,1.094634794E1
4.331364708E0,-4.345903273E0,7.369766874E0,-5.992466921E0,1.044557317E1
4.341334708E0,-4.249846968E0,6.693607720E0,-5.396911050E0,9.591258126E0
4.351304708E0,-3.834636769E0,5.343347046E0,-4.947698708E0,8.230159130E0
4.361273708E0,-3.013438016E0,3.581067000E0,-4.590557792E0,6.555766193E0
4.371243708E0,-1.750137718E0,1.183320327E0,-4.413002703E0,4.892629343E0
4.381212708E0,1.065035248E-1,-2.615733211E0,-4.612871937E0,5.303959911E0
4.391182708E0,2.840496672E0,-8.574664596E0,-4.639966180E0,1.015492887E1
4.401152708E0,5.391039276E0,-1.457876104E1,-1.781801707E0,1.564539534E1
4.411121708E0,7.534230924E0,-1.937346502E1,4.222384350E0,2.121141938E1
4.421091708E0,1.140730963E1,-2.589590310E1,3.237081735E0,2.848162931E1
4.431060708E0,1.387438323E1,-2.881057404E1,-5.892332038E-1,3.198272787E1
4.441030708E0,1.554631853E1,-2.999111051E1,9.603209710E-1,3.379462895E1
4.451000708E0,1.488890438E1,-2.819565979E1,3.973107022E0,3.213192002E1
4.460969708E0,1.126619292E1,-2.318157414E1,5.058204067E0,2.626590777E1
4.470939708E0,9.671916248E0,-2.085613647E1,3.527540711E0,2.325871742E1
4.480908708E0,1.004934525E1,-2.052547409E1,2.327346342E0,2.297174280E1
4.490878708E0,1.033215285E1,-1.989136694E1,2.765363460E0,2.258466507E1
4.500847708E0,8.979031718E0,-1.721794393E1,4.346371927E0,1.989903396E1
4.510817708E0,6.894081262E0,-1.225937759E1,7.112305198E0,1.576088768E1
4.520787708E0,5.740201081E0,-7.198485555E0,8.717685152E0,1.267935870E1
4.530756708E0,4.775509901E0,-2.986654260E0,8.887060279E0,1.052166521E1
4.540726708E0,3.934468621E0,1.108076602E-1,8.288752123E0,9.175823311E0
4.550695708E0,3.668083509E0,2.190506147E0,7.340759422E0,8.493521219E0
4.560665708E0,3.714439650E0,3.411786014E0,6.327799476E0,8.091871967E0
4.570635708E0,3.611112918E0,4.203015448E0,5.443024532E0,7.767367084E0
4.580604708E0,3.419427740E0,4.854912166E0,4.757557195E0,7.609008389E0
4.590574708E0,3.062587371E0,5.467027937E0,4.100213211E0,7.488630332E0
4.600543708E0,2.556004488E0,6.080438865E0,3.325504500E0,7.386736486E0
4.610513708E0,1.855848361E0,6.713848441E0,2.423538156E0,7.375192962E0
4.620483708E0,7.992243326E-1,7.228859501E0,1.405427253E0,7.407455365E0
4.630452708E0,-2.883642107E-1,7.365614181E0,3.179598927E-1,7.378111186E0
4.640422708E0,-1.426599582E0,7.163047335E0,-8.385202530E-1,7.351703864E0
4.650391708E0,-2.443923304E0,6.860163903E0,-2.049381551E0,7.565353570E0
4.660361708E0,-2.953213449E0,6.147630390E0,-3.252400271E0,7.555986805E0
4.670331708E0,-3.510436143E0,5.416516764E0,-4.458786694E0,7.844908830E0
4.680300708E0,-4.104126168E0,5.159658521E0,-5.443499326E0,8.549714180E0
4.690270708E0,-4.523789021E0,5.193519162E0,-6.316396236E0,9.345275267E0
4.700239708E0,-4.725944223E0,5.211522739E0,-7.181473081E0,1.005326184E1
4.710209708E0,-4.895647963E0,5.425684614E0,-7.871550947E0,1.074089088E1
4.720178708E0,-5.228774364E0,5.830770943E0,-8.393020842E0,1.147958057E1
4.730148708E0,-5.548348088E0,6.168866308E0,-8.663705412E0,1.199578549E1
4.740118708E0,-5.693155553E0,6.383783643E0,-8.676685646E0,1.218398898E1
4.750087708E0,-5.818577744E0,6.578630995E0,-8.462088153E0,1.219594886E1
4.760057708E0,-6.083560694E0,6.735398355E0,-8.044780558E0,1.212822312E1
4.770026708E0,-6.245095289E0,6.829751950E0,-7.487668376E0,1.190428093E1
4.779996708E0,-6.389970582E0,6.788627898E0,-6.995245110E0,1.165549857E1
4.789966708E0,-6.543750014E0,6.613839419E0,-6.691476409E0,1.146033999E1
4.799935708E0,-6.375835522E0,6.384851929E0,-6.336629941E0,1.102590095E1
4.809905708E0,-6.142201835E0,6.160543966E0,-5.892162030E0,1.050697477E1
4.819874708E0,-5.815238984E0,5.762118784E0,-5.202042063E0,9.699497871E0
4.829844708E0,-5.462315665E0,5.157985632E0,-4.320184879E0,8.666354805E0
4.839814708E0,-5.059440753E0,4.186533609E0,-3.576081372E0,7.477523813E0
4.849783708E0,-4.438237824E0,2.467623239E0,-3.261948189E0,6.035513683E0
4.859753708E0,-3.427701550E0,1.110491502E-1,-3.338714237E0,4.786280663E0
4.869722708E0,-1.790008128E0,-2.783350080E0,-3.558908392E0,4.859732061E0
4.879692708E0,7.188216090E-2,-6.481435068E0,-3.419338862E0,7.328440887E0
4.889662708E0,2.167693820E0,-1.208124216E1,-1.995736563E0,1.243536381E1
4.899631708E0,5.363494213E0,-1.938625872E1,3.131019675E0,2.035675273E1
4.909601708E0,8.726879314E0,-2.379814899E1,4.710743802E0,2.578180415E1
4.919570708E0,1.081824943E1,-2.407648114E1,1.151470032E0,2.642039644E1
4.929540708E0,1.255226111E1,-2.530390058E1,1.547518394E0,2.828853932E1
4.939510708E0,1.342497325E1,-2.740208036E1,2.687836689E0,3.063214620E1
4.949479708E0,1.312436906E1,-2.837602301E1,3.286750324E0,3.143645134E1
4.959449708E0,1.376753121E1,-2.846387625E1,4.069753603E0,3.187946143E1
4.969418708E0,1.548277684E1,-2.799324556E1,5.640220710E0,3.248307660E1
4.979388708E0,1.700496378E1,-2.377131963E1,8.793729361E0,3.052169894E1
4.989358708E0,1.769751502E1,-1.642835581E1,1.288573016E1,2.737032981E1
4.999327708E0,1.742242691E1,-9.434482455E0,1.622060541E1,2.560582860E1
5.009297708E0,1.696564125E1,-3.200222642E0,1.698432311E1,2.421862175E1
5.019267250E0,1.498520568E1,2.312231144E0,1.488149713E1,2.124527616E1
5.029237250E0,1.237497938E1,4.930083386E0,1.062830146E1,1.704132121E1
5.039207250E0,1.038044500E1,3.940072008E0,6.334103944E0,1.278274926E1
5.049176250E0,8.639556996E0,2.002642710E0,2.258220997E0,9.151616523E0
5.059146250E0,6.865470251E0,1.309562298E0,-1.044669396E0,7.066892481E0
5.069115250E0,5.179242015E0,1.706533862E0,-2.843788070E0,6.150116768E0
5.079085250E0,3.238724803E0,2.456422897E0,-3.901968042E0,5.634599045E0
5.089054250E0,1.175529497E0,3.048045931E0,-4.714813171E0,5.736019250E0
5.099024250E0,-9.244021100E-1,3.796853231E0,-5.258957691E0,6.551889019E0
5.108994250E0,-2.623857332E0,3.896610239E0,-6.161964254E0,7.748419331E0
5.118963250E0,-3.351258561E0,3.031286641E0,-7.387559366E0,8.660003813E0
5.128933250E0,-3.858803312E0,2.674146895E0,-8.372723402E0,9.599162557E0
5.138902250E0,-4.509708341E0,2.987211792E0,-9.274534795E0,1.073675460E1
5.148872250E0,-5.257971851E0,3.286206240E0,-1.015580784E1,1.189898535E1
5.158842250E0,-5.788578020E0,3.343874405E0,-1.091503020E1,1.279949280E1
5.168811250E0,-6.283392212E0,3.430645623E0,-1.138069427E1,1.344509387E1
5.178781250E0,-6.807738937E0,3.680740100E0,-1.142872096E1,1.380249325E1
5.188750250E0,-7.182586976E0,3.996706677E0,-1.126361430E1,1.394389569E1
5.198720250E0,-7.325306985E0,4.194782569E0,-1.096915788E1,1.384119748E1
5.208690250E0,-7.217698336E0,4.366755028E0,-1.055725311E1,1.351367130E1
5.218659250E0,-7.364858721E0,4.564065520E0,-1.007951688E1,1.329167027E1
5.228629250E0,-7.566082461E0,4.692180646E0,-9.268734941E0,1.285191077E1
5.238598250E0,-7.527454585E0,4.768362265E0,-8.350614495E0,1.221198648E1
5.248568250E0,-7.423139673E0,4.804773461E0,-7.479895672E0,1.158178267E1
5.258538250E0,-7.379272107E0,4.747130732E0,-6.748366894E0,1.106929821E1
5.268507250E0,-7.430475006E0,4.672868755E0,-6.036776537E0,1.065318413E1
5.278477250E0,-7.439846923E0,4.497864806E0,-5.352340064E0,1.020929254E1
5.288446250E0,-7.151307296E0,4.012911066E0,-4.746443392E0,9.474881325E0
5.298416250E0,-6.981777218E0,3.324252318E0,-4.005902008E0,8.708795410E0
5.308386250E0,-6.730095515E0,2.419784536E0,-3.186292235E0,7.829559441E0
5.318355250E0,-6.155915895E0,1.096354689E0,-2.628347994E0,6.782735973E0
5.328325250E0,-5.211193541E0,-5.513614458E-1,-2.283074734E0,5.716027274E0
5.338294250E0,-4.062769981E0,-2.462079201E0,-2.152739274E0,5.215574781E0
5.348264250E0,-2.638542030E0,-4.451222152E0,-1.753307494E0,5.463457683E0
5.358234250E0,-1.050155838E0,-6.274262370E0,-8.308811581E-1,6.415571609E0
5.368203250E0,3.310465461E-1,-8.460543319E0,4.431138062E-1,8.478604538E0
5.378173250E0,2.094791905E0,-1.202386811E1,2.658357074E0,1.249113365E1
5.388143250E0,4.366410627E0,-1.604657590E1,4.829903040E0,1.731721984E1
5.398112250E0,7.310212982E0,-1.839252325E1,3.769215782E0,2.014773221E1
5.408082250E0,9.719678645E0,-1.868049161E1,2.720152788E0,2.123280836E1
5.418051250E0,1.199798015E1,-2.015053893E1,2.655026208E0,2.360179889E1
5.428021250E0,1.262995891E1,-2.067750871E1,2.404929392E0,2.434869430E1
5.437991250E0,1.266274659E1,-2.000149574E1,1.368858035E0,2.371241774E1
5.447960250E0,1.292287986E1,-1.957163885E1,3.230879009E-1,2.345536734E1
5.457930250E0,1.250591023E1,-1.911276340E1,-2.257902324E-3,2.284065499E1
5.467899250E0,1.147362173E1,-1.720859306E1,8.508988085E-1,2.070033091E1
5.477869250E0,1.066545817E1,-1.440766099E1,1.956604657E0,1.803222102E1
5.487839250E0,9.616563581E0,-1.142203876E1,2.948181627E0,1.521949538E1
5.497808250E0,7.796872063E0,-8.483797696E0,4.311928026E0,1.230279483E1
5.507778250E0,6.222823829E0,-5.924146299E0,5.755144225E0,1.034121515E1
5.517747250E0,5.326044551E0,-3.644955432E0,7.106474354E0,9.599709808E0
5.527717250E0,5.172355165E0,-1.381850256E0,8.352556940E0,9.921087416E0
5.537687250E0,5.641418220E0,8.357811248E-1,9.204070584E0,1.082769804E1
5.547656250E0,6.511654063E0,2.820616139E0,9.691613764E0,1.201186461E1
5.557626250E0,7.765247397E0,4.496579003E0,9.804221781E0,1.329063786E1
5.567595250E0,8.545593994E0,5.734152721E0,9.625202258E0,1.409085528E1
5.577565250E0,8.501345775E0,6.716390226E0,9.257000749E0,1.425043299E1
5.587535250E0,7.847388498E0,7.563744745E0,8.615088152E0,1.389285733E1
5.597504250E0,6.548686234E0,7.954712972E0,7.610356994E0,1.280938263E1
5.607474250E0,4.869010388E0,7.524399415E0,6.194738483E0,1.089489025E1
5.617443250E0,2.925951975E0,6.553561642E0,4.016620831E0,8.224573427E0
5.627413250E0,7.114014924E-1,5.564815017E0,1.808047665E0,5.894259463E0
5.637383250E0,-1.415060102E0,5.112117149E0,-1.422738665E-1,5.306258446E0
5.647352250E0,-3.422363042E0,5.142605116E0,-1.789496496E0,6.431271561E0
5.657322250E0,-5.051839373E0,5.086529149E0,-3.179548349E0,7.842409549E0
5.667292250E0,-6.120330909E0,4.648137079E0,-4.523391411E0,8.917662171E0
5.677261250E0,-6.758859138E0,4.373583407E0,-5.589450506E0,9.800630879E0
5.687231250E0,-7.105764502E0,4.326234409E0,-6.368068081E0,1.047666380E1
5.697200250E0,-7.246345600E0,4.426319445E0,-6.863849988E0,1.091852852E1
5.707170250E0,-7.398804147E0,4.795516442E0,-7.260692913E0,1.142177492E1
5.717140250E0,-7.458915862E0,5.267568301E0,-7.719946094E0,1.195743573E1
5.727109250E0,-7.385988804E0,5.681380430E0,-7.864164160E0,1.219327651E1
5.737079250E0,-7.320359071E0,6.058776686E0,-7.543947827E0,1.213291312E1
5.747048250E0,-7.520915059E0,6.474989682E0,-7.120934519E0,1.221463725E1
5.757018250E0,-7.681771377E0,6.776415403E0,-6.767492552E0,1.227714839E1
5.766988250E0,-7.699338752E0,6.857512776E0,-6.436460624E0,1.215455980E1
5.776957250E0,-7.759138227E0,6.856871921E0,-5.941269286E0,1.193815728E1
5.786927250E0,-7.827084042E0,6.880391761E0,-5.238136341E0,1.166366614E1
5.796896250E0,-7.868946598E0,6.881012735E0,-4.550936182E0,1.140086299E1
5.806866250E0,-7.906941805E0,6.840212034E0,-3.920346718E0,1.116590112E1
5.816836250E0,-7.843243407E0,6.503141102E0,-3.508308049E0,1.077569194E1
5.826805250E0,-7.675309035E0,5.324716648E0,-3.487506579E0,9.971242565E0
5.836775250E0,-6.937280492E0,2.803449006E0,-3.891374642E0,8.433740780E0
5.846744250E0,-4.850322686E0,-1.885151097E0,-4.251946703E0,6.720005624E0
5.856714250E0,-1.470913875E0,-1.000566187E1,-4.209232500E0,1.095419989E1
5.866684250E0,5.061240526E0,-2.433241143E1,-3.174843972E0,2.505517982E1
5.876653250E0,1.244072313E1,-3.456552531E1,2.032354167E0,3.679235784E1
5.886623250E0,1.736119370E1,-3.671164524E1,5.446379079E0,4.097339366E1
5.896593250E0,1.738926150E1,-3.631688100E1,4.467761001E0,4.051250609E1
5.906562250E0,1.429912380E1,-3.231874439E1,5.931810830E0,3.583507444E1
5.916532250E0,1.337323592E1,-3.044166654E1,6.905994380E0,3.395925881E1
5.926501250E0,1.820910662E1,-3.595551138E1,6.630447850E0,4.084523474E1
5.936471250E0,2.580919357E1,-3.993373705E1,1.004433301E1,4.859739143E1
5.946441250E0,2.766190958E1,-3.001987881E1,1.724311853E1,4.431364916E1
5.956410250E0,2.722547340E1,-1.425911365E1,2.081174207E1,3.711707601E1
5.966380250E0,2.407161391E1,-2.030492413E-1,2.100226307E1,3.194650027E1
5.976350250E0,1.699364591E1,7.467621197E0,1.744027612E1,2.546983704E1
5.986319250E0,1.309616560E1,3.422022150E0,1.079040148E1,1.731047524E1
5.996289250E0,1.045003155E1,-9.281823349E-1,6.650616066E0,1.242156898E1
6.006258250E0,7.813175270E0,-1.127217463E0,2.291116848E0,8.219826240E0
6.016228500E0,6.292094623E0,3.186334920E-1,-1.349737347E0,6.443118264E0
6.026198500E0,4.371007124E0,1.897608590E0,-3.069188878E0,5.668028053E0
6.036167500E0,2.161376488E0,2.826776181E0,-4.420928312E0,5.675105201E0
6.046137500E0,6.609973240E-1,3.687194549E0,-4.461829293E0,5.825825413E0
6.056106500E0,-4.468483132E-1,4.982437016E0,-3.953158076E0,6.375877258E0
6.066076500E0,-6.460261130E-1,4.571750808E0,-4.468299530E0,6.425259207E0
6.076046500E0,-3.207151008E-1,3.387905985E0,-5.454162893E0,6.428736890E0
6.086015500E0,-4.697272986E-1,3.829069635E0,-6.345039992E0,7.425762621E0
6.095985500E0,-9.201833439E-1,4.752011111E0,-7.785117990E0,9.167137454E0
6.105955500E0,-1.309210880E0,5.396411698E0,-9.028899112E0,1.059982601E1
6.115924500E0,-2.020248091E0,5.569809709E0,-1.009389401E1,1.170431027E1
6.125894500E0,-2.693916332E0,5.244253698E0,-1.090428536E1,1.239608088E1
6.135863500E0,-3.117598561E0,4.824383268E0,-1.111312334E1,1.250982035E1
6.145833500E0,-4.001927948E0,4.575013554E0,-1.098533712E1,1.255483206E1
6.155803500E0,-4.992505921E0,4.419609765E0,-1.137186030E1,1.318246079E1
6.165772500E0,-5.257666626E0,4.423406362E0,-1.211689497E1,1.392941944E1
6.175742500E0,-5.246435294E0,4.715108748E0,-1.173339247E1,1.369050155E1
6.185711500E0,-5.825406123E0,5.147370597E0,-1.075393239E1,1.326943264E1
6.195681500E0,-5.977151894E0,5.322630361E0,-9.761342395E0,1.262301644E1
6.205651500E0,-5.977857653E0,5.384567578E0,-8.669992338E0,1.182781118E1
6.215620500E0,-6.174642772E0,5.337525558E0,-7.596097389E0,1.114971246E1
6.225590500E0,-6.490723370E0,5.125096799E0,-6.686693387E0,1.063522334E1
6.235560500E0,-6.804459234E0,4.843829061E0,-5.706736881E0,1.011583863E1
6.245529500E0,-7.076228462E0,4.454801525E0,-4.684695625E0,9.584604268E0
6.255499500E0,-7.152949778E0,3.671617859E0,-3.986296294E0,8.974186669E0
6.265468500E0,-7.031778513E0,2.568542965E0,-3.484625949E0,8.257477825E0
6.275438500E0,-6.796774238E0,1.315740174E0,-3.051945731E0,7.565823485E0
6.285408500E0,-6.518596462E0,-8.114912063E-2,-2.602232867E0,7.019280655E0
6.295377500E0,-6.065975193E0,-1.854722772E0,-2.329791209E0,6.757512758E0
6.305347500E0,-5.313122204E0,-3.916276179E0,-2.449274822E0,7.040272283E0
6.315316500E0,-4.285797404E0,-6.171585848E0,-2.200064152E0,7.829228157E0
6.325286500E0,-3.153123320E0,-8.775624043E0,-1.383549457E0,9.426981124E0
6.335256500E0,-7.098052025E-1,-1.278768054E1,-8.129869241E-1,1.283314243E1
6.345225500E0,3.097290012E0,-1.834375046E1,3.288170028E-1,1.860630288E1
6.355195500E0,6.489491361E0,-2.210792009E1,2.895435941E0,2.322191160E1
6.365165500E0,7.470877512E0,-2.097122137E1,4.312329730E0,2.267602973E1
6.375134500E0,8.731051303E0,-1.958121425E1,2.720452166E0,2.161148001E1
6.385104500E0,1.014316148E1,-2.030181575E1,-1.364857078E-1,2.269506722E1
6.395073500E0,1.065423971E1,-2.099071131E1,-1.061463622E0,2.356373252E1
6.405043500E0,1.145657476E1,-2.146356395E1,7.635966629E-2,2.432988930E1
6.415013500E0,1.173129215E1,-2.103912158E1,1.362417912E0,2.412724673E1
6.424982500E0,1.208112639E1,-1.963778723E1,2.801078545E0,2.322589811E1
6.434952500E0,1.212388591E1,-1.694184659E1,4.380668186E0,2.128861266E1
6.444922500E0,1.164790852E1,-1.278432657E1,6.038300906E0,1.831867508E1
6.454891500E0,1.026661960E1,-8.344998245E0,8.170868747E0,1.555009870E1
6.464861500E0,8.013117301E0,-4.864823197E0,1.010724321E1,1.378524279E1
6.474830500E0,5.970404207E0,-2.386258063E0,1.090190788E1,1.265668003E1
6.484800500E0,4.507202809E0,-1.673297703E-1,1.097964077E1,1.186993630E1
6.494770500E0,4.153915794E0,1.587424909E0,1.051788965E1,1.141932297E1
6.504739500E0,4.829960927E0,2.734385496E0,9.364854981E0,1.088604131E1
6.514709500E0,5.900497820E0,3.714136764E0,7.888493840E0,1.052801128E1
6.524679500E0,6.905283358E0,4.826047386E0,6.747489812E0,1.079362267E1
6.534648500E0,7.143649197E0,5.962671849E0,6.220213632E0,1.119268677E1
6.544618500E0,6.611713371E0,7.148220550E0,5.983724749E0,1.142876951E1
6.554588500E0,5.776959602E0,8.233611710E0,5.629468850E0,1.152634129E1
6.564557500E0,4.577874012E0,8.810763470E0,4.935888501E0,1.108825860E1
6.574527500E0,3.360078501E0,8.654516512E0,3.969564194E0,1.009694129E1
6.584496500E0,2.246421316E0,7.863779413E0,2.662899484E0,8.600957450E0
6.594466500E0,7.761675918E-1,6.950748968E0,1.053463608E0,7.072844755E0
6.604436500E0,-7.267545265E-1,6.309623991E0,-5.767097104E-1,6.377469807E0
6.614405500E0,-2.232471029E0,5.959685676E0,-1.978379104E0,6.664515296E0
6.624375500E0,-3.772522967E0,5.846587662E0,-3.007986656E0,7.580402400E0
6.634345500E0,-5.185770432E0,5.633715683E0,-3.913772986E0,8.599336390E0
6.644314500E0,-6.134532627E0,4.626367310E0,-4.924088235E0,9.125919679E0
6.654284500E0,-6.510627877E0,3.339075302E0,-5.891039364E0,9.393723650E0
6.664253500E0,-6.454005779E0,3.060347303E0,-6.431775835E0,9.611849801E0
6.674223500E0,-6.307514901E0,3.516056195E0,-6.622652927E0,9.798312466E0
6.684193500E0,-6.316323731E0,4.101896917E0,-6.734623014E0,1.010329901E1
6.694162500E0,-6.483141870E0,4.640422263E0,-6.836910696E0,1.050276131E1
6.704132500E0,-6.572699579E0,5.062991767E0,-6.667329748E0,1.064366250E1
6.714102500E0,-6.709846022E0,5.455345200E0,-6.396451635E0,1.075627344E1
6.724071500E0,-7.015638444E0,5.820351205E0,-6.066388591E0,1.094973705E1
6.734041500E0,-7.396650032E0,6.027292353E0,-5.607204992E0,1.106704263E1
6.744010500E0,-7.724428570E0,6.105369054E0,-5.282434262E0,1.117347035E1
6.753980500E0,-7.872663673E0,5.848851703E0,-5.248191798E0,1.112346244E1
6.763950500E0,-7.871500077E0,5.270432267E0,-5.004551185E0,1.071370628E1
6.773919500E0,-7.354697430E0,4.329404769E0,-4.275581149E0,9.545465630E0
6.783889500E0,-6.416691772E0,2.387175784E0,-3.826783959E0,7.843265710E0
6.793859500E0,-4.968466848E0,-1.240276009E0,-4.133090351E0,6.580758562E0
6.803828500E0,-2.608405480E0,-7.293932580E0,-4.260079011E0,8.840447093E0
6.813798500E0,1.817743226E0,-1.788295010E1,-3.245673634E0,1.826577379E1
6.823767500E0,8.472821302E0,-2.990012082E1,-2.557279766E-1,3.107847040E1
6.833737500E0,1.430904653E1,-3.690133126E1,3.597008264E-1,3.958012690E1
6.843707500E0,1.572487378E1,-3.890132927E1,8.256268501E-2,4.195940766E1
6.853676500E0,1.390146636E1,-3.596598257E1,1.670581087E0,3.859525244E1
6.863646500E0,1.125010490E1,-3.158471066E1,4.213650949E0,3.379221304E1
6.873616500E0,1.159642262E1,-3.180452621E1,5.075636955E0,3.423108230E1
6.883585500E0,1.876381560E1,-3.706967727E1,7.042542068E0,4.214070654E1
6.893555500E0,2.510138811E1,-3.696547053E1,1.277223219E1,4.647209498E1
6.903525500E0,2.594861692E1,-2.323122635E1,2.123150667E1,4.078967361E1
6.913494500E0,2.778450698E1,-7.467963844E0,2.577072824E1,3.862485917E1
6.923464500E0,2.443789052E1,5.164098896E0,2.328337884E1,3.414665636E1
6.933433500E0,1.875123005E1,9.288511394E0,1.615130654E1,2.643387553E1
6.943403500E0,1.553595376E1,3.897215425E0,1.085778713E1,1.935059918E1
6.953373500E0,1.252224384E1,1.314810759E-1,5.029960846E0,1.349534676E1
6.963342500E0,9.401691855E0,2.514478147E-2,7.484015036E-1,9.431465782E0
6.973312500E0,6.521622396E0,4.334324616E-1,-1.046285566E0,6.619224718E0
6.983282500E0,4.170848161E0,-3.377117872E-2,-2.578028610E0,4.903401512E0
6.993251500E0,2.252725199E0,-1.156321979E-1,-4.174544771E0,4.744993748E0
7.003221500E0,1.285463583E-1,7.026265758E-1,-5.414114728E0,5.461029808E0
7.013191500E0,-1.234963521E0,1.423880042E0,-5.966726893E0,6.257347608E0
7.023160458E0,-2.182690759E0,2.371052379E0,-6.449166623E0,7.209561600E0
7.033130458E0,-3.341509498E0,3.580140216E0,-7.109248273E0,8.632757422E0
7.043099458E0,-4.590951895E0,4.797404508E0,-7.869852916E0,1.029691771E1
7.053069458E0,-6.023215089E0,5.880630151E0,-8.791807966E0,1.217196855E1
7.063039458E0,-7.108708575E0,6.334770527E0,-1.044143731E1,1.413105333E1
7.073008458E0,-7.484263542E0,6.097030925E0,-1.096622842E1,1.460979646E1
7.082978458E0,-7.401804938E0,5.883448509E0,-1.023065805E1,1.393083080E1
7.092948458E0,-7.250631024E0,6.053370935E0,-9.747117289E0,1.357281273E1
7.102917458E0,-7.037836813E0,6.137315902E0,-9.595146400E0,1.338897412E1
7.112887458E0,-6.486753695E0,5.993600112E0,-9.570752985E0,1.302307677E1
7.122857458E0,-6.398940210E0,5.646657325E0,-9.069151930E0,1.245313982E1
7.132826458E0,-6.272940899E0,5.572315825E0,-8.353693054E0,1.183996110E1
7.142796458E0,-6.398356658E0,5.647623870E0,-7.576982256E0,1.141250557E1
7.152765458E0,-6.462849693E0,5.690105646E0,-7.168505711E0,1.120416005E1
7.162735458E0,-6.343872303E0,5.798882568E0,-6.540494869E0,1.080045499E1
7.172705458E0,-6.361763613E0,5.905943332E0,-5.911749617E0,1.050242765E1
7.182674458E0,-6.480622305E0,5.873050990E0,-5.590360333E0,1.037994807E1
7.192644458E0,-6.632335331E0,5.744640872E0,-5.377815213E0,1.029124226E1
7.202614458E0,-6.734200260E0,5.550764158E0,-5.049650175E0,1.008262876E1
7.212583458E0,-6.844061841E0,5.238381924E0,-4.745299092E0,9.838683405E0
7.222553458E0,-7.204718102E0,4.852012239E0,-4.774504472E0,9.911905905E0
7.232523458E0,-7.393458622E0,4.356839905E0,-4.915603341E0,9.889814991E0
7.242492458E0,-7.437450149E0,3.777784876E0,-5.079369233E0,9.766642980E0
7.252462458E0,-7.202552294E0,2.833400199E0,-5.461066700E0,9.472495222E0
7.262431458E0,-6.448698261E0,1.418123750E0,-5.773582835E0,8.771034317E0
7.272401458E0,-5.741125526E0,-8.757243320E-1,-6.666001260E0,8.840983441E0
7.282371458E0,-3.937447193E0,-5.070071576E0,-7.463755603E0,9.844631221E0
7.292340458E0,-2.549070275E-1,-1.122561091E1,-6.690900459E0,1.307086328E1
7.302310458E0,4.059257559E0,-1.941124037E1,-3.539963121E0,2.014460631E1
7.312280458E0,8.947348580E0,-2.849684285E1,4.163584457E-1,2.987136511E1
7.322249458E0,1.374885169E1,-3.351928301E1,5.096484326E-1,3.623303738E1
7.332219458E0,1.882015469E1,-3.637346100E1,1.022782902E-1,4.095408830E1
7.342189458E0,1.937983146E1,-3.613089978E1,1.183304540E0,4.101731337E1
7.352158458E0,1.594982670E1,-3.434939818E1,-2.709857011E-1,3.787283407E1
7.362128458E0,1.418929087E1,-3.525439748E1,-3.228120585E-1,3.800411458E1
7.372098458E0,1.752648864E1,-3.856735970E1,3.895567095E0,4.254167934E1
7.382067458E0,1.864705138E1,-3.675895623E1,1.019001288E1,4.245903615E1
7.392037458E0,1.697935999E1,-2.628684092E1,1.676053847E1,3.549946931E1
7.402006458E0,1.568828425E1,-1.470252906E1,2.352514951E1,3.187035116E1
7.411976458E0,1.347202696E1,-4.409157282E0,2.601720008E1,2.962821085E1
7.421946458E0,1.038941697E1,1.421449354E0,2.148523373E1,2.390765090E1
7.431915458E0,9.546136792E0,1.123309184E0,1.570041371E1,1.840906141E1
7.441885458E0,1.012178406E1,9.030048090E-1,1.139137012E1,1.526529539E1
7.451855458E0,1.136298539E1,2.537901508E0,6.659110901E0,1.341276031E1
7.461824458E0,1.229577533E1,4.366706496E0,2.806626091E0,1.334658633E1
7.471794458E0,1.155637387E1,6.566479311E0,1.279934456E0,1.335315168E1
7.481764458E0,9.818706504E0,8.496942821E0,5.370866382E-1,1.299590308E1
7.491733458E0,7.230307272E0,9.291349048E0,-3.617428203E-1,1.177868279E1
7.501703458E0,4.151410847E0,1.018892530E1,-1.022440328E0,1.104960610E1
7.511673458E0,1.600985772E0,1.055780275E1,-1.633828705E0,1.080276588E1
7.521642458E0,4.013522977E-1,8.616008504E0,-2.683421164E0,9.033129876E0
7.531612458E0,-1.226424247E-1,6.314944373E0,-3.617003695E0,7.278480564E0
7.541582458E0,-1.040127279E0,5.439351895E0,-4.013102269E0,6.839108394E0
7.551551458E0,-2.272904525E0,4.923176070E0,-4.240765657E0,6.883883421E0
7.561521458E0,-3.535375687E0,4.456241986E0,-4.622044756E0,7.329411410E0
7.571490458E0,-4.811346316E0,4.011202801E0,-5.300762944E0,8.205905744E0
7.581460458E0,-5.860979998E0,3.692509668E0,-6.178836980E0,9.282442599E0
7.591430458E0,-6.577723507E0,3.545213335E0,-6.636741793E0,9.994064526E0
7.601399458E0,-7.315776023E0,3.674646424E0,-7.022564471E0,1.078610295E1
7.611369458E0,-7.808834882E0,3.997700411E0,-7.451326761E0,1.151007304E1
7.621339458E0,-8.230446612E0,4.421887840E0,-7.637712607E0,1.206764258E1
7.631308458E0,-8.903506157E0,4.839624621E0,-7.940213631E0,1.287405845E1
7.641278458E0,-8.970414092E0,5.043042821E0,-7.792988927E0,1.290857414E1
7.651248458E0,-8.639041271E0,5.352797316E0,-6.876089965E0,1.227053733E1
7.661217458E0,-8.613702947E0,5.814805121E0,-6.029117854E0,1.201491153E1
7.671187458E0,-8.631591918E0,6.012062695E0,-5.458023809E0,1.185070887E1
7.681157458E0,-8.519118387E0,5.866627239E0,-4.965991137E0,1.147404729E1
7.691126458E0,-8.409734523E0,5.644165242E0,-4.328294383E0,1.101428020E1
7.701096458E0,-8.392825545E0,5.326879533E0,-3.477238576E0,1.053120859E1
7.711066458E0,-8.504122617E0,4.860755873E0,-2.696140612E0,1.015953854E1
7.721035458E0,-8.437317009E0,4.040123422E0,-2.238594233E0,9.618847110E0
7.731005458E0,-8.122247980E0,2.605956374E0,-1.983801958E0,8.757704669E0
7.740974458E0,-7.366964888E0,3.609348813E-1,-1.946607673E0,7.628350220E0
7.750944458E0,-5.882077922E0,-3.063252785E0,-2.636789035E0,7.136877098E0
7.760914458E0,-3.724649473E0,-7.779890580E0,-3.509035735E0,9.311983834E0
7.770883458E0,-1.597128364E0,-1.350175889E1,-3.705795711E0,1.409188539E1
7.780853458E0,1.020232712E0,-1.935549886E1,-2.178245267E0,1.950438318E1
7.790823458E0,5.272229701E0,-2.628576269E1,3.373796654E-1,2.681140711E1
7.800792458E0,9.031196483E0,-3.033741770E1,1.879360015E0,3.170888546E1
7.810762458E0,1.223682488E1,-3.011351612E1,9.928320748E-1,3.251998542E1
7.820732458E0,1.510661844E1,-3.032202081E1,1.246878977E0,3.389969873E1
7.830701458E0,1.581442038E1,-3.086718012E1,3.409165292E0,3.484969309E1
7.840671458E0,1.673922888E1,-3.248083856E1,3.853905976E0,3.674315240E1
7.850641458E0,2.056415459E1,-3.538374257E1,3.140954679E0,4.104581938E1
7.860610458E0,2.606145648E1,-3.652520326E1,5.335267364E0,4.518578388E1
7.870580458E0,2.693939954E1,-3.005857334E1,1.096948181E1,4.182796446E1
7.880550458E0,2.490553913E1,-1.742712339E1,1.630424983E1,3.449375410E1
7.890519458E0,2.418653743E1,-5.632516419E0,2.036643684E1,3.211706063E1
7.900489458E0,1.863874249E1,4.245294326E0,1.880180145E1,2.681292568E1
7.910459458E0,1.336158008E1,7.545236553E0,1.378540732E1,2.062764823E1
7.920428458E0,1.165684072E1,4.591316761E0,1.004318111E1,1.605701131E1
7.930398458E0,1.027552257E1,2.891872063E0,5.764331371E0,1.213164474E1
7.940367458E0,8.635734671E0,4.056404117E0,2.111346688E0,9.771801907E0
7.950337458E0,6.796947316E0,5.756626495E0,5.633921285E-1,8.924945496E0
7.960307458E0,4.767177034E0,6.810808725E0,-2.909299690E-1,8.318517453E0
7.970276458E0,2.641926983E0,7.382182267E0,-5.438403916E-1,7.859526422E0
7.980246458E0,2.340932786E-1,7.934616092E0,-2.489738578E-1,7.941972058E0
7.990216458E0,-1.281328433E0,8.134737632E0,1.895433426E-2,8.235054230E0
8.000185458E0,-1.526778173E0,7.666011377E0,-6.178168058E-2,7.816815144E0
8.010155458E0,-1.892719733E0,7.909885878E0,-6.426312196E-1,8.158532802E0
8.020125083E0,-2.943797092E0,7.669009244E0,-1.292687234E0,8.315689051E0
8.030094083E0,-4.135291243E0,6.740965489E0,-1.634883835E0,8.075524412E0
8.040064083E0,-5.195721223E0,5.929034572E0,-2.360998384E0,8.229415736E0
8.050034083E0,-6.205768086E0,5.693951944E0,-3.371014549E0,9.071735521E0
8.060003083E0,-7.125718710E0,5.823269550E0,-4.308294566E0,1.016108938E1
8.069973083E0,-7.674056561E0,5.836503553E0,-5.078505599E0,1.089711599E1
8.079943083E0,-7.671687269E0,5.213515470E0,-5.905814109E0,1.099609792E1
8.089912083E0,-7.338769614E0,4.472967069E0,-7.031306058E0,1.110424418E1
8.099882083E0,-6.527854359E0,4.145414527E0,-8.106331859E0,1.120312279E1
8.109852083E0,-5.548950351E0,4.142278665E0,-8.366459280E0,1.086033901E1
8.119821083E0,-4.975053152E0,4.498332291E0,-8.571079668E0,1.088345322E1
8.129791083E0,-4.883019732E0,5.052443390E0,-8.747765568E0,1.122027042E1
8.139761083E0,-4.943278797E0,5.557269185E0,-8.912589222E0,1.160833721E1
8.149730083E0,-5.150053300E0,5.782085856E0,-9.035822800E0,1.189964955E1
8.159700083E0,-5.373833259E0,5.734861404E0,-8.861890354E0,1.184482249E1
8.169670083E0,-5.282574595E0,5.596958331E0,-8.639974487E0,1.157068261E1
8.179639083E0,-5.438431544E0,5.420327979E0,-8.614677093E0,1.153989404E1
8.189609083E0,-5.607678616E0,5.217131388E0,-8.066720481E0,1.112369088E1
8.199579083E0,-5.708673479E0,4.792156339E0,-7.001149043E0,1.022593777E1
8.209548083E0,-5.677192655E0,3.949718744E0,-6.067105460E0,9.200030612E0
8.219518083E0,-4.876456817E0,2.154042033E0,-5.240611467E0,7.475542570E0
8.229488083E0,-3.660262274E0,-7.014027536E-1,-4.303159249E0,5.692685241E0
8.239457083E0,-2.407396917E0,-4.409269256E0,-3.627832446E0,6.196642926E0
8.249427083E0,-1.703060031E-2,-9.966546335E0,-2.995672713E0,1.040703564E1
8.259397083E0,4.063572219E0,-1.910723427E1,-4.411797300E-1,1.953954094E1
8.269366083E0,9.761635340E0,-3.020644007E1,4.307943149E0,3.203555713E1
8.279336083E0,1.316549253E1,-3.466664472E1,7.493726091E0,3.783202850E1
8.289305083E0,1.401607179E1,-3.204750375E1,6.806946055E0,3.563463595E1
8.299275083E0,1.432312896E1,-2.992586962E1,1.810295919E0,3.322629782E1
8.309245083E0,1.440592671E1,-2.692725137E1,-1.908094694E0,3.059817667E1
8.319214083E0,1.557117738E1,-2.334400511E1,-8.531993955E-2,2.806085207E1
8.329184083E0,1.607482146E1,-2.017344598E1,3.198949995E0,2.599232749E1
8.339154083E0,1.638426312E1,-1.644897192E1,2.712455513E0,2.337456246E1
8.349123083E0,1.712936914E1,-1.191520112E1,3.186919057E0,2.110790747E1
8.359093083E0,1.678871269E1,-7.373760522E0,4.389693655E0,1.885477734E1
8.369063083E0,1.505645985E1,-3.787588903E0,5.386313556E0,1.643335592E1
8.379032083E0,1.315491375E1,-9.443387765E-1,5.608853906E0,1.433187962E1
8.389002083E0,1.097088748E1,1.239444242E0,5.081980015E0,1.215413983E1
8.398972083E0,9.289208967E0,2.751848790E0,4.204582210E0,1.056127770E1
8.408941083E0,8.069169880E0,3.631581096E0,3.281940404E0,9.437744255E0
8.418911083E0,6.998870968E0,4.322686903E0,2.638291769E0,8.638888838E0
8.428881083E0,6.343760036E0,4.709215924E0,2.220840333E0,8.206834822E0
8.438850083E0,5.897232150E0,4.769359800E0,1.791372868E0,7.793148060E0
8.448820083E0,5.349912885E0,4.797827554E0,1.516053649E0,7.344326775E0
8.458790083E0,4.488949556E0,4.991920615E0,1.182410793E0,6.816746645E0
8.468759083E0,3.469077033E0,5.224347437E0,4.033461982E-1,6.284185688E0
8.478729083E0,2.235574147E0,5.590209475E0,-9.001504907E-1,6.087569683E0
8.488699083E0,4.710399985E-1,6.290215328E0,-2.614956993E0,6.828373718E0
8.498668083E0,-1.055068669E0,6.993003287E0,-5.352913091E0,8.869551479E0
8.508638083E0,-2.442115345E0,7.948420783E0,-7.626985890E0,1.128327231E1
8.518608083E0,-3.601264452E0,8.780498282E0,-8.630939954E0,1.282807001E1
8.528577083E0,-4.431113577E0,8.959209073E0,-8.961812838E0,1.342446588E1
8.538547083E0,-5.067787653E0,8.393690933E0,-8.897236773E0,1.323999023E1
8.548517083E0,-5.669303591E0,7.312557716E0,-8.704811922E0,1.270386769E1
8.558486083E0,-6.306069469E0,6.021601258E0,-9.152155495E0,1.264073353E1
8.568456083E0,-6.598947145E0,4.963209032E0,-9.912612787E0,1.290114102E1
8.578426083E0,-6.113802493E0,4.842239496E0,-9.335546397E0,1.216463278E1
8.588395083E0,-5.914221236E0,5.711406468E0,-8.005285540E0,1.147531147E1
8.598365083E0,-6.012048662E0,6.362341318E0,-7.189991890E0,1.132784620E1
8.608335083E0,-6.076965035E0,6.399832495E0,-6.817875670E0,1.115216520E1
8.618304083E0,-6.141613605E0,6.315841920E0,-6.552477568E0,1.097926405E1
8.628274083E0,-6.361517445E0,6.411287776E0,-6.118531137E0,1.090916763E1
8.638244083E0,-6.583113470E0,6.573032870E0,-5.558466110E0,1.083691329E1
8.648213083E0,-6.703250363E0,6.521521824E0,-5.165245535E0,1.068379959E1
8.658183083E0,-7.020428483E0,6.246496282E0,-4.933482957E0,1.061340595E1
8.668153083E0,-7.274494681E0,5.833527321E0,-4.464792662E0,1.033840836E1
8.678122083E0,-7.250269666E0,5.017230288E0,-4.331940414E0,9.823681476E0
8.688092083E0,-6.793055409E0,3.726251903E0,-5.047546932E0,9.247068998E0
8.698062083E0,-5.658189788E0,2.121607528E0,-5.473071034E0,8.152964904E0
8.708031083E0,-4.232419927E0,6.792710423E-3,-5.725725714E0,7.120207829E0
8.718001083E0,-2.582761347E0,-2.753136932E0,-5.609831561E0,6.761703135E0
8.727971083E0,-1.075483053E0,-6.114293075E0,-4.781617610E0,7.836141306E0
8.737940083E0,9.878496623E-1,-1.184509066E1,-2.833224490E0,1.221921359E1
8.747910083E0,4.970016360E0,-2.093011778E1,2.968017429E-1,2.151415776E1
8.757880083E0,9.218241895E0,-2.830284627E1,1.606477038E0,2.980952632E1
8.767849083E0,1.232774089E1,-3.199168623E1,1.100878680E0,3.430237772E1
8.777819083E0,1.476426045E1,-3.390475953E1,-5.151396990E-2,3.697997782E1
8.787789083E0,1.540656306E1,-3.293011055E1,-1.285223848E0,3.637864987E1
8.797758083E0,1.416365434E1,-2.912737151E1,2.711505926E-1,3.238960324E1
8.807728083E0,1.360227252E1,-2.659970438E1,2.521300971E0,2.998204545E1
8.817698083E0,1.297774311E1,-2.464205658E1,3.983326201E0,2.813395913E1
8.827667083E0,1.180623825E1,-2.070303064E1,7.344056082E0,2.493868279E1
8.837637083E0,1.054764380E1,-1.590042708E1,1.143290523E1,2.224382370E1
8.847607083E0,9.097202193E0,-1.129207387E1,1.479577695E1,2.071678149E1
8.857576083E0,7.500863788E0,-6.571582176E0,1.709127336E1,1.978788202E1
8.867546083E0,6.556981679E0,-2.114502284E0,1.745653021E1,1.876687442E1
8.877516083E0,6.205195059E0,9.842243886E-1,1.539626962E1,1.662883825E1
8.887485083E0,6.493343507E0,2.106548316E0,1.266989773E1,1.439192010E1
8.897455083E0,7.123790883E0,2.441577401E0,1.006230736E1,1.256820298E1
8.907425083E0,7.704114173E0,2.903171808E0,7.588843918E0,1.119697878E1
8.917394083E0,8.281247222E0,3.812861153E0,5.402222661E0,1.059721546E1
8.927364083E0,8.217559934E0,5.068202806E0,3.536266218E0,1.028203043E1
8.937334083E0,7.581874622E0,6.275107877E0,2.232283772E0,1.009182305E1
8.947303083E0,5.977409756E0,6.729150020E0,1.556894550E0,9.134265598E0
8.957273083E0,3.847184309E0,6.963305279E0,1.191316102E0,8.044108501E0
8.967243083E0,1.540514452E0,7.522931179E0,3.593339136E-1,7.687444255E0
8.977212083E0,-9.304650879E-1,8.358731015E0,-1.181980146E0,8.493010452E0
8.987182083E0,-2.541365399E0,8.965907058E0,-2.723818115E0,9.709027376E0
8.997152083E0,-3.899129219E0,8.942167947E0,-3.614644636E0,1.040342406E1
9.007121083E0,-5.150361448E0,8.517187051E0,-4.184062868E0,1.079699404E1
9.017091458E0,-5.877063349E0,7.299161745E0,-4.947721512E0,1.059705544E1
9.027061458E0,-5.866624315E0,5.511432277E0,-5.980011767E0,1.002764715E1
9.037030458E0,-5.343142394E0,4.360555226E0,-6.950958298E0,9.791804419E0
9.047000458E0,-4.693324946E0,4.323496158E0,-7.168116286E0,9.596968749E0
9.056970458E0,-4.335283560E0,4.983043957E0,-7.024509839E0,9.642051084E0
9.066939458E0,-4.185810601E0,5.693130410E0,-7.247068316E0,1.012189426E1
9.076909458E0,-4.312336746E0,6.335794959E0,-7.399434476E0,1.065317683E1
9.086879458E0,-4.402510167E0,6.714041399E0,-7.396019118E0,1.091611407E1
9.096848458E0,-4.600134947E0,6.785010225E0,-7.471893758E0,1.109174475E1
9.106818458E0,-5.142294629E0,6.837895367E0,-7.262679212E0,1.122258956E1
9.116788458E0,-5.458458842E0,6.860702432E0,-6.847764298E0,1.112456231E1
9.126757458E0,-5.682766221E0,6.947905467E0,-6.401037022E0,1.102454068E1
9.136727458E0,-5.855076064E0,6.937715524E0,-6.331779091E0,1.106820848E1
9.146697458E0,-5.875408587E0,6.626732529E0,-6.823127639E0,1.117985156E1
9.156666458E0,-5.164088371E0,5.823059635E0,-6.679593113E0,1.025635395E1
9.166636458E0,-3.914157148E0,4.201560369E0,-6.616698707E0,8.760960992E0
9.176606458E0,-2.567158636E0,1.495434174E0,-6.750643800E0,7.375487682E0
9.186575458E0,-9.760534894E-1,-2.246284199E0,-6.228463469E0,6.692699776E0
9.196545458E0,1.376638048E0,-7.660885708E0,-5.174971209E0,9.346904790E0
9.206515458E0,4.971015649E0,-1.667849385E1,-3.128472628E0,1.768249119E1
9.216484458E0,9.130155346E0,-2.796792945E1,7.250540100E-2,2.942057225E1
9.226454458E0,1.454042670E1,-3.731535856E1,1.595521549E0,4.007999105E1
9.236424458E0,1.872359845E1,-4.104549389E1,1.887961854E0,4.515384931E1
9.246393458E0,1.742722747E1,-3.646414430E1,2.007170063E0,4.046443881E1
9.256363458E0,1.299249564E1,-2.782990944E1,4.181647968E-1,3.071617919E1
9.266333458E0,9.516709510E0,-2.254830431E1,-1.180707207E0,2.450281324E1
9.276303458E0,8.329819458E0,-2.269389998E1,-1.919654055E-1,2.417510784E1
9.286272458E0,7.537223529E0,-2.309708889E1,1.962612233E0,2.437492770E1
9.296242458E0,6.903181869E0,-2.152060470E1,5.201457342E0,2.319149640E1
9.306212458E0,5.892135133E0,-1.699703261E1,1.003436468E1,2.059866133E1
9.316181458E0,4.694379784E0,-1.076659980E1,1.421864039E1,1.844252172E1
9.326151458E0,3.855965658E0,-5.199569276E0,1.686153742E1,1.806143505E1
9.336121458E0,3.041775377E0,-4.575779539E-1,1.732097772E1,1.759198807E1
9.346090458E0,3.183455166E0,2.275664411E0,1.511381636E1,1.561219012E1
9.356060458E0,3.978238539E0,2.786502314E0,1.238339118E1,1.330185529E1
9.366030458E0,4.616239933E0,2.811276382E0,1.049453120E1,1.180458094E1
9.375999458E0,5.383018650E0,2.742406121E0,7.824662125E0,9.885495359E0
9.385969458E0,6.211618225E0,3.493223695E0,5.381880198E0,8.930366578E0
9.395939458E0,6.919730074E0,5.334266320E0,3.106400558E0,9.272906012E0
9.405908458E0,6.679721752E0,6.704858932E0,1.318643024E0,9.555764512E0
9.415878458E0,5.415834394E0,7.215479318E0,4.945759186E-1,9.035430776E0
9.425848458E0,3.343070120E0,7.595606223E0,-4.071343169E-1,8.308736972E0
9.435817458E0,1.342293842E0,7.318152916E0,-1.305223372E0,7.553854838E0
9.445787458E0,-1.119741797E-3,7.286162800E0,-2.598828326E0,7.735766172E0
9.455757458E0,-1.155729071E0,7.603516336E0,-3.945328070E0,8.643771396E0
9.465726458E0,-1.937050983E0,7.892172323E0,-5.007830304E0,9.545518050E0
9.475696458E0,-2.764850074E0,7.764699513E0,-5.813264380E0,1.008607938E1
9.485666458E0,-3.528263719E0,7.551345139E0,-6.456598434E0,1.054320263E1
9.495635458E0,-4.307122784E0,7.402211319E0,-7.034459462E0,1.108276405E1
9.505605458E0,-5.424937924E0,7.247574685E0,-8.385031207E0,1.233961258E1
9.515575458E0,-5.959583350E0,7.051667817E0,-1.001875028E1,1.362417006E1
9.525544458E0,-5.656833819E0,7.294043677E0,-9.689002397E0,1.338206298E1
9.535514458E0,-5.673783143E0,7.822933103E0,-8.081343198E0,1.259754759E1
9.545484458E0,-5.966837990E0,8.374379334E0,-6.921741516E0,1.239531728E1
9.555453458E0,-6.212023437E0,8.698948919E0,-6.558339402E0,1.254084380E1
9.565423458E0,-6.300460820E0,8.698762393E0,-6.149518456E0,1.237662518E1
9.575393458E0,-6.425232800E0,8.628647845E0,-5.300813815E0,1.199315669E1
9.585362458E0,-6.519325610E0,8.506006590E0,-4.203823826E0,1.151198894E1
9.595332458E0,-6.736603466E0,8.225349594E0,-3.203090409E0,1.110396282E1
9.605302458E0,-7.132699116E0,7.707841773E0,-2.544883376E0,1.080567688E1
9.615271458E0,-7.071373519E0,6.909674617E0,-2.084393216E0,1.010408936E1
9.625241458E0,-6.694145663E0,5.750757644E0,-1.996384727E0,9.048113153E0
9.635211458E0,-6.055038561E0,3.960483468E0,-1.264956813E0,7.345000818E0
9.645181458E0,-5.219429929E0,1.448729831E0,-1.134733035E0,5.534336994E0
9.655150458E0,-3.474122595E0,-2.504753058E0,-1.259682186E0,4.464315726E0
9.665120458E0,-7.532172704E-1,-8.889745320E0,-1.014651545E0,8.979110528E0
9.675090458E0,3.026660324E0,-1.763056790E1,-3.597347403E-1,1.789209341E1
9.685059458E0,7.493146048E0,-2.518106227E1,2.216936731E0,2.636565841E1
9.695029458E0,1.039094076E1,-2.917912404E1,3.883303145E0,3.121654967E1
9.704999458E0,1.144671051E1,-2.950843221E1,3.165998304E0,3.180877706E1
9.714968458E0,1.310458793E1,-2.845495340E1,2.637997069E0,3.143841005E1
9.724938458E0,1.453538640E1,-2.684991142E1,2.915351265E0,3.067074296E1
9.734908458E0,1.710371389E1,-2.506202232E1,3.161404731E0,3.050633494E1
9.744877458E0,2.046193824E1,-2.316457043E1,2.415578634E0,3.100198800E1
9.754847458E0,2.225665923E1,-1.937025723E1,2.061160182E0,2.957725691E1
9.764817458E0,2.160464323E1,-1.501969958E1,3.268982974E0,2.651486817E1
9.774786458E0,1.908046572E1,-1.071028410E1,4.706162800E0,2.238129410E1
9.784756458E0,1.585609349E1,-6.119732739E0,5.836997058E0,1.797045810E1
9.794726458E0,1.311790672E1,-1.987757453E0,6.612288737E0,1.482406890E1
9.804695458E0,1.083339138E1,8.579818332E-1,6.646311346E0,1.273860103E1
9.814665458E0,8.785705812E0,2.536485313E0,5.740717975E0,1.079713977E1
9.824635458E0,7.103178279E0,3.704115806E0,4.417531664E0,9.148234888E0
9.834604458E0,5.766731653E0,4.597706598E0,2.904153555E0,7.926424653E0
9.844574458E0,4.730459443E0,5.176197955E0,1.396681134E0,7.149894405E0
9.854544458E0,4.001403453E0,5.544764330E0,-1.031350900E-1,6.838587421E0
9.864513458E0,3.263215865E0,5.767826251E0,-1.830553598E0,6.875123557E0
9.874483458E0,2.205163363E0,6.087594688E0,-3.445479132E0,7.334363026E0
9.884453458E0,9.669487900E-1,6.598618532E0,-4.499111725E0,8.044797251E0
9.894423458E0,-4.156639427E-1,7.156535876E0,-4.907954013E0,8.687738190E0
9.904392458E0,-1.900165578E0,7.576265388E0,-5.265621178E0,9.420042083E0
9.914362458E0,-2.870627959E0,7.357069645E0,-5.904306697E0,9.860416635E0
9.924332458E0,-3.302355373E0,6.490951996E0,-6.703478404E0,9.898213553E0
9.934301458E0,-3.925348134E0,5.954624326E0,-6.979222569E0,9.978750248E0
9.944271458E0,-4.528752723E0,6.013753710E0,-6.797526190E0,1.014303688E1
9.954241458E0,-4.969717568E0,6.001287446E0,-6.865120003E0,1.038476848E1
9.964210458E0,-5.368887100E0,5.826207776E0,-7.198955086E0,1.070488674E1
9.974180458E0,-5.662745939E0,5.614214634E0,-7.356969073E0,1.084947425E1
9.984150458E0,-5.959060609E0,5.443297012E0,-7.383844045E0,1.093896881E1
9.994119458E0,-6.284194450E0,5.334103768E0,-7.523670852E0,1.116016962E1
1.000408946E1,-6.513554993E0,5.344924625E0,-7.894790121E0,1.154652887E1
1.001405946E1,-6.608181653E0,5.400019430E0,-7.808554215E0,1.156727252E1
1.002402871E1,-6.733627233E0,5.313778262E0,-7.276586230E0,1.124840799E1
1.003399871E1,-7.027705343E0,5.195335892E0,-6.794417810E0,1.106997158E1
1.004396871E1,-7.226357478E0,4.963694935E0,-6.507487337E0,1.091814550E1
1.005393771E1,-7.207082132E0,4.684301523E0,-6.023792794E0,1.049622757E1
1.006390771E1,-7.220507923E0,4.426699221E0,-5.248572451E0,9.963880441E0
1.007387771E1,-7.147946316E0,4.060477288E0,-4.438520830E0,9.342434345E0
1.008384771E1,-7.123600264E0,3.397165636E0,-3.813414008E0,8.765189187E0
1.009381671E1,-7.198525901E0,2.387036328E0,-3.314530445E0,8.276643622E0
1.010378671E1,-6.983018582E0,1.181830749E0,-2.768964175E0,7.604369470E0
1.011375671E1,-6.482809163E0,-4.040244752E-1,-2.434168979E0,6.936514185E0
1.012372571E1,-5.904188583E0,-2.338601063E0,-2.151773314E0,6.705119398E0
1.013369571E1,-4.991759232E0,-4.480105058E0,-1.637576624E0,6.904394163E0
1.014366571E1,-3.666221756E0,-7.023113524E0,-1.125487272E0,8.002001446E0
1.015363471E1,-2.174970680E0,-1.041650244E1,-7.400611082E-1,1.066685104E1
1.016360471E1,-2.281928533E-1,-1.513558554E1,1.829067163E-1,1.513841064E1
1.017357471E1,2.945316784E0,-2.089335517E1,1.479888182E0,2.115176707E1
1.018354371E1,6.188701233E0,-2.469381145E1,2.539442250E0,2.558384479E1
1.019351371E1,7.429417244E0,-2.429457293E1,3.218066590E0,2.560817188E1
1.020348371E1,8.334062782E0,-2.256912508E1,2.527412188E0,2.419111038E1
1.021345271E1,9.378516415E0,-2.128024204E1,1.092961257E0,2.328088993E1
1.022342271E1,1.027997931E1,-2.082478136E1,3.484598467E-1,2.322651325E1
1.023339271E1,1.073843260E1,-2.081638008E1,7.069473758E-1,2.343363798E1
1.024336171E1,1.112657311E1,-2.081887801E1,9.317289636E-1,2.362402230E1
1.025333171E1,1.152360022E1,-2.038459127E1,7.278157961E-1,2.342764690E1
1.026330171E1,1.137100310E1,-1.889331622E1,1.543758488E0,2.210520979E1
1.027327171E1,1.054550605E1,-1.653771862E1,2.958266028E0,1.983570450E1
1.028324071E1,9.471252671E0,-1.393652276E1,3.877343663E0,1.729060692E1
1.029321071E1,8.260014812E0,-1.133464745E1,4.612412345E0,1.476402469E1
1.030318071E1,6.770293953E0,-8.408807740E0,5.475792328E0,1.210492583E1
1.031314971E1,5.634837763E0,-5.476271215E0,6.513591245E0,1.020626347E1
1.032311971E1,5.065083901E0,-2.958608674E0,7.334224573E0,9.391447721E0
1.033308971E1,4.983302404E0,-7.958645225E-1,7.762909681E0,9.259021001E0
1.034305871E1,5.302228841E0,1.156665210E0,7.959781923E0,9.633775654E0
1.035302871E1,6.037122107E0,2.812041197E0,7.943851769E0,1.036625294E1
1.036299871E1,7.016062952E0,4.336126143E0,7.690857950E0,1.127725256E1
1.037296771E1,7.612835628E0,5.945992082E0,7.583925240E0,1.228112414E1
1.038293771E1,7.681448026E0,7.487232758E0,7.267022524E0,1.295657804E1
1.039290771E1,7.737930375E0,9.017796419E0,6.213289359E0,1.340899636E1
1.040287671E1,7.311259049E0,9.134617356E0,5.281808025E0,1.283718190E1
1.041284671E1,6.065395149E0,8.775583112E0,4.400965918E0,1.153986041E1
1.042281671E1,4.477469718E0,9.040959579E0,2.764260675E0,1.046077541E1
1.043278671E1,2.599577939E0,8.677351059E0,7.040790242E-1,9.085700530E0
1.044275571E1,1.108696407E0,8.771594142E0,-1.287663891E0,8.934660027E0
1.045272571E1,-3.750655550E-1,9.132274377E0,-3.160994841E0,9.671142531E0
1.046269571E1,-2.266060944E0,9.150139375E0,-5.363821072E0,1.084576688E1
1.047266471E1,-3.643866681E0,8.853195544E0,-7.484240153E0,1.215198282E1
1.048263471E1,-4.223525142E0,8.731638363E0,-8.453609691E0,1.286635885E1
1.049260471E1,-4.764837563E0,8.934135042E0,-8.041499101E0,1.293012582E1
1.050257371E1,-5.418424711E0,9.333981097E0,-7.356470305E0,1.306140057E1
1.051254371E1,-5.739335108E0,9.316740582E0,-7.062838338E0,1.302402810E1
1.052251371E1,-5.612583261E0,8.771091281E0,-7.179357558E0,1.264817410E1
1.053248371E1,-5.359220483E0,8.341333795E0,-7.321523252E0,1.232492582E1
1.054245271E1,-5.082068893E0,8.158337579E0,-7.094058377E0,1.194619440E1
1.055242271E1,-4.641959496E0,8.069583862E0,-6.537088866E0,1.137539021E1
1.056239271E1,-4.301806496E0,8.107684320E0,-5.861577584E0,1.089027896E1
1.057236171E1,-4.083552155E0,8.188609784E0,-5.256236397E0,1.055257075E1
1.058233171E1,-3.862858940E0,8.288782529E0,-4.681636362E0,1.027342757E1
1.059230171E1,-3.819601239E0,8.448425549E0,-4.048119197E0,1.011694207E1
1.060227071E1,-3.880730370E0,8.617151635E0,-3.554126539E0,1.009688991E1
1.061224071E1,-3.881761234E0,8.418869628E0,-3.630126601E0,9.956066253E0
1.062221071E1,-3.515136135E0,7.016673401E0,-3.492910576E0,8.590128751E0
1.063217971E1,-2.324504449E0,4.038694655E0,-2.938184935E0,5.508838913E0
1.064214971E1,-3.191269970E-1,-6.895644808E-1,-3.121789261E0,3.212928477E0
1.065211971E1,3.519520962E0,-8.554993978E0,-3.669285112E0,9.951814056E0
1.066208971E1,9.096917433E0,-2.023729056E1,-3.695598752E0,2.249353876E1
1.067205871E1,1.367152227E1,-2.932392917E1,2.449574053E-1,3.235526769E1
1.068202871E1,1.932846367E1,-3.625639506E1,5.484002988E0,4.145105523E1
1.069199871E1,2.207862554E1,-3.991727129E1,2.744290094E0,4.569885536E1
1.070196771E1,1.838692981E1,-3.426147945E1,6.360146566E-1,3.888872171E1
1.071193771E1,1.388567654E1,-2.683403038E1,3.867311887E0,3.046035621E1
1.072190771E1,1.466820824E1,-2.589633111E1,6.273582923E0,3.041601783E1
1.073187771E1,1.955335461E1,-2.944032384E1,6.412434415E0,3.591915449E1
1.074184671E1,2.159185186E1,-2.776059420E1,9.344503162E0,3.638926210E1
1.075181671E1,1.904089644E1,-1.806249003E1,1.505608914E1,3.025714963E1
1.076178671E1,1.570859163E1,-8.595782985E0,1.820427916E1,2.553513493E1
1.077175571E1,1.172617467E1,-2.102669274E0,1.721926891E1,2.093866309E1
1.078172571E1,8.389672726E0,7.404416889E-1,1.337833820E1,1.580869366E1
1.079169571E1,7.358960050E0,-4.783969653E-1,9.531728668E0,1.205143179E1
1.080166571E1,6.906541094E0,-2.495758286E0,5.595049800E0,9.232210005E0
1.081163471E1,5.531782926E0,-2.695997940E0,2.969683301E0,6.832865149E0
1.082160471E1,3.845379859E0,-2.124573528E0,6.201234593E-1,4.436813275E0
1.083157471E1,2.225877124E0,-1.224636753E0,-1.434248471E0,2.917418863E0
1.084154371E1,6.929921186E-1,-1.655820376E-1,-2.974346163E0,3.058494823E0
1.085151371E1,-2.742490321E-1,4.848622316E-1,-4.101297870E0,4.138954956E0
1.086148371E1,-9.539206088E-1,1.691563236E0,-5.137242050E0,5.492049398E0
1.087145371E1,-1.332043673E0,3.014618568E0,-6.346563776E0,7.151303184E0
1.088142271E1,-1.673485399E0,4.022438226E0,-7.674945922E0,8.825268131E0
1.089139271E1,-2.084877951E0,4.961870019E0,-8.583458224E0,1.013126968E1
1.090136271E1,-2.445695595E0,5.486457649E0,-9.146801784E0,1.094288021E1
1.091133171E1,-3.000668866E0,5.453392814E0,-9.647832152E0,1.148147081E1
1.092130171E1,-3.572190342E0,5.199894966E0,-9.736199368E0,1.160142360E1
1.093127171E1,-4.108558357E0,4.918415852E0,-9.469587384E0,1.143434089E1
1.094124171E1,-4.860018539E0,4.677103601E0,-9.217486435E0,1.142178333E1
1.095121071E1,-5.272916164E0,4.405021546E0,-9.316910736E0,1.157638481E1
1.096118071E1,-5.536817964E0,4.271098673E0,-9.456486697E0,1.176111294E1
1.097115071E1,-5.967738461E0,4.362738576E0,-9.071880240E0,1.170241006E1
1.098111971E1,-6.232164171E0,4.397124882E0,-8.272504465E0,1.125206237E1
1.099108971E1,-6.350149289E0,4.119502299E0,-7.581295747E0,1.071311068E1
1.100105971E1,-6.240350858E0,3.410973251E0,-7.180589567E0,1.010631406E1
1.101102971E1,-6.081841028E0,2.721870408E0,-6.890062471E0,9.584901129E0
1.102099808E1,-6.108790845E0,2.348760454E0,-6.488958095E0,9.216321306E0
1.103096808E1,-6.314430987E0,2.253900782E0,-6.011446398E0,9.004976137E0
1.104093808E1,-6.607284690E0,2.186770946E0,-5.684279480E0,8.986056496E0
1.105090808E1,-6.916698877E0,1.882021083E0,-5.775532882E0,9.205406389E0
1.106087708E1,-7.014680085E0,1.321882089E0,-5.862465776E0,9.236969954E0
1.107084708E1,-7.024884646E0,4.118384019E-1,-5.655805879E0,9.028109176E0
1.108081708E1,-7.088963698E0,-8.925311302E-1,-5.903364125E0,9.268210513E0
1.109078708E1,-6.292197534E0,-2.490409253E0,-5.808205953E0,8.917911440E0
1.110075608E1,-5.177195490E0,-4.434622783E0,-4.315236381E0,8.067868206E0
1.111072608E1,-4.371559685E0,-6.501314431E0,-2.102103848E0,8.111501958E0
1.112069608E1,-3.200631362E0,-8.857556398E0,-1.870740634E-1,9.419943905E0
1.113066508E1,-1.487357415E0,-1.179868599E1,1.199162189E0,1.195237270E1
1.114063508E1,-3.300893569E-1,-1.413283952E1,2.003668896E0,1.427798308E1
1.115060508E1,3.223546600E-1,-1.611415451E1,2.040029368E0,1.624597205E1
1.116057508E1,4.578498495E-1,-1.836672885E1,1.881439869E0,1.846851838E1
1.117054408E1,2.033079221E0,-1.989023024E1,3.215459901E0,2.025077412E1
1.118051408E1,3.997225617E0,-1.916814238E1,5.596350220E0,2.036454347E1
1.119048408E1,5.094367926E0,-1.733459354E1,5.011469026E0,1.874981439E1
1.120045408E1,6.465459890E0,-1.592770551E1,2.784395269E0,1.741398379E1
1.121042308E1,8.015339828E0,-1.439819669E1,1.560861593E0,1.655264418E1
1.122039308E1,8.830116000E0,-1.288455487E1,1.449894304E0,1.568709330E1
1.123036308E1,9.169007170E0,-1.183547316E1,1.981071162E0,1.510211112E1
1.124033308E1,9.621416770E0,-1.117752341E1,2.392912195E0,1.494104143E1
1.125030208E1,9.370070697E0,-1.028680184E1,2.795001826E0,1.419255270E1
1.126027208E1,8.638625534E0,-9.099460387E0,3.434199269E0,1.300844937E1
1.127024208E1,7.686957858E0,-7.761063130E0,3.919288664E0,1.160535418E1
1.128021208E1,6.656468545E0,-6.360568442E0,4.286868906E0,1.015591697E1
1.129018108E1,5.531066058E0,-5.020702364E0,4.444668592E0,8.692250736E0
1.130015108E1,4.372968864E0,-3.896097730E0,4.348817525E0,7.294837084E0
1.131012108E1,3.474033718E0,-3.068393657E0,4.172071691E0,6.236195322E0
1.132009108E1,2.366065289E0,-2.604578478E0,3.928289284E0,5.273855392E0
1.133006008E1,1.258138375E0,-2.080905352E0,4.352141082E0,4.985399809E0
1.134003008E1,5.319334871E-1,-1.294350767E0,5.614238023E0,5.786014666E0
1.135000008E1,8.584706604E-2,-2.303089607E-1,7.037167307E0,7.041458346E0
1.135997008E1,2.922321439E-2,8.172512984E-1,7.777415453E0,7.820290584E0
1.136993908E1,5.755326658E-1,1.655595843E0,8.079435836E0,8.267376783E0
1.137990908E1,1.338858603E0,2.688305343E0,8.308223351E0,8.834370562E0
1.138987908E1,2.146235708E0,4.135761359E0,8.984242172E0,1.012064510E1
1.139984908E1,2.484500642E0,5.463335420E0,9.866969422E0,1.154893341E1
1.140981808E1,2.124047279E0,6.348626674E0,1.025004508E1,1.224255127E1
1.141978808E1,1.536478704E0,6.812509680E0,1.020349422E1,1.236456022E1
1.142975808E1,7.070301139E-1,7.149113420E0,9.779742998E0,1.213478831E1
1.143972808E1,-4.915812671E-2,7.113687479E0,8.278748707E0,1.091533995E1
1.144969708E1,-5.444184619E-1,7.247281154E0,6.276253347E0,9.602647118E0
1.145966708E1,-9.883419979E-1,7.561496490E0,4.397359355E0,8.802830134E0
1.146963708E1,-1.491331183E0,7.842664533E0,2.832578373E0,8.470829706E0
1.147960708E1,-1.974343355E0,8.150690591E0,1.488339747E0,8.517449383E0
1.148957608E1,-2.251741113E0,8.610937799E0,3.636739364E-1,8.907909213E0
1.149954608E1,-2.430864133E0,8.973849916E0,-5.289942379E-1,9.312299268E0
1.150951608E1,-2.410709950E0,9.176064175E0,-1.364281127E0,9.585037256E0
1.151948608E1,-2.264952897E0,9.241596844E0,-2.179488239E0,9.761521031E0
1.152945508E1,-2.027097520E0,9.266315948E0,-2.541543154E0,9.820039573E0
1.153942508E1,-1.855785795E0,9.220608264E0,-2.573409895E0,9.751204857E0
1.154939508E1,-1.796374576E0,9.080891969E0,-2.601875310E0,9.615576722E0
1.155936508E1,-1.809579928E0,8.795927330E0,-2.656432171E0,9.364803734E0
1.156933508E1,-1.618937894E0,8.340948463E0,-2.552756360E0,8.871806253E0
1.157930408E1,-1.317080648E0,7.302012847E0,-2.438296528E0,7.810210177E0
1.158927408E1,-5.629775244E-1,5.623825702E0,-2.567279089E0,6.207679207E0
1.159924408E1,9.040666634E-1,2.786224571E0,-2.886737623E0,4.112619360E0
1.160921408E1,3.390825500E0,-2.033017825E0,-3.896535394E0,5.551022170E0
1.161918308E1,7.478987015E0,-9.765078766E0,-5.113375470E0,1.332060880E1
1.162915308E1,1.224312817E1,-1.889978441E1,-4.078902449E0,2.288522413E1
1.163912308E1,1.709983134E1,-2.673350739E1,-7.028259659E-1,3.174237882E1
1.164909308E1,1.948211330E1,-3.050770032E1,2.692277942E0,3.629767042E1
1.165906208E1,1.858896865E1,-2.991900031E1,2.068764778E0,3.528421917E1
1.166903208E1,1.669533032E1,-2.563967109E1,3.329955693E-1,3.059800115E1
1.167900208E1,1.468583409E1,-2.098176507E1,1.912163626E0,2.568198898E1
1.168897208E1,1.623067782E1,-2.192527179E1,4.453293820E0,2.764026540E1
1.169894208E1,1.985669529E1,-2.556442678E1,6.173337089E0,3.295357879E1
1.170891108E1,1.943893278E1,-2.227734434E1,9.266410089E0,3.098416586E1
1.171888108E1,1.600295801E1,-1.393205665E1,1.370245638E1,2.525775482E1
1.172885108E1,1.271313439E1,-6.312199105E0,1.553775704E1,2.104494089E1
1.173882108E1,9.339666930E0,-7.227895296E-1,1.551998618E1,1.812792801E1
1.174879008E1,6.672532600E0,1.810640028E0,1.295323977E1,1.468289921E1
1.175876008E1,6.071500227E0,7.793701118E-1,9.974181629E0,1.170277027E1
1.176873008E1,5.732106196E0,-1.225051321E0,7.127147770E0,9.227893991E0
1.177870008E1,4.980623209E0,-1.802280849E0,4.747468994E0,7.112895729E0
1.178867008E1,4.179119048E0,-2.399587376E0,1.589193692E0,5.074307064E0
1.179863908E1,3.225079156E0,-2.313818078E0,-7.561451174E-1,4.040624345E0
1.180860908E1,2.146016437E0,-1.733263239E0,-2.387237764E0,3.648080611E0
1.181857908E1,7.906277561E-1,-1.027994306E0,-3.966675962E0,4.173293990E0
1.182854908E1,-5.322743797E-1,-5.422497296E-1,-5.244817954E0,5.299572262E0
1.183851808E1,-1.488574221E0,-1.002733165E-1,-6.421346156E0,6.592389127E0
1.184848808E1,-2.532244912E0,6.824750242E-1,-7.321028577E0,7.776599249E0
1.185845808E1,-3.735990733E0,1.665780815E0,-7.937948420E0,8.929920358E0
1.186842808E1,-4.849562548E0,2.355387688E0,-8.526870625E0,1.008829176E1
1.187839808E1,-5.720131683E0,2.435159790E0,-8.872030011E0,1.083341249E1
1.188836708E1,-6.363323650E0,2.171399785E0,-8.843291531E0,1.110903551E1
1.189833708E1,-6.848385272E0,1.822922982E0,-8.505265748E0,1.107081634E1
1.190830708E1,-7.279112227E0,1.440085308E0,-7.966257130E0,1.088671544E1
1.191827708E1,-7.681348039E0,1.185363345E0,-7.295001451E0,1.065951407E1
1.192824708E1,-7.920488634E0,1.092121597E0,-6.632729434E0,1.038845366E1
1.193821608E1,-8.040382283E0,1.078173649E0,-5.974405457E0,1.007490577E1
1.194818608E1,-8.159619874E0,9.749281928E-1,-5.268146591E0,9.761313947E0
1.195815608E1,-8.147517892E0,7.552971250E-1,-4.646551314E0,9.409726917E0
1.196812608E1,-8.020062039E0,4.843862683E-1,-4.042439212E0,8.994294856E0
1.197809508E1,-7.759034731E0,9.294514731E-3,-3.107292843E0,8.358108348E0
1.198806508E1,-7.511873510E0,-6.044283996E-1,-2.104542868E0,7.824492188E0
1.199803508E1,-7.402531747E0,-1.159005851E0,-1.177352732E0,7.584650966E0
1.200800508E1,-7.335457751E0,-1.713931467E0,-3.732722870E-1,7.542269797E0
1.201797508E1,-7.219888119E0,-2.395278855E0,3.200379932E-1,7.613577973E0
1.202794471E1,-7.016362914E0,-3.149075877E0,9.206791878E-1,7.745558572E0
1.203791471E1,-6.629164386E0,-4.015944016E0,1.413290880E0,7.878516226E0
1.204788471E1,-6.134400480E0,-5.150673689E0,1.921705989E0,8.237309185E0
1.205785471E1,-5.607338893E0,-6.544915364E0,1.990820370E0,8.845424373E0
1.206782471E1,-4.831107566E0,-7.936317632E0,1.770899427E0,9.458373150E0
1.207779371E1,-4.114431885E0,-9.201921147E0,2.184351953E0,1.031384002E1
1.208776371E1,-3.527501242E0,-1.026655645E1,2.681991520E0,1.118206263E1
1.209773371E1,-3.285634675E0,-1.067032891E1,3.011890550E0,1.156385744E1
1.210770371E1,-2.721606406E0,-1.137853665E1,3.142590730E0,1.211421125E1
1.211767371E1,-1.776029189E0,-1.286924335E1,3.397512960E0,1.342813458E1
1.212764271E1,-1.025078884E0,-1.351658859E1,3.659965527E0,1.404080844E1
1.213761271E1,-1.478836852E-1,-1.354844189E1,3.288067994E0,1.394250832E1
1.214758271E1,1.235539472E0,-1.384736675E1,2.246352027E0,1.408269226E1
1.215755271E1,2.946440619E0,-1.486397887E1,4.737136379E-1,1.516059975E1
1.216752271E1,4.769171519E0,-1.631901755E1,-8.381091937E-1,1.702227241E1
1.217749171E1,6.373704212E0,-1.774939151E1,-1.527160289E0,1.892081454E1
1.218746171E1,6.813259878E0,-1.858915693E1,-1.635696891E0,1.986586947E1
1.219743171E1,5.982543612E0,-1.865433818E1,-1.122466600E0,1.962231109E1
1.220740171E1,5.585528778E0,-1.854104370E1,-9.338096952E-1,1.938660449E1
1.221737171E1,5.569928992E0,-1.802165658E1,-6.145026040E-1,1.887278009E1
1.222734071E1,5.555378780E0,-1.690817832E1,4.412870630E-1,1.780290600E1
1.223731071E1,5.369608646E0,-1.536810007E1,2.040820935E0,1.640658852E1
1.224728071E1,4.902638894E0,-1.362224661E1,3.593960695E0,1.491703806E1
1.225725071E1,4.602575575E0,-1.154503027E1,5.008711479E0,1.339994838E1
1.226722071E1,4.634245264E0,-8.724198951E0,6.409392693E0,1.177574589E1
1.227718971E1,4.701430941E0,-5.617799562E0,8.024724609E0,1.086551103E1
1.228715971E1,4.954981999E0,-2.713697462E0,9.409901930E0,1.097552982E1
1.229712971E1,5.602352387E0,-1.141429120E-1,9.815242614E0,1.130213999E1
1.230709971E1,6.110949637E0,1.828746516E0,9.751429610E0,1.165239884E1
1.231706971E1,6.127767398E0,3.134469532E0,9.567330025E0,1.178593383E1
1.232703871E1,5.737266948E0,4.189591995E0,9.140698460E0,1.157675609E1
1.233700871E1,5.110883971E0,5.103892456E0,8.569222008E0,1.120724850E1
1.234697871E1,4.321837302E0,5.793140602E0,8.025439138E0,1.080029764E1
1.235694871E1,3.402017655E0,6.256224294E0,7.481843380E0,1.032918423E1
1.236691871E1,2.291072994E0,6.367319638E0,6.800054526E0,9.593357931E0
1.237688871E1,1.187147330E0,6.059961916E0,6.156826891E0,8.720032946E0
1.238685771E1,1.738412297E-1,5.627349819E0,5.557150487E0,7.910702136E0
1.239682771E1,-6.286388326E-1,5.384262353E0,4.924477660E0,7.323656743E0
1.240679771E1,-1.253029663E0,5.424488858E0,4.280169459E0,7.022464902E0
1.241676771E1,-1.961395281E0,5.568764226E0,3.617011004E0,6.923942162E0
1.242673771E1,-2.682397317E0,5.645727033E0,2.940889857E0,6.907844978E0
1.243670671E1,-3.439098943E0,5.795852541E0,2.151618655E0,7.074515605E0
1.244667671E1,-4.072810235E0,6.098379292E0,1.363340895E0,7.459002051E0
1.245664671E1,-4.553165433E0,6.494238716E0,8.406658888E-1,7.975786550E0
1.246661671E1,-4.974579527E0,6.887800183E0,5.396559779E-1,8.513487030E0
1.247658671E1,-5.310886813E0,7.265630302E0,1.956886932E-1,9.001844061E0
1.248655571E1,-5.540427450E0,7.551067981E0,-2.524471769E-1,9.369028421E0
1.249652571E1,-5.651526886E0,7.726256994E0,-6.136675485E-1,9.592256833E0
1.250649571E1,-5.624137943E0,7.625196058E0,-5.664612955E-1,9.491860772E0
1.251646571E1,-5.490045501E0,7.361609423E0,-3.738183439E-1,9.190953871E0
1.252643571E1,-5.187050387E0,6.764824467E0,-2.414426440E-1,8.527991343E0
1.253640571E1,-4.692715666E0,5.484338619E0,-1.739920878E-1,7.220098590E0
1.254637471E1,-3.846088541E0,3.250380642E0,-5.770826165E-1,5.068569397E0
1.255634471E1,-2.442462670E0,-4.498613834E-2,-1.309170535E0,2.771565466E0
1.256631471E1,2.814972407E-1,-4.960367285E0,-1.660886403E0,5.238609352E0
1.257628471E1,5.020836266E0,-1.260268399E1,-2.197379549E0,1.374281330E1
1.258625471E1,1.135011450E1,-2.242410477E1,-1.745125485E0,2.519347211E1
1.259622371E1,1.580894271E1,-2.813188070E1,1.714883686E0,3.231510804E1
1.260619371E1,1.590353546E1,-2.593992795E1,4.767348357E0,3.079821282E1
1.261616371E1,1.482977032E1,-2.283365779E1,4.264683108E0,2.755876517E1
1.262613371E1,1.501848453E1,-2.128383925E1,4.048474123E0,2.636184427E1
1.263610371E1,1.697799993E1,-2.068575329E1,5.413031239E0,2.730299943E1
1.264607371E1,2.153955436E1,-2.190372129E1,6.224891989E0,3.134445228E1
1.265604271E1,2.588205455E1,-2.079803620E1,7.084014614E0,3.395029191E1
1.266601271E1,2.665993538E1,-1.331625948E1,1.019635360E1,3.149667519E1
1.267598271E1,2.559363245E1,-4.966945987E0,1.250037643E1,2.891304179E1
1.268595271E1,2.144023355E1,2.033110796E0,1.241216416E1,2.485717147E1
1.269592271E1,1.549712824E1,5.240065922E0,1.020485780E1,1.928103725E1
1.270589271E1,1.210588584E1,3.325803292E0,7.680265135E0,1.471733373E1
1.271586171E1,1.031682379E1,-6.276260948E-1,4.917137650E0,1.144591675E1
1.272583171E1,8.388636600E0,-2.750742497E0,1.308954188E0,8.924638332E0
1.273580171E1,6.149803215E0,-2.658817250E0,-1.828901467E0,6.945089584E0
1.274577171E1,4.160426669E0,-1.495815412E0,-3.697531841E0,5.763536721E0
1.275574171E1,1.956578929E0,-5.215424001E-2,-5.629546033E0,5.960093096E0
1.276571171E1,-5.192801124E-1,1.649821717E0,-8.043318754E0,8.227183000E0
1.277568071E1,-3.088574737E0,3.398381272E0,-1.008143711E1,1.107807128E1
1.278565071E1,-4.768496166E0,4.531959628E0,-1.114040879E1,1.293777113E1
1.279562071E1,-5.396833282E0,4.834067719E0,-1.145434229E1,1.355344892E1
1.280559071E1,-6.431080016E0,4.736261343E0,-1.133243018E1,1.386416011E1
1.281556071E1,-7.275054259E0,4.420560814E0,-1.093753964E1,1.385992590E1
1.282553071E1,-7.608327425E0,4.339189792E0,-1.023300395E1,1.346957995E1
1.283549971E1,-7.988558410E0,4.141113023E0,-8.966992886E0,1.270326115E1
1.284546971E1,-8.368664850E0,3.752511748E0,-7.615346423E0,1.192096460E1
1.285543971E1,-8.617473232E0,3.180450282E0,-6.438796002E0,1.121758454E1
1.286540971E1,-8.722516122E0,2.471408726E0,-5.611838325E0,1.066221731E1
1.287537971E1,-8.804964201E0,1.688915032E0,-4.876326424E0,1.020580168E1
1.288534971E1,-8.845595918E0,1.043947118E0,-4.138323901E0,9.821411174E0
1.289531871E1,-8.862270423E0,5.323922011E-1,-3.554334115E0,9.563292817E0
1.290528871E1,-8.880808436E0,1.374181925E-1,-3.108456732E0,9.410108686E0
1.291525871E1,-8.881993082E0,-1.282560441E-1,-2.710092069E0,9.287133559E0
1.292522871E1,-8.793929921E0,-4.483329213E-1,-2.354942715E0,9.114820956E0
1.293519871E1,-8.582070095E0,-9.247224643E-1,-2.108955323E0,8.885647489E0
1.294516871E1,-8.237339895E0,-1.683825615E0,-1.937677220E0,8.628072221E0
1.295513771E1,-7.761046173E0,-2.743247828E0,-2.132313195E0,8.503293827E0
1.296510771E1,-7.257861106E0,-3.874535245E0,-2.312771426E0,8.546196983E0
1.297507771E1,-6.808336523E0,-4.922751562E0,-2.020130855E0,8.641056522E0
1.298504771E1,-6.230576068E0,-6.047786259E0,-1.551889772E0,8.820666564E0
1.299501771E1,-5.454238322E0,-7.461282231E0,-1.457940073E0,9.356550510E0
1.300498771E1,-4.786495650E0,-9.117549334E0,-1.605029268E0,1.042191755E1
1.301495771E1,-3.751310438E0,-1.135185230E1,-1.671300294E0,1.207187331E1
1.302492683E1,-2.670865438E0,-1.377387076E1,-1.452568236E0,1.410542422E1
1.303489683E1,-2.116880347E0,-1.574867195E1,-9.921648344E-1,1.592125126E1
1.304486683E1,-6.843025714E-1,-1.839340618E1,-6.947597319E-1,1.841923864E1
1.305483683E1,9.986494696E-1,-2.050327806E1,-4.744699752E-1,2.053306683E1
1.306480683E1,1.029744378E0,-1.962493505E1,3.981847879E-1,1.965596602E1
1.307477683E1,9.586013049E-1,-1.864125211E1,7.352664645E-1,1.868035903E1
1.308474583E1,2.164028785E0,-1.908550836E1,1.803177519E-1,1.920864816E1
1.309471583E1,3.984519618E0,-2.012371190E1,-5.812389636E-1,2.052262205E1
1.310468583E1,6.654914939E0,-2.154655699E1,-6.412781739E-1,2.255999221E1
1.311465583E1,9.789841139E0,-2.318665420E1,-2.020891285E-1,2.516948077E1
1.312462583E1,1.207367703E1,-2.414323763E1,-2.798407245E-1,2.699533128E1
1.313459583E1,1.440492683E1,-2.402778553E1,-8.055863956E-1,2.802651180E1
1.314456583E1,1.680303720E1,-2.171555789E1,-2.138926104E-1,2.745820940E1
1.315453483E1,1.747972611E1,-1.675560576E1,2.428402162E0,2.433491907E1
1.316450483E1,1.731177186E1,-1.253995155E1,4.726959300E0,2.189273793E1
1.317447483E1,1.678329115E1,-9.128229858E0,5.589919453E0,1.990604536E1
1.318444483E1,1.595446939E1,-5.722911449E0,6.381978607E0,1.811150076E1
1.319441483E1,1.487757832E1,-1.841348435E0,8.308228029E0,1.713941521E1
1.320438483E1,1.369698689E1,2.385076341E0,9.810769494E0,1.701608760E1
1.321435383E1,1.231522200E1,5.946242927E0,9.575292764E0,1.669457186E1
1.322432383E1,1.070110046E1,7.627468286E0,8.766702361E0,1.579705333E1
1.323429383E1,9.176013304E0,7.660475818E0,7.766000519E0,1.425457379E1
1.324426383E1,7.755516461E0,7.572613801E0,6.729788536E0,1.275862724E1
1.325423383E1,6.459147236E0,7.917076784E0,6.013283594E0,1.185581155E1
1.326420383E1,5.679273679E0,8.714126537E0,5.628046807E0,1.182645601E1
1.327417383E1,5.187921622E0,9.399494471E0,5.167044139E0,1.191483832E1
1.328414283E1,4.047100028E0,9.322966697E0,4.320971330E0,1.104389061E1
1.329411283E1,3.452946904E0,9.565805072E0,3.372839465E0,1.071464022E1
1.330408283E1,2.831952721E0,9.902719299E0,2.392849776E0,1.057400283E1
1.331405283E1,1.922646368E0,1.005141750E1,1.280670475E0,1.031347079E1
1.332402283E1,8.866735357E-1,9.941641874E0,3.551408753E-2,9.981166984E0
1.333399283E1,-7.121323943E-2,9.832231114E0,-1.318756752E0,9.920532212E0
1.334396283E1,-8.874512154E-1,9.810199975E0,-2.800882371E0,1.024072923E1
1.335393183E1,-1.563024479E0,9.895669895E0,-4.147611618E0,1.084297055E1
1.336390183E1,-2.238115931E0,1.002053719E1,-4.916275771E0,1.138376457E1
1.337387183E1,-2.812595513E0,1.019919418E1,-5.211909825E0,1.179399252E1
1.338384183E1,-3.252276894E0,1.042493413E1,-5.319008596E0,1.214695061E1
1.339381183E1,-3.577899563E0,1.060171417E1,-5.297120129E0,1.237970881E1
1.340378183E1,-3.787667840E0,1.064719147E1,-5.221270047E0,1.244872583E1
1.341375183E1,-3.816602202E0,1.054775723E1,-5.012333829E0,1.228597271E1
1.342372083E1,-3.634868401E0,1.022556863E1,-4.585666012E0,1.178146234E1
1.343369083E1,-3.421438597E0,9.629410499E0,-3.831522250E0,1.091386052E1
1.344366083E1,-3.181265384E0,8.697552604E0,-2.855318779E0,9.691270096E0
1.345363083E1,-2.649362887E0,7.442163005E0,-1.870868688E0,8.118193367E0
1.346360083E1,-1.861744693E0,5.628436816E0,-1.184639021E0,6.045557369E0
1.347357083E1,-3.702521271E-1,2.601187093E0,-8.836287443E-1,2.772013832E0
1.348354083E1,2.479948584E0,-2.519355894E0,-7.076977929E-1,3.605292675E0
1.349350983E1,6.573841540E0,-1.079623349E1,-9.728755277E-1,1.267756037E1
1.350347983E1,1.128144948E1,-1.905433802E1,5.646679544E-1,2.215079569E1
1.351344983E1,1.325598404E1,-2.185385623E1,4.059701947E0,2.588036563E1
1.352341983E1,1.319261425E1,-2.258778003E1,5.219680774E0,2.667391882E1
1.353338983E1,1.300939643E1,-2.371923029E1,3.342985336E0,2.725842681E1
1.354335983E1,1.306006489E1,-2.295660602E1,3.031500942E0,2.658497796E1
1.355332983E1,1.350030878E1,-2.105097038E1,4.300977068E0,2.537518659E1
1.356329983E1,1.424280810E1,-1.971664746E1,4.877554047E0,2.480714218E1
1.357326883E1,1.528011234E1,-1.879796568E1,4.902327822E0,2.471594961E1
1.358323883E1,1.546375000E1,-1.696476300E1,5.311038256E0,2.356136403E1
1.359320883E1,1.458262956E1,-1.427869480E1,5.948768924E0,2.125845860E1
1.360317883E1,1.244620548E1,-1.037563158E1,7.011100420E0,1.765551728E1
1.361314883E1,9.819701700E0,-6.453332765E0,8.102649282E0,1.427322566E1
1.362311883E1,7.150480499E0,-3.253170934E0,8.277231939E0,1.141161956E1
1.363308883E1,4.874398597E0,-8.816057539E-1,7.460778201E0,8.955456535E0
1.364305883E1,3.010657665E0,1.025517426E0,6.256237743E0,7.018280150E0
1.365302783E1,1.194051138E0,2.388411008E0,4.270114002E0,5.036282245E0
1.366299783E1,-6.282540858E-1,2.831834022E0,1.346018518E0,3.197773128E0
1.367296783E1,-2.442871390E0,3.071776856E0,-2.429668962E0,4.615920812E0
1.368293783E1,-4.182657198E0,3.705501012E0,-5.592083507E0,7.905489038E0
1.369290783E1,-5.743899445E0,4.344962456E0,-8.293501816E0,1.098422742E1
1.370287783E1,-6.705519667E0,4.445243958E0,-1.045546595E1,1.319245830E1
1.371284783E1,-6.940637378E0,4.777651736E0,-1.103600909E1,1.388495229E1
1.372281783E1,-7.159802715E0,5.859514686E0,-1.033813104E1,1.387348697E1
1.373278683E1,-7.417143354E0,6.934006051E0,-9.574308677E0,1.395571002E1
1.374275683E1,-7.371367841E0,7.576112190E0,-8.948674729E0,1.384966856E1
1.375272683E1,-7.174476888E0,7.819507805E0,-8.588856958E0,1.365233624E1
1.376269683E1,-7.071821415E0,7.589495882E0,-8.149726385E0,1.319201069E1
1.377266683E1,-7.035193287E0,7.078624651E0,-7.536404918E0,1.250592942E1
1.378263683E1,-7.017516569E0,6.509126896E0,-6.929404292E0,1.181655261E1
1.379260683E1,-6.991020496E0,5.856229720E0,-6.559881898E0,1.123395944E1
1.380257683E1,-6.910295591E0,5.201036927E0,-6.326026016E0,1.071548298E1
1.381254583E1,-6.941662395E0,4.787506926E0,-6.050027497E0,1.037832993E1
1.382251583E1,-7.080995697E0,4.601860460E0,-5.740463621E0,1.021129484E1
1.383248583E1,-7.290830632E0,4.549901225E0,-5.327045009E0,1.011114341E1
1.384245583E1,-7.433120871E0,4.525245270E0,-4.841741897E0,9.958493623E0
1.385242583E1,-7.342576151E0,4.290646208E0,-4.392507043E0,9.571686766E0
1.386239583E1,-7.155562314E0,3.978382380E0,-4.046374388E0,9.132510284E0
1.387236583E1,-6.762198483E0,3.586022223E0,-3.756649531E0,8.526388415E0
1.388233583E1,-6.207633348E0,2.903413882E0,-3.463157312E0,7.678410155E0
1.389230483E1,-5.684053777E0,2.099282566E0,-3.100674672E0,6.806587843E0
1.390227483E1,-4.969828080E0,1.083998353E0,-2.803380009E0,5.808027466E0
1.391224483E1,-3.928783373E0,-3.704553178E-1,-2.745996604E0,4.807605775E0
1.392221483E1,-2.877190874E0,-2.161916186E0,-2.669319434E0,4.480778411E0
1.393218483E1,-1.777560575E0,-4.133288279E0,-2.569706268E0,5.181426821E0
1.394215483E1,-3.376293415E-1,-6.564104172E0,-2.522454334E0,7.040187002E0
1.395212483E1,1.407203783E0,-9.511553435E0,-2.459340073E0,9.924627189E0
1.396209483E1,3.549471570E0,-1.281968820E1,-1.979282498E0,1.344844649E1
1.397206483E1,5.083860480E0,-1.574576355E1,-1.177180166E0,1.658796130E1
1.398203383E1,5.833309804E0,-1.768040489E1,-1.350449538E-1,1.861833660E1
1.399200383E1,6.874639855E0,-1.946054643E1,8.327815032E-1,2.065592083E1
1.400197383E1,7.631453748E0,-2.048799110E1,9.068281572E-1,2.188193782E1
1.401194383E1,7.494709593E0,-2.007237335E1,7.451237006E-1,2.143889113E1
1.402191337E1,7.880687222E0,-1.999276234E1,6.560787924E-1,2.149991201E1
1.403188338E1,8.773535417E0,-2.088590348E1,7.289887476E-1,2.266555343E1
1.404185338E1,9.689668395E0,-2.150988793E1,1.047683343E0,2.361488075E1
1.405182338E1,1.021310939E1,-2.132879966E1,1.274681318E0,2.368227419E1
1.406179237E1,1.014795152E1,-2.012706119E1,1.667291443E0,2.260219841E1
1.407176238E1,9.903143806E0,-1.776358387E1,2.731448732E0,2.052018473E1
1.408173238E1,9.923886219E0,-1.471558706E1,4.530828484E0,1.831830852E1
1.409170238E1,1.008564359E1,-1.123886538E1,6.825229129E0,1.657154351E1
1.410167237E1,1.044860717E1,-7.468936236E0,8.987230099E0,1.567573619E1
1.411164238E1,1.097485190E1,-3.709617451E0,1.035642464E1,1.553911732E1
1.412161238E1,1.122548578E1,-1.427574313E-1,1.101436387E1,1.572730499E1
1.413158238E1,1.137614631E1,3.002957466E0,1.127851769E1,1.629844838E1
1.414155238E1,1.143587328E1,5.969658102E0,1.085266614E1,1.685812498E1
1.415152138E1,1.061638834E1,7.908389575E0,1.014673296E1,1.667952388E1
1.416149138E1,9.034232942E0,9.574278272E0,9.580667524E0,1.628107366E1
1.417146138E1,6.809499534E0,1.021190954E1,8.308099390E0,1.482150113E1
1.418143138E1,4.321517460E0,9.980364475E0,6.356608708E0,1.259720852E1
1.419140138E1,2.093549371E0,9.139885113E0,4.252258945E0,1.029573480E1
1.420137138E1,-1.144668478E-1,8.224623955E0,2.611821424E0,8.630130533E0
1.421134138E1,-2.151143861E0,7.488441963E0,1.581672419E0,7.950211983E0
1.422131138E1,-3.859287461E0,6.904229690E0,9.208638867E-1,7.963069610E0
1.423128137E1,-5.285970073E0,6.367519612E0,5.020178892E-1,8.290887021E0
1.424125138E1,-6.304472010E0,6.080412553E0,2.106300833E-1,8.761401096E0
1.425122038E1,-7.013174427E0,6.016027692E0,1.471370689E-1,9.241150040E0
1.426119038E1,-7.642545916E0,6.011965047E0,1.652078158E-1,9.725200534E0
1.427116038E1,-8.211205764E0,6.196353484E0,-9.040416665E-3,1.028682547E1
1.428113038E1,-8.409097762E0,6.433404284E0,-1.829044505E-1,1.058938477E1
1.429110038E1,-8.284410565E0,6.501162989E0,-2.555689688E-1,1.053384517E1
1.430107038E1,-7.928977622E0,6.504890589E0,-5.003421503E-1,1.026803925E1
1.431104037E1,-7.345311479E0,6.619169741E0,-7.810663891E-1,9.918521739E0
1.432101038E1,-6.771776222E0,6.674827632E0,-7.913604122E-1,9.541306432E0
1.433098038E1,-6.393925053E0,6.618332419E0,-8.517557180E-1,9.241757918E0
1.434094938E1,-6.044096081E0,6.514068378E0,-1.061929792E0,8.949406637E0
1.435091937E1,-5.717978153E0,6.293781545E0,-1.256827430E0,8.595730073E0
1.436088938E1,-5.346439054E0,5.842686984E0,-1.361648710E0,8.035887565E0
1.437085938E1,-4.942751378E0,5.274907141E0,-1.456384714E0,7.374041834E0
1.438082938E1,-4.499937644E0,4.583238832E0,-1.687069066E0,6.640912515E0
1.439079937E1,-3.731532231E0,3.563898405E0,-2.062844034E0,5.557070284E0
1.440076938E1,-2.950793286E0,2.427553439E0,-2.393370763E0,4.508704950E0
1.441073938E1,-2.201698303E0,1.416551726E0,-2.541840777E0,3.648979138E0
1.442070938E1,-1.403934020E0,3.997612703E-1,-2.831291986E0,3.185444100E0
1.443067938E1,-5.729616451E-1,-1.019562621E0,-3.328715791E0,3.528192427E0
1.444064838E1,6.051055437E-1,-3.485748614E0,-3.999074507E0,5.339400063E0
1.445061838E1,2.061449912E0,-7.189491368E0,-4.753173245E0,8.861772834E0
1.446058838E1,4.666555223E0,-1.250294803E1,-4.771329727E0,1.417272149E1
1.447055838E1,7.496088951E0,-1.720577587E1,-2.336516677E0,1.891267784E1
1.448052838E1,8.996043608E0,-1.829243646E1,2.184672965E0,2.050158112E1
1.449049838E1,1.010872723E1,-1.783390834E1,2.782988137E0,2.068766966E1
1.450046838E1,1.181120605E1,-1.851077267E1,5.853916562E-1,2.196579105E1
1.451043838E1,1.380153628E1,-1.955411591E1,3.747691011E-1,2.393713234E1
1.452040837E1,1.574969522E1,-2.097406780E1,8.606127879E-1,2.624319100E1
1.453037838E1,1.794550946E1,-2.258618959E1,1.515159464E0,2.888724595E1
1.454034738E1,1.914958215E1,-2.199891162E1,3.966799338E0,2.943457331E1
1.455031738E1,1.891402355E1,-1.789174432E1,6.976986594E0,2.695427876E1
1.456028738E1,1.768729174E1,-1.196771613E1,9.090793644E0,2.321010659E1
1.457025738E1,1.615500198E1,-5.820914876E0,1.103661487E1,2.041259432E1
1.458022738E1,1.338560395E1,-1.932452148E-1,1.174031791E1,1.780580808E1
1.459019738E1,9.504333878E0,3.482059606E0,1.140043564E1,1.524555786E1
1.460016737E1,5.722952380E0,5.192692950E0,1.019769846E1,1.279489343E1
1.461013738E1,3.735141717E0,4.652548803E0,8.203653501E0,1.014383679E1
1.462010738E1,2.730271980E0,3.491988178E0,5.856570613E0,7.344915647E0
1.463007738E1,1.624781601E0,3.585188702E0,3.782469081E0,5.458989433E0
1.464004737E1,2.265860385E-1,4.397228962E0,1.961639110E0,4.820268849E0
1.465001638E1,-5.838596857E-1,4.641965927E0,2.511444904E-2,4.678607757E0
1.465998638E1,-7.773066294E-1,4.423763042E0,-1.748108734E0,4.819727087E0
1.466995638E1,-1.404690650E0,4.166732891E0,-3.017308580E0,5.332820067E0
1.467992637E1,-1.904159226E0,3.500354374E0,-3.932595465E0,5.598536433E0
1.468989638E1,-1.793614690E0,2.702404734E0,-5.284344547E0,6.200350176E0
1.469986638E1,-2.015717084E0,3.575634937E0,-6.870388345E0,8.003156663E0
1.470983638E1,-3.032225119E0,5.620786319E0,-8.385375023E0,1.054050010E1
1.471980638E1,-4.174130788E0,7.433210333E0,-1.014050919E1,1.324786437E1
1.472977638E1,-4.858723966E0,7.891886394E0,-1.161621778E1,1.486020138E1
1.473974638E1,-5.358253938E0,7.228963582E0,-1.291450665E1,1.574018048E1
1.474971538E1,-5.651077235E0,6.533302209E0,-1.364012272E1,1.614532934E1
1.475968538E1,-5.597075275E0,6.272473122E0,-1.292673668E1,1.541984734E1
1.476965538E1,-5.539812323E0,6.287176530E0,-1.210114375E1,1.471923195E1
1.477962538E1,-5.423871977E0,6.223635423E0,-1.113376869E1,1.386047728E1
1.478959538E1,-5.490560056E0,6.180808661E0,-1.026101562E1,1.317714260E1
1.479956538E1,-5.406058434E0,5.976772410E0,-9.109298328E0,1.216250765E1
1.480953537E1,-5.212568221E0,5.575794334E0,-7.675937026E0,1.082498772E1
1.481950538E1,-5.111555232E0,5.142205167E0,-6.279301500E0,9.591657740E0
1.482947538E1,-5.195366297E0,4.726391828E0,-5.073316196E0,8.664245374E0
1.483944538E1,-5.283484422E0,4.215365060E0,-4.129566234E0,7.920721401E0
1.484941438E1,-5.070380893E0,3.342976857E0,-3.439197176E0,6.979422174E0
1.485938438E1,-4.550548804E0,2.005711913E0,-3.079743687E0,5.849375682E0
1.486935438E1,-3.789036089E0,3.254516378E-1,-2.977100786E0,4.829683462E0
1.487932438E1,-2.804711128E0,-1.759038935E0,-2.722908873E0,4.286590162E0
1.488929437E1,-1.148024780E0,-4.667330857E0,-2.432492144E0,5.386924563E0
1.489926438E1,9.120539600E-1,-8.399469736E0,-2.209451272E0,8.732961079E0
1.490923438E1,2.874152661E0,-1.187363443E1,-1.204140508E0,1.227574448E1
1.491920438E1,4.010359048E0,-1.448404200E1,1.798802340E-1,1.503006351E1
1.492917438E1,5.484298273E0,-1.669335630E1,8.270304742E-1,1.759061260E1
1.493914438E1,8.141994027E0,-1.944580443E1,4.131154338E-1,2.108558847E1
1.494911438E1,1.269478699E1,-2.432779213E1,-4.251159668E-1,2.744412160E1
1.495908438E1,1.603720515E1,-2.847012576E1,-6.147528648E-2,3.267634907E1
1.496905337E1,1.314903145E1,-2.772678560E1,-2.207358992E-1,3.068746311E1
1.497902338E1,9.535209516E0,-2.605203779E1,-1.972848222E0,2.781224593E1
1.498899338E1,6.634638550E0,-2.456618545E1,-1.838455525E0,2.551265989E1
1.499896338E1,2.601779416E0,-2.345271187E1,-4.991575044E-1,2.360186663E1
1.500893338E1,-6.551846069E-1,-2.304129242E1,9.183499494E-1,2.306889225E1
1.501890338E1,-2.428138745E0,-2.261851066E1,2.589172819E0,2.289534228E1
1.502887325E1,-2.887476711E0,-2.117539679E1,4.911938306E0,2.192856787E1
1.503884325E1,-2.503757862E0,-1.817022498E1,7.995393806E0,2.000880310E1
1.504881325E1,-1.189066386E0,-1.378486820E1,1.218038053E1,1.843361441E1
1.505878325E1,1.496047547E0,-9.098488580E0,1.565849853E1,1.817166005E1
1.506875325E1,4.378421393E0,-5.030119890E0,1.758908659E1,1.881086513E1
1.507872225E1,7.319121800E0,-2.135141201E0,1.899078229E1,2.046407056E1
1.508869225E1,9.369218758E0,2.703612185E-1,2.110839939E1,2.309588448E1
1.509866225E1,1.071669850E1,3.352225690E0,2.163947860E1,2.437933711E1
1.510863225E1,1.058183831E1,6.156159139E0,1.923666122E1,2.280181423E1
1.511860225E1,8.609901672E0,7.775090600E0,1.621008159E1,1.993361948E1
1.512857225E1,5.478875565E0,8.624415046E0,1.300466954E1,1.653844135E1
1.513854225E1,2.071498352E0,8.997086166E0,9.624595901E0,1.333684787E1
1.514851225E1,1.937854975E-1,8.771195362E0,6.904539008E0,1.116441131E1
1.515848225E1,-7.596772742E-1,8.428763702E0,4.672016523E0,9.666897408E0
1.516845225E1,-1.688657754E0,8.192343816E0,3.069876511E0,8.910118069E0
1.517842225E1,-2.734113016E0,7.973979548E0,2.056831781E0,8.676997221E0
1.518839225E1,-3.537409349E0,7.924467664E0,1.380612985E0,8.787294514E0
1.519836125E1,-3.927916231E0,8.058765929E0,9.170679474E-1,9.011839315E0
1.520833125E1,-4.031564561E0,8.152987377E0,6.801867163E-1,9.120711044E0
1.521830125E1,-3.963879531E0,8.306742836E0,4.122568432E-1,9.213266152E0
1.522827125E1,-3.751808036E0,8.448503317E0,2.117207352E-1,9.246518129E0
1.523824125E1,-3.605258101E0,8.305249457E0,4.269403712E-1,9.064068215E0
1.524821125E1,-3.559173270E0,8.051721203E0,8.398356573E-1,8.843260295E0
1.525818125E1,-3.633077983E0,7.725429613E0,1.388077540E0,8.649177857E0
1.526815125E1,-3.862624467E0,7.246138024E0,1.920370631E0,8.432924012E0
1.527812125E1,-4.378210309E0,6.714988064E0,2.448095877E0,8.381704100E0
1.528809125E1,-4.870895530E0,6.192618867E0,2.902764841E0,8.396439449E0
1.529806125E1,-5.059817314E0,5.557932259E0,3.206561608E0,8.171560414E0
1.530803125E1,-5.214795426E0,4.818282284E0,3.407064972E0,7.875152520E0
1.531800025E1,-5.250966886E0,3.965930734E0,3.541783651E0,7.472984093E0
1.532797025E1,-4.934309753E0,2.690937175E0,3.298622510E0,6.516860140E0
1.533794025E1,-4.402634128E0,8.011913359E-1,2.302535291E0,5.032570277E0
1.534791025E1,-3.653338001E0,-1.241731088E0,1.809149573E0,4.261665968E0
1.535788025E1,-2.402139101E0,-3.714703944E0,1.494265316E0,4.669274728E0
1.536785025E1,-6.916513520E-1,-6.995386612E0,5.856875253E-1,7.053853226E0
1.537782025E1,9.875467765E-1,-1.049755538E1,-2.454509103E-1,1.054676081E1
1.538779025E1,1.853204834E0,-1.329117141E1,-2.562998343E-1,1.342219413E1
1.539776025E1,2.610219871E0,-1.553651158E1,-1.674046330E-1,1.575514088E1
1.540773025E1,4.297614042E0,-1.820718874E1,-8.155836725E-1,1.872528731E1
1.541770025E1,6.231231540E0,-2.025612093E1,-9.453029823E-1,2.121396425E1
1.542767025E1,7.726093272E0,-2.103978348E1,-6.178378558E-1,2.242201440E1
1.543764025E1,9.288968062E0,-2.135421400E1,-4.051430476E-1,2.329058874E1
1.544760925E1,1.056405459E1,-2.100807520E1,-4.514986038E-2,2.351468715E1
1.545757925E1,1.128094896E1,-1.991566329E1,1.771612787E-1,2.288940453E1
1.546754925E1,1.156508973E1,-1.851628893E1,4.833460486E-1,2.183661786E1
1.547751925E1,1.146695123E1,-1.649505500E1,9.057256646E-1,2.010965312E1
1.548748925E1,1.097283695E1,-1.382133729E1,1.770732197E0,1.773606517E1
1.549745925E1,9.818002499E0,-1.079760876E1,2.975321771E0,1.489409506E1
1.550742925E1,8.626527645E0,-7.917795407E0,3.753249959E0,1.229615178E1
1.551739925E1,7.603477160E0,-5.212517935E0,3.929609585E0,1.002122945E1
1.552736925E1,6.286814003E0,-2.197287748E0,4.013623549E0,7.775685034E0
1.553733925E1,4.822427959E0,5.191234070E-1,4.203321258E0,6.418193681E0
1.554730925E1,3.839843130E0,2.466026949E0,3.849798599E0,5.970480168E0
1.555727925E1,3.389004677E0,3.940424010E0,3.222580640E0,6.115334828E0
1.556724925E1,2.981139166E0,5.155438001E0,2.756119012E0,6.562158464E0
1.557721925E1,2.447375500E0,6.214941782E0,2.247821140E0,7.047541988E0
1.558718825E1,1.969045193E0,7.011853541E0,1.474277778E0,7.430795652E0
1.559715825E1,1.634330104E0,7.362885286E0,5.532534586E-1,7.562354396E0
1.560712825E1,1.561946837E0,7.798271302E0,-3.994499061E-1,7.963182369E0
1.561709825E1,1.214308816E0,8.306586131E0,-1.676042386E0,8.560551217E0
1.562706825E1,7.897307932E-1,8.218297268E0,-3.188146972E0,8.850331396E0
1.563703825E1,2.824702173E-1,8.006586546E0,-4.716375547E0,9.296742217E0
1.564700825E1,-5.105619138E-1,8.102323008E0,-5.921125628E0,1.004828544E1
1.565697825E1,-1.554928424E0,8.270062083E0,-6.821560585E0,1.083260902E1
1.566694825E1,-2.460812986E0,8.192014033E0,-7.535817858E0,1.139970374E1
1.567691825E1,-3.194875363E0,8.115078124E0,-7.791661609E0,1.169494387E1
1.568688825E1,-3.631225001E0,8.223710035E0,-7.721902573E0,1.185086415E1
1.569685825E1,-4.181926296E0,8.160411002E0,-7.591465809E0,1.190425001E1
1.570682825E1,-4.732455683E0,8.012930190E0,-7.268713539E0,1.180836075E1
1.571679825E1,-5.052677863E0,7.834270855E0,-6.914009743E0,1.160641565E1
1.572676725E1,-5.401358442E0,7.554595022E0,-6.984731231E0,1.162037217E1
1.573673725E1,-5.556293870E0,7.125529261E0,-6.933227202E0,1.138925846E1
1.574670725E1,-5.630721908E0,6.709765331E0,-6.383045139E0,1.083832299E1
1.575667725E1,-5.647083002E0,6.375944281E0,-5.709057641E0,1.025356285E1
1.576664725E1,-5.542823054E0,6.014149566E0,-5.168641014E0,9.675108906E0
1.577661725E1,-5.455514184E0,5.539046338E0,-4.750972645E0,9.111279297E0
1.578658725E1,-5.371284458E0,4.990362917E0,-4.209956971E0,8.454475529E0
1.579655725E1,-5.320578573E0,4.360230705E0,-3.667045044E0,7.795343964E0
1.580652725E1,-5.340098333E0,3.613288082E0,-3.322841970E0,7.253535671E0
1.581649725E1,-5.242353938E0,2.646523479E0,-2.954378214E0,6.573789772E0
1.582646725E1,-4.892461231E0,1.284333317E0,-2.804100094E0,5.783482195E0
1.583643725E1,-4.318933575E0,-8.398838237E-1,-2.943852056E0,5.293850866E0
1.584640725E1,-3.073397119E0,-4.108255764E0,-2.898078883E0,5.892571296E0
1.585637725E1,-1.661436626E0,-8.409448010E0,-2.508429787E0,8.931484059E0
1.586634625E1,-1.589483714E-1,-1.320781585E1,-1.334298944E0,1.327599404E1
1.587631625E1,1.640758533E0,-1.790867785E1,2.532159396E-1,1.798546495E1
1.588628625E1,4.362836224E0,-2.287553789E1,1.306814107E0,2.332450078E1
1.589625625E1,6.741154938E0,-2.643089760E1,2.248176066E0,2.736950518E1
1.590622625E1,7.545554057E0,-2.687264539E1,2.529893746E0,2.802632367E1
1.591619625E1,7.265714502E0,-2.515425162E1,2.394514332E0,2.629183677E1
1.592616625E1,6.828950297E0,-2.323782201E1,2.620729072E0,2.436183809E1
1.593613625E1,7.552708125E0,-2.219655687E1,2.796035614E0,2.361246179E1
1.594610625E1,8.764899080E0,-2.085282695E1,2.355557550E0,2.274230637E1
1.595607625E1,1.052151493E1,-1.929176421E1,1.845254229E0,2.205174383E1
1.596604625E1,1.199473495E1,-1.710741284E1,2.467786668E0,2.103870746E1
1.597601625E1,1.203584087E1,-1.348369333E1,3.726146945E0,1.845414919E1
1.598598625E1,1.149770173E1,-9.410259195E0,4.691284268E0,1.558070189E1
1.599595625E1,1.026485140E1,-5.990410455E0,5.485387609E0,1.308975435E1
1.600592625E1,8.841438548E0,-3.388304765E0,5.850002435E0,1.112987750E1
1.601589625E1,7.769922246E0,-1.142469340E0,5.930126832E0,9.840900982E0
1.602586858E1,7.102905799E0,8.961565500E-1,5.758054969E0,9.187467789E0
1.603583858E1,6.709263639E0,2.508211101E0,5.384374620E0,8.960849935E0
1.604580858E1,6.361853660E0,3.652084942E0,4.822564784E0,8.778840329E0
1.605577858E1,6.295607631E0,4.895098325E0,4.181433375E0,9.004501548E0
1.606574858E1,6.114274364E0,6.337839730E0,3.635342610E0,9.527238809E0
1.607571858E1,5.306718918E0,7.772722478E0,2.819995165E0,9.824909828E0
1.608568858E1,4.203866803E0,9.245181772E0,2.015356311E0,1.035410755E1
1.609565858E1,3.025415452E0,1.058625296E1,1.338063381E0,1.109109120E1
1.610562858E1,1.852214316E0,1.146648813E1,6.101896977E-1,1.163113835E1
1.611559858E1,9.485557884E-1,1.165036786E1,-3.219301522E-2,1.168896341E1
1.612556858E1,1.896287119E-1,1.141853277E1,-5.342995629E-1,1.143259926E1
1.613553858E1,-5.727710259E-1,1.123952845E1,-8.383258331E-1,1.128529382E1
1.614550858E1,-1.365334210E0,1.111277602E1,-1.085428582E0,1.124882588E1
1.615547858E1,-1.981850595E0,1.094433645E1,-1.281609099E0,1.119592577E1
1.616544858E1,-2.442854433E0,1.073135980E1,-1.577830798E0,1.111841585E1
1.617541758E1,-2.826780274E0,1.044722605E1,-1.891498834E0,1.098694620E1
1.618538758E1,-3.105329348E0,1.017540888E1,-1.871588773E0,1.080207669E1
1.619535758E1,-3.320660082E0,1.001199206E1,-1.748360896E0,1.069221840E1
1.620532758E1,-3.416388942E0,9.834344298E0,-1.610357835E0,1.053467102E1
1.621529758E1,-3.505287085E0,9.596036931E0,-1.500512627E0,1.032581718E1
1.622526758E1,-3.694253308E0,9.325855222E0,-1.393275277E0,1.012720589E1
1.623523758E1,-3.840959364E0,8.975224596E0,-1.166833957E0,9.832045915E0
1.624520758E1,-3.880110565E0,8.557891273E0,-7.862530155E-1,9.429260568E0
1.625517758E1,-3.851666785E0,8.005390790E0,-4.862908526E-1,8.897083652E0
1.626514758E1,-3.969692248E0,7.228339684E0,-2.318130107E-1,8.249914448E0
1.627511758E1,-4.043022180E0,6.247697300E0,5.467672884E-2,7.441958038E0
1.628508758E1,-3.863996809E0,5.008409763E0,1.535769729E-1,6.327576596E0
1.629505758E1,-3.664713174E0,3.457217710E0,-6.975552857E-2,5.038585394E0
1.630502758E1,-3.322511895E0,1.555428945E0,-1.993198872E-1,3.673985971E0
1.631499758E1,-2.267536781E0,-1.110425429E0,-2.207603113E-1,2.534463021E0
1.632496758E1,-3.591962117E-1,-5.286702729E0,-6.979525309E-1,5.344659522E0
1.633493658E1,2.042152930E0,-1.103864736E1,-1.448967521E0,1.131908260E1
1.634490658E1,4.553535562E0,-1.757236940E1,-1.609906869E0,1.822401307E1
1.635487658E1,7.206631311E0,-2.385851565E1,-1.104626160E0,2.494763521E1
1.636484658E1,9.934353905E0,-2.877470488E1,-1.765134072E-1,3.044184925E1
1.637481658E1,9.887405441E0,-2.854032275E1,8.356197417E-1,3.021603994E1
1.638478658E1,8.085663705E0,-2.392893718E1,1.457408123E0,2.530011918E1
1.639475658E1,7.294405035E0,-1.957387716E1,2.077642021E0,2.099194151E1
1.640472658E1,7.656383352E0,-1.775511477E1,2.330562457E0,1.947551868E1
1.641469658E1,9.248224663E0,-1.773950738E1,2.448301845E0,2.015475039E1
1.642466658E1,1.147989462E1,-1.814248111E1,2.547730093E0,2.162009551E1
1.643463658E1,1.264980085E1,-1.674534506E1,3.289801986E0,2.124257141E1
1.644460658E1,1.226182055E1,-1.309052889E1,4.786551491E0,1.856408535E1
1.645457658E1,1.147857081E1,-8.773352984E0,5.726398144E0,1.554094419E1
1.646454658E1,1.031794996E1,-4.873015730E0,5.856792222E0,1.282608237E1
1.647451658E1,8.903213797E0,-1.801277466E0,5.681825988E0,1.071424113E1
1.648448658E1,7.493389292E0,5.817476714E-1,5.328609724E0,9.213218494E0
1.649445658E1,6.279338923E0,2.055359452E0,4.602404251E0,8.052125475E0
1.650442558E1,5.422972090E0,2.630525497E0,3.292158998E0,6.867794519E0
1.651439558E1,4.360569259E0,3.205489814E0,1.838577440E0,5.715776081E0
1.652436558E1,3.222312838E0,3.984328414E0,5.722295737E-1,5.156124477E0
1.653433558E1,2.110341405E0,4.695644537E0,-5.636418046E-1,5.178832933E0
1.654430558E1,9.406006515E-1,5.382885919E0,-1.380676866E0,5.636174146E0
1.655427558E1,-2.896693093E-1,6.002211306E0,-1.826375470E0,6.280612727E0
1.656424558E1,-1.427061512E0,6.376078182E0,-2.165236381E0,6.883249678E0
1.657421558E1,-2.212642536E0,6.366021556E0,-2.683179089E0,7.254065582E0
1.658418558E1,-2.787161295E0,6.589924892E0,-3.084090507E0,7.791469208E0
1.659415558E1,-3.430262631E0,7.135812174E0,-3.280066079E0,8.570026288E0
1.660412558E1,-4.039195177E0,7.445024047E0,-3.575513022E0,9.193898744E0
1.661409558E1,-4.590841967E0,7.449303040E0,-3.911138815E0,9.584620628E0
1.662406558E1,-5.102826508E0,7.380125801E0,-4.067545987E0,9.851397138E0
1.663403558E1,-5.413830553E0,7.206071148E0,-4.153090752E0,9.923970246E0
1.664400558E1,-5.600336852E0,6.987627942E0,-4.264685155E0,9.918581380E0
