"Time (s)","Linear Acceleration x (m/s^2)","Linear Acceleration y (m/s^2)","Linear Acceleration z (m/s^2)","Absolute acceleration (m/s^2)"
1.078666664E-3,1.917980874E0,7.379495471E0,1.869814435E0,7.850592975E0
1.104866667E-2,2.583508328E0,9.085839883E0,1.609083581E0,9.582074495E0
2.101766667E-2,2.806917282E0,1.008886775E1,1.405004060E0,1.056589199E1
3.098666666E-2,2.723881265E0,1.061980662E1,9.537299895E-1,1.100497264E1
4.095566667E-2,2.638272473E0,1.071427892E1,4.459121740E-1,1.104332794E1
5.092566667E-2,2.703079503E0,1.044549177E1,2.634930789E-2,1.078960756E1
6.089466667E-2,3.107778747E0,1.029408397E1,-1.036861024E0,1.080284843E1
7.086366666E-2,3.601279070E0,1.031944100E1,-2.169988852E0,1.114311111E1
8.083366667E-2,4.087506334E0,1.041967748E1,-2.304392366E0,1.142749365E1
9.080266667E-2,4.446126303E0,1.020136818E1,-1.333323044E0,1.120775188E1
1.007716667E-1,4.590275664E0,1.006729035E1,-1.230727980E-1,1.106508530E1
1.107416667E-1,4.489918440E0,1.017079776E1,7.516870540E-1,1.114313817E1
1.207106667E-1,4.306910530E0,1.039083434E1,7.538394141E-1,1.127329545E1
1.306796667E-1,3.959500551E0,1.056824237E1,1.089107869E-1,1.128615315E1
1.406486667E-1,3.376050755E0,1.074758700E1,-9.098097986E-1,1.130203959E1
1.506186667E-1,2.841056543E0,1.107787984E1,-1.831789992E0,1.158216208E1
1.605876667E-1,2.255294758E0,1.135089335E1,-2.304444991E0,1.179998310E1
1.705566667E-1,1.564479412E0,1.150133753E1,-2.247184963E0,1.182278314E1
1.805266667E-1,9.223263484E-1,1.139263662E1,-1.702501622E0,1.155600999E1
1.904956667E-1,6.298443823E-1,1.111368935E1,-6.881880462E-1,1.115277534E1
2.004646667E-1,7.740964349E-1,1.066453782E1,6.446508479E-1,1.071201041E1
2.104346667E-1,1.070372367E0,9.992357115E0,1.963419002E0,1.023952694E1
2.204036667E-1,1.332596235E0,9.297042482E0,2.900036530E0,9.829599357E0
2.303726667E-1,1.537624320E0,8.633352515E0,3.240554981E0,9.348810662E0
2.403416667E-1,1.627121949E0,8.206516297E0,2.713707987E0,8.795376434E0
2.503116667E-1,1.763957613E0,7.887473500E0,1.656505669E0,8.250320946E0
2.602806667E-1,2.063734711E0,7.342398396E0,2.075340374E-1,7.629736925E0
2.702496667E-1,2.425083575E0,6.407659578E0,-2.199427829E0,7.195596875E0
2.802196667E-1,2.563174636E0,4.679730170E0,-7.943358264E0,9.569047977E0
2.901886667E-1,2.548374749E0,1.611340021E0,-1.064992446E1,1.106849229E1
3.001576667E-1,2.107335790E0,-4.399245667E0,8.205725169E-1,4.946470037E0
3.101276667E-1,1.278885904E0,-2.883887690E1,1.439508480E1,3.225732222E1
3.200966667E-1,-1.772719227E0,-6.164367694E1,1.320746852E1,6.306760392E1
3.300656667E-1,-5.117715273E0,-6.917460068E1,-4.774524645E0,6.952778203E1
3.400356667E-1,-6.358602608E0,-5.412353547E1,-1.305879020E1,5.603856636E1
3.500046667E-1,-2.455721523E0,-1.710368700E1,-3.165800668E0,1.756670063E1
3.599736667E-1,-1.491831704E0,-8.057416391E0,7.501544988E-1,8.228623974E0
3.699426667E-1,-2.552057910E0,-1.046585645E1,1.252730870E-1,1.077324669E1
3.799126667E-1,-2.201377583E0,-1.272279983E1,1.396264812E0,1.298711878E1
3.898816667E-1,-1.932433437E0,-1.214451956E1,9.817790830E-1,1.233643160E1
3.998506667E-1,-1.557546076E0,-9.781478451E0,4.925004494E-1,9.916946464E0
4.098206667E-1,-7.799769066E-1,-7.721495022E0,1.110539449E0,7.839843571E0
4.197896667E-1,3.357304582E-1,-5.670684119E0,1.751804760E0,5.944593614E0
4.297586667E-1,2.012191651E0,-3.345686749E0,1.581007590E0,4.212139607E0
4.397286667E-1,3.929676243E0,-1.129385026E0,9.826175737E-1,4.205163874E0
4.496976667E-1,5.210891824E0,9.688836336E-1,4.277565694E-1,5.317434041E0
4.596666667E-1,5.711220526E0,3.136442383E0,-3.391402620E-1,6.524593998E0
4.696366667E-1,5.201730992E0,5.375355290E0,-4.580416381E-1,7.494147846E0
4.796056667E-1,4.276299772E0,7.175119497E0,1.783839315E-1,8.354693313E0
4.895746667E-1,3.426420718E0,8.366759827E0,5.496049422E-1,9.057874725E0
4.995436667E-1,2.743377052E0,9.294069173E0,2.875064059E-1,9.694766597E0
5.095136667E-1,2.297373076E0,1.012290556E1,-2.593322186E-1,1.038356361E1
5.194826667E-1,1.928355881E0,1.075199463E1,-1.243491100E0,1.099409910E1
5.294516667E-1,1.852595262E0,1.127342242E1,-2.849880869E0,1.177471797E1
5.394216667E-1,2.000196527E0,1.176420613E1,-4.499889697E0,1.275328739E1
5.493906667E-1,2.517682129E0,1.177897620E1,-4.809606770E0,1.296978492E1
5.593596667E-1,3.182438920E0,1.118680177E1,-2.017164854E0,1.180429606E1
5.693296667E-1,3.921044291E0,1.068812081E1,3.155596107E-1,1.138903388E1
5.792986667E-1,4.241035506E0,1.025533096E1,2.006149870E0,1.127753664E1
5.892676667E-1,4.330925337E0,9.921003542E0,2.578627950E0,1.112800735E1
5.992376667E-1,4.075062582E0,9.707942113E0,2.173684877E0,1.075058980E1
6.092066667E-1,3.498359889E0,9.690951859E0,1.144577846E0,1.036644241E1
6.191756667E-1,2.976922154E0,9.965735911E0,-2.352598347E-1,1.040352368E1
6.291446667E-1,2.518607451E0,1.036645028E1,-1.463083284E0,1.076788222E1
6.391146667E-1,2.068394065E0,1.063358266E1,-2.129722002E0,1.104024683E1
6.490836667E-1,1.686006919E0,1.065859471E1,-1.401492223E0,1.088174807E1
6.590526667E-1,1.499188233E0,1.049879031E1,-1.957518796E-1,1.060709584E1
6.690226667E-1,1.452008804E0,1.035798936E1,3.452605426E-1,1.046496431E1
6.789916667E-1,1.381231766E0,1.015678667E1,4.165989125E-1,1.025873634E1
6.889606667E-1,1.317762287E0,9.925229909E0,4.003851682E-1,1.002032906E1
6.989306667E-1,1.270668958E0,9.726856686E0,4.867426962E-1,9.821571109E0
7.088996667E-1,1.312273067E0,9.318525152E0,5.658444142E-1,9.427467927E0
7.188686667E-1,1.426398730E0,8.928463828E0,6.927102828E-1,9.068182133E0
7.288386667E-1,1.633256994E0,8.892646708E0,7.950634539E-1,9.076277860E0
7.388076667E-1,2.245944768E0,8.716483549E0,2.486978692E-1,9.004621258E0
7.487766667E-1,3.157544107E0,7.761211649E0,-3.205123193E0,8.971025902E0
7.587466667E-1,3.417114874E0,5.655293078E0,-1.264246611E1,1.426502587E1
7.687156667E-1,1.892286162E0,4.288128689E0,-1.186541091E1,1.275761618E1
7.786846667E-1,1.491387755E0,1.654114158E0,-6.052809602E-1,2.307963631E0
7.886546667E-1,1.437905612E0,-8.046128926E0,9.855036424E0,1.280349586E1
7.986236667E-1,-7.751518574E-1,-3.253874705E1,1.793809636E1,3.716377565E1
8.085926667E-1,-1.346688463E0,-5.927329991E1,9.926501094E0,6.011383432E1
8.185626667E-1,2.885515555E0,-6.675865747E1,-1.644288263E1,6.881433671E1
8.285316667E-1,1.318688925E0,-3.532987334E1,-8.325763829E0,3.632158083E1
8.385006667E-1,-2.748886298E0,-1.022755318E1,9.756589193E0,1.439966154E1
8.484696667E-1,-3.621829110E0,-4.697054885E0,8.298983581E0,1.020064210E1
8.584392083E-1,-6.103799077E0,-4.797366793E0,4.634445823E0,9.041525281E0
8.684082083E-1,-6.325440710E0,-8.425043703E0,2.427884392E0,1.081143766E1
8.783782083E-1,-5.247822838E0,-1.166127408E1,2.838261867E0,1.309888118E1
8.883472083E-1,-4.301622016E0,-1.245145277E1,2.188062011E0,1.335403473E1
8.983162083E-1,-3.847251552E0,-1.144994285E1,1.150896932E0,1.213371746E1
9.082852083E-1,-3.564220587E0,-1.023077850E1,1.990614402E-1,1.083568745E1
9.182552083E-1,-2.927513766E0,-9.485573671E0,-1.525864838E0,1.004364019E1
9.282242083E-1,-1.420241612E0,-8.639757555E0,-4.053800937E0,9.648616423E0
9.381932083E-1,-1.358834445E-2,-7.053330765E0,-4.863909277E0,8.567804443E0
9.481632083E-1,5.752131155E-1,-5.381715891E0,-3.212565529E0,6.293990256E0
9.581322083E-1,1.056420253E0,-2.904188054E0,-1.887404029E0,3.621136006E0
9.681012083E-1,1.536499169E0,1.973295534E0,-9.325139523E-1,2.669139793E0
9.780712083E-1,1.510474382E0,6.131211993E0,-5.113659060E-1,6.335202321E0
9.880402083E-1,1.477372710E0,8.289857832E0,3.664098303E-2,8.420553162E0
9.980092083E-1,1.899083843E0,9.329279351E0,5.070243484E-1,9.534099136E0
1.007979208E0,2.437071244E0,9.926787608E0,5.021717807E-1,1.023389491E1
1.017948208E0,2.871788632E0,1.024913525E1,6.081517238E-2,1.064404255E1
1.027917208E0,3.225724688E0,1.028696908E1,-5.244005191E-1,1.079361054E1
1.037887208E0,3.636898262E0,1.025798092E1,-6.592566079E-1,1.090356918E1
1.047856208E0,3.896792087E0,1.024256532E1,-1.315549847E0,1.103747273E1
1.057825208E0,4.060306841E0,1.031845984E1,-2.070268682E0,1.128019138E1
1.067795208E0,4.173153718E0,1.034833210E1,-2.084085068E0,1.135106161E1
1.077764208E0,4.182591417E0,1.009561310E1,-5.329877400E-1,1.094072898E1
1.087733208E0,4.047864551E0,9.906479058E0,1.050223081E0,1.075297648E1
1.097703208E0,3.865950363E0,9.891374531E0,1.794688239E0,1.077059739E1
1.107672208E0,3.660035986E0,9.955191042E0,1.908990780E0,1.077710248E1
1.117641208E0,3.266411076E0,9.961580880E0,1.551371562E0,1.059760769E1
1.127611208E0,2.778320305E0,9.980672039E0,1.075439783E0,1.041582684E1
1.137580208E0,2.513239707E0,1.008457238E1,6.404180485E-1,1.041273784E1
1.147549208E0,2.321267138E0,1.014762993E1,2.381687880E-1,1.041246362E1
1.157519208E0,2.276635634E0,1.016707777E1,-2.210767919E-1,1.042120027E1
1.167488208E0,2.340103944E0,1.019186411E1,-6.370564842E-1,1.047645081E1
1.177457208E0,2.249377668E0,1.020020575E1,-9.993593216E-1,1.049297938E1
1.187427208E0,2.175225765E0,1.015142828E1,-1.296147616E0,1.046246156E1
1.197396208E0,2.144917892E0,1.001325389E1,-1.393778576E0,1.033482196E1
1.207365208E0,2.126345527E0,9.756872199E0,-1.360448277E0,1.007813077E1
1.217335208E0,2.091692296E0,9.413783897E0,-1.235900829E0,9.722240214E0
1.227304208E0,1.962140070E0,8.995215057E0,-1.093258588E0,9.271413157E0
1.237273208E0,1.942746171E0,8.580526430E0,-1.120022464E0,8.868717315E0
1.247243208E0,2.224400994E0,7.918112910E0,-2.087382313E0,8.485377821E0
1.257212208E0,2.815423812E0,6.718584101E0,-5.156948336E0,8.925250680E0
1.267181208E0,2.490488191E0,5.496037728E0,-7.101576726E0,9.318870861E0
1.277151208E0,9.258604056E-1,3.883232394E0,-8.686048207E0,9.559505467E0
1.287120208E0,4.569019062E-1,1.067422666E0,-1.191508183E0,1.663683339E0
1.297089208E0,1.922767113E0,-3.345185058E0,1.093743556E1,1.159805127E1
1.307059208E0,1.487879864E0,-1.826256421E1,1.869124581E1,2.617437120E1
1.317028208E0,1.214826514E0,-4.767302749E1,1.159566949E1,4.907802874E1
1.326997208E0,3.133673434E-1,-6.381888794E1,-1.585483283E1,6.575959535E1
1.336967208E0,-7.832002135E0,-4.914852324E1,1.729499971E0,4.979868236E1
1.346936208E0,-7.505750306E0,-1.793526748E1,8.361832379E0,2.116436505E1
1.356905208E0,-5.013081104E0,-2.231394557E0,-8.244533139E-1,5.548858179E0
1.366875208E0,-6.490880660E0,-4.239421383E0,5.957190084E-1,7.775545417E0
1.376844208E0,-7.005962471E0,-1.056557019E1,3.102302245E0,1.305140080E1
1.386813208E0,-7.012351724E0,-1.193799824E1,3.787105923E0,1.435378173E1
1.396783208E0,-6.097354860E0,-1.151006158E1,3.282728609E0,1.343263046E1
1.406752208E0,-5.171492701E0,-1.070580513E1,4.510004210E-1,1.189798309E1
1.416721208E0,-4.654460550E0,-1.009430098E1,-4.701624484E0,1.206914198E1
1.426691208E0,-4.351430353E0,-9.965062312E0,-6.165078481E0,1.249982423E1
1.436660208E0,-4.617503808E0,-1.077516480E1,-3.632617807E0,1.227279227E1
1.446629208E0,-3.776260507E0,-1.124146037E1,-2.243136935E0,1.206906119E1
1.456599208E0,-1.402719553E0,-8.408967953E0,-3.071952857E0,9.061746992E0
1.466568208E0,2.364222246E-1,-3.316853544E0,-3.168747665E0,4.593296710E0
1.476537208E0,1.014384912E0,1.327281700E0,-3.139567720E0,3.556337853E0
1.486507208E0,1.857014880E0,4.254957435E0,-1.881562661E0,5.009335792E0
1.496476208E0,2.998433183E0,6.391059333E0,1.576351416E-1,7.061238545E0
1.506445208E0,4.230573668E0,7.376947255E0,1.781684031E0,8.688584600E0
1.516415208E0,5.269223063E0,8.226681005E0,2.645860405E0,1.012144107E1
1.526384208E0,5.721357259E0,8.761370870E0,2.356478194E0,1.072606815E1
1.536353208E0,5.805470041E0,9.011642225E0,1.581259021E0,1.083575369E1
1.546323208E0,5.589561603E0,9.235544391E0,1.190391438E0,1.086073252E1
1.556292208E0,5.402793934E0,9.388954865E0,7.949956262E-1,1.086161470E1
1.566261208E0,5.313270723E0,9.495878220E0,3.842509460E-1,1.088807594E1
1.576231208E0,5.130117803E0,9.658393393E0,-3.092112887E-1,1.094067106E1
1.586200208E0,5.090622200E0,9.714563500E0,-1.589101306E0,1.108207658E1
1.596169208E0,5.495617898E0,9.504147937E0,-2.633529797E0,1.129008960E1
1.606139208E0,5.822715234E0,9.071970872E0,-2.168416536E0,1.099575820E1
1.616108208E0,6.029035993E0,8.648290982E0,-7.519110024E-1,1.056918077E1
1.626077208E0,6.163844719E0,8.446650335E0,4.410455364E-1,1.046582079E1
1.636047208E0,6.165008315E0,8.416489227E0,1.218912329E0,1.050382624E1
1.646016208E0,5.913099740E0,8.655131055E0,1.536367607E0,1.059417139E1
1.655985208E0,5.146813942E0,8.973632984E0,1.276061261E0,1.042324878E1
1.665955208E0,4.220192522E0,9.428537591E0,4.802272169E-1,1.034108138E1
1.675924208E0,3.518875430E0,1.011881602E1,-6.324710977E-1,1.073186571E1
1.685893208E0,2.572183149E0,1.063899835E1,-1.707419715E0,1.107789214E1
1.695863208E0,1.766996557E0,1.098052136E1,-2.513456054E0,1.140226238E1
1.705832208E0,1.246518935E0,1.114940181E1,-2.715674406E0,1.154287042E1
1.715801208E0,9.074970055E-1,1.111124171E1,-1.956943211E0,1.131869559E1
1.725771208E0,6.309113529E-1,1.092135689E1,-9.989751595E-1,1.098508247E1
1.735740208E0,3.742761809E-1,1.073144400E1,-3.554721200E-1,1.074385096E1
1.745709208E0,6.159113444E-2,1.050073159E1,-5.928842783E-2,1.050107958E1
1.755679208E0,-2.885752587E-1,1.015280705E1,-1.327200917E-1,1.015777443E1
1.765648208E0,-6.238985679E-1,9.645375736E0,-6.097809774E-1,9.684748596E0
1.775617208E0,-8.285150823E-1,8.959499094E0,-1.285993341E0,9.089160585E0
1.785587208E0,-7.550340734E-1,8.160567123E0,-2.205649266E0,8.487038406E0
1.795556208E0,-5.373711783E-1,6.794874478E0,-2.854400766E0,7.389634002E0
1.805526208E0,-3.944134434E-1,4.326089982E0,4.861328316E-1,4.371148777E0
1.815495208E0,1.193074653E0,-6.873471581E0,9.567263367E0,1.184063204E1
1.825464208E0,5.448481153E0,-3.874807141E1,1.935450717E1,4.365427737E1
1.835434208E0,7.934976865E0,-5.626353687E1,1.247421832E1,5.817349536E1
1.845403208E0,6.972575455E0,-5.918075954E1,-6.020416027E0,5.989344302E1
1.855372208E0,1.805937259E0,-5.014454731E1,-9.178146953E0,5.100956201E1
1.865342208E0,-1.408554051E0,-2.821765936E1,-2.195014935E0,2.833793243E1
1.875311208E0,-3.197119817E0,-1.494462718E1,-1.774419451E-1,1.528381308E1
1.885280208E0,-4.482653567E0,-8.061953246E0,9.180298144E-1,9.269954255E0
1.895250208E0,-5.725449725E0,-6.033782762E0,1.810448239E0,8.512639532E0
1.905219208E0,-6.273383533E0,-5.718524868E0,9.818036413E-1,8.545221238E0
1.915188208E0,-6.039782006E0,-5.175181124E0,5.957780653E-1,7.975990086E0
1.925158208E0,-5.780909396E0,-5.357845802E0,8.455208319E-1,7.927189323E0
1.935127208E0,-4.802210919E0,-4.061032773E0,9.204084617E-1,6.356128431E0
1.945096208E0,-4.261512163E0,-3.393350328E0,1.413546660E-1,5.449338814E0
1.955066208E0,-3.443367410E0,-3.448694808E0,-1.090427366E0,4.993926996E0
1.965035208E0,-1.923654135E0,-2.743797759E0,-2.450681516E0,4.151470976E0
1.975004208E0,-5.007087708E-2,-9.433605373E-1,-3.315156682E0,3.447129244E0
1.984974208E0,1.474763097E0,9.844097453E-1,-2.885262955E0,3.386551500E0
1.994943208E0,2.966448329E0,3.825402262E0,-1.142616690E0,4.973840674E0
2.004912208E0,4.153542157E0,7.248637124E0,1.621078413E-2,8.354335125E0
2.014882208E0,4.684115582E0,8.937918191E0,6.253195144E-2,1.009114615E1
2.024851208E0,4.885277634E0,9.528658880E0,4.438913763E-1,1.071719726E1
2.034820208E0,5.031761788E0,9.817875030E0,3.152409009E-1,1.103669668E1
2.044790208E0,5.294695289E0,9.852651930E0,-5.403137896E-1,1.119823590E1
2.054759208E0,5.672137152E0,9.891248231E0,-2.850007753E0,1.175297731E1
2.064728208E0,6.570230885E0,1.015325495E1,-7.489666370E0,1.422503505E1
2.074698208E0,7.358347262E0,9.773567169E0,-6.621183522E0,1.391071389E1
2.084667208E0,7.110452800E0,8.816535257E0,-1.108412232E0,1.138061556E1
2.094636208E0,6.735603592E0,8.337034922E0,1.178512162E0,1.078255062E1
2.104606208E0,6.417257783E0,8.109251958E0,1.990907933E0,1.053113855E1
2.114575208E0,6.388883584E0,7.918802297E0,2.103537000E0,1.038990525E1
2.124545208E0,6.104706565E0,8.196208826E0,1.811869698E0,1.037921737E1
2.134514208E0,5.264675099E0,8.910294190E0,8.791744816E-1,1.038667869E1
2.144483208E0,4.196443470E0,9.580888549E0,1.967412651E-1,1.046146597E1
2.154453208E0,3.203126661E0,1.010385299E1,3.555212367E-1,1.060538830E1
2.164422208E0,2.391448929E0,1.035223804E1,6.298690867E-1,1.064352364E1
2.174391208E0,1.787365479E0,1.036830034E1,7.108039069E-1,1.054521548E1
2.184361208E0,1.397674575E0,1.029169713E1,7.397686744E-1,1.041248202E1
2.194330208E0,1.055039725E0,1.024509132E1,6.806392908E-1,1.032173797E1
2.204299208E0,7.630253899E-1,1.026449004E1,6.610926336E-1,1.031401992E1
2.214269208E0,5.622580245E-1,1.026952332E1,5.875141954E-1,1.030167056E1
2.224238208E0,4.155209783E-1,1.026701721E1,5.680540770E-1,1.029111196E1
2.234207208E0,1.999554795E-1,1.026371119E1,5.552422428E-1,1.028066357E1
2.244177208E0,-1.250755973E-2,1.012911062E1,6.634864837E-1,1.015082523E1
2.254146208E0,-2.272737441E-1,9.278742451E0,5.554656065E-1,9.298131902E0
2.264115208E0,-4.346950217E-1,8.305721912E0,-1.287145243E0,8.416098807E0
2.274085208E0,-7.185819463E-1,6.032013395E0,-1.337101047E1,1.468623391E1
2.284054208E0,-5.575606638E-1,4.526894478E0,-8.767956004E0,9.883354693E0
2.294023208E0,5.649587072E-1,2.417198605E0,6.837222937E0,7.273901631E0
2.303993208E0,2.175308357E0,-1.099122176E1,1.264198780E1,1.689256576E1
2.313962208E0,8.686223770E-1,-4.406100124E1,9.434073150E0,4.506803824E1
2.323931208E0,-3.360477574E0,-6.909740808E1,-1.291929435E0,6.919113884E1
2.333901208E0,-4.497430650E0,-6.628646440E1,4.507198716E0,6.659156918E1
2.343870208E0,-2.635250925E0,-3.671756262E1,-1.371436949E0,3.683754595E1
2.353840208E0,-1.043905092E0,-9.570466472E0,-1.419421540E1,1.715107335E1
2.363809208E0,-5.117954205E-1,-5.973079893E0,-1.269920164E1,1.404312431E1
2.373778208E0,-1.899384097E0,-7.378216685E0,-2.404551662E0,7.989218366E0
2.383748208E0,-4.594360237E0,-1.101908374E1,1.122940736E0,1.199121964E1
2.393717208E0,-5.773101609E0,-1.378100436E1,8.453881001E-1,1.496527529E1
2.403686208E0,-4.359027641E0,-1.172535138E1,1.293625127E0,1.257610643E1
2.413656208E0,-2.825166442E0,-9.467485895E0,6.744564450E-1,9.903017019E0
2.423625208E0,-1.892820744E0,-8.170232570E0,5.778189272E-1,8.406506131E0
2.433594208E0,-1.067832117E0,-6.862287612E0,3.426597011E-1,6.953320960E0
2.443564208E0,4.378190428E-1,-4.994707398E0,2.270812976E-1,5.018999245E0
2.453533208E0,2.617235361E0,-2.215556788E0,8.244416195E-1,3.526799796E0
2.463502208E0,4.309882085E0,7.659776491E-1,1.980218053E0,4.804484248E0
2.473472208E0,5.358848600E0,3.124243337E0,2.581803573E0,6.718918397E0
2.483441208E0,6.066083366E0,4.958950505E0,2.177215426E0,8.131963141E0
2.493410208E0,6.214583348E0,6.865980713E0,1.065479636E0,9.321908828E0
2.503380208E0,5.908813730E0,8.301192074E0,9.066630464E-2,1.018980323E1
2.513349208E0,5.406764778E0,9.224526483E0,-3.269207873E-1,1.069728337E1
2.523318208E0,4.851693859E0,9.610511128E0,-4.922525275E-1,1.077697406E1
2.533288208E0,4.347341103E0,9.777219340E0,-3.469258296E-1,1.070578116E1
2.543257208E0,3.864624799E0,9.825948865E0,-5.351313293E-1,1.057217865E1
2.553227208E0,3.603539312E0,1.003871735E1,-2.318576542E0,1.091499605E1
2.563196208E0,3.531503077E0,1.043467091E1,-4.754376310E0,1.199824842E1
2.573165208E0,3.524023318E0,1.044139404E1,-4.127336690E0,1.176759780E1
2.583135208E0,3.508218879E0,1.012641389E1,-1.479678851E0,1.081856310E1
2.593104208E0,3.535729736E0,9.868762178E0,-1.736055869E-1,1.048446425E1
2.603073208E0,3.685198017E0,9.674020661E0,-1.813315129E-1,1.035375494E1
2.613043208E0,3.868291881E0,9.567616539E0,-4.479264667E-1,1.032974377E1
2.623012208E0,4.033074312E0,9.515012648E0,-8.459862703E-1,1.036903307E1
2.632981208E0,4.129187334E0,9.592976498E0,-1.795669987E0,1.059716079E1
2.642951208E0,4.162414137E0,9.975338209E0,-3.880504083E0,1.148439706E1
2.652920208E0,3.915166670E0,1.044105724E1,-3.716617153E0,1.175403971E1
2.662889208E0,3.450423245E0,1.035512773E1,-3.198848327E-1,1.091954290E1
2.672859208E0,3.200888347E0,1.009323562E1,1.655627418E0,1.071728481E1
2.682828208E0,2.966442482E0,1.003379048E1,1.862618267E0,1.062760929E1
2.692797208E0,2.627556281E0,9.970896664E0,1.356088008E0,1.040008687E1
2.702767208E0,2.376017396E0,9.899871705E0,8.190873241E-1,1.021390339E1
2.712736208E0,2.191454127E0,9.864425883E0,5.054426765E-1,1.011755116E1
2.722706208E0,2.037996583E0,9.826271632E0,2.731971180E-1,1.003910758E1
2.732675208E0,1.938911129E0,9.700616722E0,4.155149757E-2,9.892576392E0
2.742644208E0,1.990264300E0,9.232045417E0,-2.873087883E-1,9.448511042E0
2.752614208E0,2.169281047E0,8.603579662E0,-5.355347872E-1,8.888990987E0
2.762583208E0,2.367878364E0,7.897128423E0,-1.470382948E0,8.374575290E0
2.772552208E0,2.615472425E0,5.520390211E0,-1.055354364E1,1.219396110E1
2.782522208E0,1.752905059E0,3.175088970E0,-1.252846528E1,1.304286427E1
2.792491208E0,2.148062963E0,3.008706449E0,7.408706406E0,8.279820022E0
2.802460208E0,2.927116156E0,-6.888928696E0,1.373354017E1,1.564082713E1
2.812430208E0,1.629626311E-2,-3.048151649E1,1.744254133E1,3.511930183E1
2.822399208E0,-6.875863677E0,-6.241711388E1,-5.130288541E-1,6.279678977E1
2.832368208E0,-1.003575866E1,-6.417085758E1,-9.099921148E0,6.558524208E1
2.842338208E0,-8.273343540E0,-3.580657110E1,9.103831181E0,3.786077772E1
2.852307208E0,-5.218665698E0,-1.297092175E1,3.690897591E0,1.446035988E1
2.862276417E0,-3.864623630E0,-6.768594167E0,-7.716073483E-1,7.832276853E0
2.872246417E0,-4.576671240E0,-1.125363311E1,-1.231528282E0,1.221093115E1
2.882215417E0,-6.157024527E0,-1.585931648E1,-2.130153526E0,1.714539075E1
2.892185417E0,-6.700385812E0,-1.329656372E1,-2.316579133E0,1.506852068E1
2.902154417E0,-5.350649049E0,-9.799125348E0,5.980292068E-1,1.118078449E1
2.912123417E0,-4.207573938E0,-7.729864141E0,1.069948078E0,8.865622763E0
2.922093417E0,-3.942184022E0,-6.040087815E0,-1.674679985E0,7.404595109E0
2.932062417E0,-4.126609882E0,-4.860931875E0,-6.397585995E0,9.032534216E0
2.942031417E0,-3.721660962E0,-4.271495699E0,-7.120031124E0,9.098971317E0
2.952001417E0,-2.044207057E0,-3.330294539E0,-4.561480173E0,6.006392060E0
2.961970417E0,-7.661185670E-1,-1.943544316E0,-2.249533204E0,3.069967721E0
2.971939417E0,4.700380781E-1,9.654168195E-1,2.085251588E-1,1.093822733E0
2.981909417E0,1.707810601E0,3.677982845E0,2.348007333E0,4.685863132E0
2.991878417E0,2.912560974E0,5.625029059E0,3.074710404E0,7.041151000E0
3.001847417E0,3.823693998E0,7.079883556E0,2.922125557E0,8.560619413E0
3.011817417E0,4.562271302E0,8.333331880E0,2.423853321E0,9.804784780E0
3.021786417E0,5.204887319E0,9.238699549E0,1.877696482E0,1.076894449E1
3.031755417E0,5.612728856E0,9.637484919E0,1.061930376E0,1.120319316E1
3.041725417E0,5.918667458E0,9.757178008E0,3.776751673E-1,1.141822165E1
3.051694417E0,6.095941004E0,9.767174993E0,-4.222804327E-2,1.151346982E1
3.061664417E0,6.441659968E0,9.784239507E0,-5.705882603E-1,1.172825208E1
3.071633417E0,6.900826610E0,9.764105789E0,-7.109617817E-1,1.197767241E1
3.081602417E0,7.033028063E0,9.770441832E0,-2.156371272E-1,1.204041182E1
3.091572417E0,7.037464346E0,9.692272745E0,1.662538826E-1,1.197888541E1
3.101541417E0,6.954394122E0,9.515140117E0,-1.410623965E-1,1.178649175E1
3.111510417E0,6.808266356E0,9.359767903E0,-1.037933330E0,1.162045832E1
3.121480417E0,6.711539376E0,9.350097778E0,-2.408517829E0,1.175882849E1
3.131449417E0,6.485314111E0,9.345772008E0,-3.935081994E0,1.203692751E1
3.141418417E0,6.053487879E0,9.456400158E0,-4.931107818E0,1.226311721E1
3.151388417E0,5.327274220E0,9.667177080E0,-4.656941816E0,1.198003633E1
3.161357417E0,4.265650530E0,9.802682794E0,-2.916742610E0,1.108132446E1
3.171326417E0,3.264626214E0,9.764390548E0,-7.939951676E-1,1.032625467E1
3.181296417E0,2.706290794E0,9.605166188E0,6.475545752E-1,1.000012771E1
3.191265417E0,2.391138149E0,9.298748115E0,1.234546614E0,9.680308027E0
3.201235417E0,2.137459914E0,8.951437538E0,1.146578763E0,9.274244538E0
3.211204417E0,1.920540639E0,8.903039550E0,1.028840983E0,9.165757107E0
3.221173417E0,1.678333472E0,8.948682915E0,9.957936895E-1,9.159002906E0
3.231143417E0,1.435265740E0,9.002325856E0,8.270453846E-1,9.153461784E0
3.241112417E0,1.308550584E0,8.875825438E0,2.746542442E-1,8.975968850E0
3.251081417E0,1.551245116E0,7.688234305E0,-6.380466517E0,1.011067066E1
3.261051417E0,1.345507325E0,5.312414691E0,-1.370629566E1,1.476125606E1
3.271020417E0,8.936441477E-1,4.864670584E0,-2.590142287E0,5.583229963E0
3.280989417E0,8.815915744E-1,1.781075336E0,1.663449238E0,2.591620425E0
3.290959417E0,1.268481661E0,-3.738082282E0,8.085338600E0,8.997499939E0
3.300928417E0,1.061671345E0,-1.549765683E1,1.086628080E1,1.895733556E1
3.310897417E0,-3.227282240E-1,-3.793272162E1,3.215974456E0,3.807017225E1
3.320867417E0,-7.513162675E-1,-5.084751829E1,-2.274500231E0,5.090390892E1
3.330836417E0,-3.295657387E0,-4.563398177E1,3.450671167E0,4.588277216E1
3.340805417E0,-5.292783834E0,-2.320784685E1,2.183297700E0,2.390365045E1
3.350775417E0,-5.401805754E0,-1.221373773E1,3.053457529E0,1.369958020E1
3.360744417E0,-6.603627257E0,-1.295906243E1,6.077021168E0,1.576310180E1
3.370714417E0,-8.608541610E0,-1.587435785E1,3.777239331E0,1.844911279E1
3.380683417E0,-9.771364523E0,-1.363101510E1,-2.011480776E0,1.689171963E1
3.390652417E0,-8.615646561E0,-9.265172233E0,-2.844120192E0,1.296772154E1
3.400622417E0,-7.266169415E0,-7.399259060E0,4.561255421E-1,1.038047702E1
3.410591417E0,-6.413893880E0,-6.479335333E0,1.235143615E0,9.200293517E0
3.420560417E0,-6.312059941E0,-6.349851081E0,-7.043865877E-1,8.981028333E0
3.430530417E0,-6.311568775E0,-6.490238051E0,-3.008508813E0,9.539927444E0
3.440499417E0,-5.713574030E0,-7.198965027E0,-4.089604608E0,1.005956716E1
3.450468417E0,-3.449745553E0,-7.248775703E0,-4.758011523E0,9.331889799E0
3.460438417E0,-8.874076536E-1,-5.240597434E0,-4.001962447E0,6.653349324E0
3.470407417E0,1.513246839E0,-1.040906128E0,-8.822607151E-1,2.037593073E0
3.480376417E0,3.546402951E0,2.772662539E0,1.372093592E0,4.706088851E0
3.490346417E0,4.738193555E0,5.121755700E0,2.305558301E0,7.348364355E0
3.500315417E0,5.614269598E0,6.948424115E0,1.666792676E0,9.087288849E0
3.510285417E0,6.041828531E0,8.448160086E0,3.503172147E-1,1.039220010E1
3.520254417E0,6.189324546E0,9.376393291E0,-1.306665953E-1,1.123572709E1
3.530223417E0,6.438279693E0,9.481897527E0,-2.060973948E-1,1.146299709E1
3.540193417E0,6.592066727E0,9.290652645E0,-5.063594469E-1,1.140298076E1
3.550162417E0,6.480023550E0,9.449970560E0,-1.577658305E0,1.156640197E1
3.560131417E0,6.482912074E0,9.852780569E0,-3.470814241E0,1.229438837E1
3.570101417E0,6.512642242E0,1.023274668E1,-4.865228409E0,1.306882018E1
3.580070417E0,6.414492635E0,1.026387491E1,-3.957705456E0,1.273405970E1
3.590039417E0,6.235107660E0,1.001704874E1,-1.895474941E0,1.195034134E1
3.600009417E0,6.235140989E0,9.596173756E0,-2.759839010E-1,1.144725736E1
3.609978417E0,6.231408126E0,9.199955313E0,5.147596665E-1,1.112360564E1
3.619948417E0,5.992686777E0,8.996557578E0,5.431162870E-1,1.082336909E1
3.629917417E0,5.715978405E0,8.845667839E0,3.791681807E-2,1.053184155E1
3.639886417E0,5.697919865E0,8.769366937E0,-1.002318013E0,1.050584260E1
3.649856417E0,5.701914682E0,8.938340945E0,-2.816817788E0,1.096996957E1
3.659825417E0,4.939251235E0,9.197206537E0,-2.746900876E0,1.079491896E1
3.669794417E0,3.805926356E0,9.434607001E0,-7.656969827E-1,1.020211628E1
3.679764417E0,3.230541917E0,9.504690558E0,9.774767017E-1,1.008617888E1
3.689733417E0,2.994699151E0,9.666282456E0,1.354188833E0,1.020975352E1
3.699702417E0,2.702334276E0,9.581048763E0,9.751600349E-1,1.000250184E1
3.709672417E0,2.538597912E0,9.493001390E0,1.046853915E0,9.882178801E0
3.719641417E0,2.440063265E0,9.580473981E0,1.140216408E0,9.951858314E0
3.729611417E0,2.361700635E0,9.588440813E0,1.035405067E0,9.929143506E0
3.739580417E0,2.310829274E0,9.447375566E0,6.541432178E-1,9.747858245E0
3.749549417E0,2.526097149E0,8.613359715E0,-1.770811719E0,9.149147858E0
3.759519417E0,3.642126549E0,5.603732915E0,-1.440968880E1,1.588414429E1
3.769488417E0,2.512537456E0,3.913897532E0,-8.468858060E0,9.661935375E0
3.779457417E0,1.017698383E0,8.209099013E-1,-4.524914610E-1,1.383600949E0
3.789427417E0,1.627314176E0,-1.355081118E0,4.313289843E0,4.805087463E0
3.799396417E0,1.374064103E0,-9.526878988E0,1.151941128E1,1.501153928E1
3.809365417E0,-2.244649318E0,-3.428148628E1,2.270941615E0,3.442986971E1
3.819335417E0,-1.084194118E1,-6.133274540E1,-3.009411038E0,6.235631405E1
3.829304417E0,-1.353655450E1,-5.302333272E1,5.363197174E0,5.498614375E1
3.839273417E0,-9.185292835E0,-2.314075122E1,7.219475305E0,2.592266952E1
3.849243417E0,-5.204297335E0,-5.355361320E0,5.547090937E0,9.302409552E0
3.859211792E0,-4.325380130E0,-1.389524142E0,3.766893268E0,5.901624819E0
3.869181792E0,-4.964800059E0,-7.805835260E0,2.624824462E0,9.616132653E0
3.879150792E0,-5.978610774E0,-1.651578572E1,-1.481952249E0,1.762700051E1
3.889119792E0,-7.147481462E0,-1.930536483E1,-6.801041536E0,2.168035444E1
3.899089792E0,-6.776180930E0,-1.562250424E1,-4.456277654E0,1.760220660E1
3.909058792E0,-5.429304625E0,-1.022446468E1,-1.692384185E0,1.169962354E1
3.919027792E0,-4.790553033E0,-7.955567835E0,-1.950852751E0,9.489272069E0
3.928997792E0,-4.579775819E0,-7.645994604E0,-2.924338143E0,9.380156374E0
3.938966792E0,-3.993916970E0,-7.756777121E0,-3.336603684E0,9.340871919E0
3.948935792E0,-2.214794019E0,-7.224108054E0,-3.126089888E0,8.177131998E0
3.958905792E0,2.771767330E-1,-4.753992732E0,-2.056264601E0,5.187050988E0
3.968874792E0,1.731638005E0,-1.966395820E0,-4.600501567E-1,2.660249772E0
3.978844792E0,3.018095323E0,6.372786784E-1,9.413414937E-1,3.225080976E0
3.988813792E0,4.312950119E0,3.114331137E0,1.941297816E0,5.662970455E0
3.998782792E0,5.161862336E0,5.392643752E0,2.294943851E0,7.809750104E0
4.008752792E0,5.776263784E0,7.154767093E0,1.977419575E0,9.405642117E0
4.018721792E0,6.049723442E0,8.198071164E0,1.681434104E0,1.032641008E1
4.028690792E0,5.725378974E0,8.783023109E0,1.258754087E0,1.055963641E1
4.038660792E0,5.173860823E0,9.115530875E0,7.257463934E-1,1.050659063E1
4.048629792E0,4.924272423E0,9.369685366E0,5.033641376E-2,1.058498921E1
4.058598792E0,4.935590878E0,9.492824804E0,-7.127516145E-1,1.072295645E1
4.068568792E0,5.287642962E0,9.600607114E0,-1.552885407E0,1.106988158E1
4.078537792E0,5.682677343E0,9.891625961E0,-1.866128350E0,1.155939103E1
4.088506792E0,5.923262200E0,1.010521305E1,-1.541421356E0,1.181424334E1
4.098476792E0,5.944112202E0,1.016445003E1,-1.262776387E0,1.184242874E1
4.108445792E0,5.761481438E0,1.020959170E1,-1.529343932E0,1.182240770E1
4.118415792E0,5.389512568E0,1.034695098E1,-2.572626368E0,1.194674210E1
4.128384792E0,4.945048165E0,1.063392648E1,-4.456304551E0,1.254561852E1
4.138353792E0,4.454860874E0,1.097740362E1,-6.408976956E0,1.346937865E1
4.148323792E0,3.751188231E0,1.108811948E1,-6.245125110E0,1.326723010E1
4.158292792E0,3.071059695E0,1.093900379E1,-3.405861030E0,1.186141226E1
4.168261792E0,2.716298596E0,1.076118411E1,-1.823740898E-1,1.110020819E1
4.178231792E0,2.600178156E0,1.031649634E1,1.851456517E0,1.079902378E1
4.188200792E0,2.545890267E0,9.401113565E0,2.696813042E0,1.010620077E1
4.198169792E0,2.345709085E0,8.862865670E0,3.048155859E0,9.661469512E0
4.208139792E0,2.077729145E0,9.164291975E0,3.057088065E0,9.881649318E0
4.218108792E0,1.997593347E0,9.630871133E0,3.206497289E0,1.034532178E1
4.228078792E0,2.037873061E0,9.726021119E0,3.321404432E0,1.047760186E1
4.238047792E0,2.138844827E0,9.710838239E0,3.192053497E0,1.044338269E1
4.248016792E0,2.346092954E0,9.412440206E0,2.659104348E0,1.005828110E1
4.257986792E0,2.964944717E0,8.248419784E0,-4.891733837E-1,8.778759406E0
4.267955792E0,5.511787203E0,4.287672021E0,-2.020862517E1,2.138112393E1
4.277924792E0,4.049490370E0,2.894460626E0,-1.225635808E1,1.322855200E1
4.287894792E0,2.015667382E0,2.555820301E0,-5.637943439E-1,3.303482476E0
4.297863792E0,1.855230018E0,2.099539844E0,4.304400905E0,5.135933521E0
4.307832792E0,1.729155862E0,1.092061079E-1,8.763215082E0,8.932851982E0
4.317802792E0,5.793850308E-1,-6.357336686E0,6.292182916E0,8.963424714E0
4.327771792E0,4.536323624E-1,-2.119913882E1,4.341497980E0,2.164388768E1
4.337741792E0,-6.206151078E0,-5.718092759E1,1.890683148E0,5.754780164E1
4.347710792E0,-1.314406015E1,-6.591001130E1,6.233655796E0,6.749632858E1
4.357679792E0,-1.005920131E1,-4.443645797E1,4.605947664E0,4.579302438E1
4.367649792E0,-5.347294502E0,-1.952698249E1,-5.531164291E0,2.098786274E1
4.377618792E0,-2.106358282E0,-6.949547950E0,-6.035559146E0,9.442506877E0
4.387587792E0,-3.417661004E0,-6.792133888E0,-1.080851381E0,7.679956328E0
4.397557792E0,-5.269713644E0,-1.073487632E1,1.670259490E0,1.207465189E1
4.407526792E0,-5.355979371E0,-1.280549350E1,1.727562203E0,1.398755339E1
4.417496792E0,-4.148956478E0,-1.197498539E1,1.150523880E0,1.272547917E1
4.427465792E0,-3.192240023E0,-1.084212010E1,1.260086668E-1,1.130300150E1
4.437434792E0,-2.292468432E0,-9.917349032E0,-9.100618136E-1,1.021946358E1
4.447404792E0,-1.379082476E0,-8.994717459E0,-2.392838520E0,9.409170358E0
4.457373792E0,6.762743443E-2,-7.538659605E0,-2.951246445E0,8.096037159E0
4.467342792E0,2.456408279E0,-4.558061306E0,-1.333327721E0,5.346739878E0
4.477312792E0,3.674673321E0,-1.365691475E0,-2.867474556E-1,3.930720205E0
4.487281792E0,3.863017692E0,1.177981820E0,-6.250486422E-1,4.086714165E0
4.497250792E0,3.914580194E0,3.369383175E0,-4.621966696E-1,5.185586451E0
4.507220792E0,3.892656644E0,5.488503006E0,1.873997533E-1,6.731386161E0
4.517189792E0,3.893584012E0,7.452421360E0,6.817654645E-1,8.435839302E0
4.527159792E0,4.003962194E0,8.970090741E0,7.048543650E-1,9.848403974E0
4.537128792E0,3.930427610E0,9.790502459E0,4.034561259E-1,1.055769750E1
4.547097792E0,3.745011232E0,1.021726091E1,6.065375268E-2,1.088215091E1
4.557067792E0,3.666092825E0,1.042998495E1,-6.579456621E-1,1.107509437E1
4.567036792E0,3.861302412E0,1.070790077E1,-1.903535913E0,1.154089443E1
4.577005792E0,4.163844366E0,1.109865850E1,-2.755162992E0,1.216999357E1
4.586975792E0,4.351167229E0,1.122584714E1,-2.378642650E0,1.227233641E1
4.596944792E0,4.495481189E0,1.120614202E1,-1.091383971E0,1.212345203E1
4.606913792E0,4.846433411E0,1.109782937E1,1.630027942E-1,1.211099927E1
4.616883792E0,5.004561710E0,1.100928030E1,8.883493477E-1,1.212596616E1
4.626852792E0,4.996604819E0,1.097446949E1,9.749442726E-1,1.209775006E1
4.636822792E0,4.892385217E0,1.099075632E1,6.223571688E-1,1.204655495E1
4.646791792E0,4.904669048E0,1.104154992E1,-2.097542800E-1,1.208369148E1
4.656760792E0,4.988370770E0,1.107458435E1,-1.596916110E0,1.225073069E1
4.666730792E0,4.841924038E0,1.109383572E1,-2.864159769E0,1.243868283E1
4.676699792E0,4.002497174E0,1.067046573E1,-2.540812252E0,1.167623867E1
4.686668792E0,2.864592463E0,9.538467584E0,-1.035363552E0,1.001300312E1
4.696638792E0,2.364192133E0,8.999555445E0,1.433029948E-1,9.306016248E0
4.706607792E0,2.314484953E0,8.989760190E0,5.479887718E-1,9.299081705E0
4.716576792E0,2.282169146E0,9.036878223E0,6.085220718E-1,9.340436989E0
4.726546792E0,2.203849201E0,9.074533707E0,6.471405923E-1,9.360710670E0
4.736515792E0,2.064109810E0,9.072587169E0,6.223671091E-1,9.325220001E0
4.746485792E0,1.869706408E0,8.983034722E0,3.714560688E-1,9.183065636E0
4.756454792E0,1.724878916E0,8.529331718E0,-8.161216164E-1,8.740180852E0
4.766423792E0,2.149535438E0,7.588149269E0,-3.119826350E0,8.481381278E0
4.776393792E0,3.186409180E0,6.081774369E0,-7.879787335E0,1.045142246E1
4.786362792E0,3.978918570E0,4.106124746E0,-1.043614792E1,1.189979986E1
4.796331792E0,3.185238567E0,3.252126621E0,8.322844899E-1,4.627609508E0
4.806301792E0,2.577859626E0,1.083880824E0,6.516975614E0,7.091623865E0
4.816270792E0,3.170176724E0,-1.341652987E0,4.750945163E0,5.866986718E0
4.826240792E0,5.318696355E0,-8.797172787E0,5.981481757E0,1.189356565E1
4.836209792E0,6.040517585E0,-3.139068367E1,1.086340981E1,3.376205780E1
4.846178792E0,2.406585031E0,-6.212592722E1,-2.214863309E0,6.221196110E1
4.856148667E0,-4.562427422E0,-6.378648501E1,-7.028872447E0,6.433456662E1
4.866117667E0,-7.982428774E0,-3.488817233E1,5.355486451E0,3.618818830E1
4.876086667E0,-5.284193105E0,-1.066263631E1,5.106285136E0,1.294946554E1
4.886056667E0,-5.067619838E0,-2.655881948E0,1.239910265E0,5.854217045E0
4.896025667E0,-6.805166162E0,-6.131600833E0,1.223081979E0,9.241360549E0
4.905994667E0,-7.054403145E0,-8.711674799E0,4.474998100E0,1.206994157E1
4.915964667E0,-6.530611905E0,-9.585361669E0,5.922182804E0,1.302306797E1
4.925933667E0,-6.488616618E0,-1.053845548E1,4.626833918E0,1.321244798E1
4.935903667E0,-5.118647904E0,-1.022981839E1,3.339772875E0,1.191653572E1
4.945872667E0,-4.275516829E0,-9.937422523E0,2.549956713E0,1.111461604E1
4.955841667E0,-3.364321533E0,-9.322635745E0,1.911158928E0,1.009369729E1
4.965811667E0,-2.045966777E0,-7.800632408E0,1.138872133E0,8.144499724E0
4.975780667E0,-8.461251417E-1,-5.438334480E0,9.750345390E-2,5.504626835E0
4.985749667E0,3.811074829E-1,-2.944743172E0,-1.096727230E0,3.165369785E0
4.995719667E0,1.541905797E0,1.245883781E-1,-3.625998175E0,3.942189558E0
5.005688667E0,2.621935645E0,3.828290786E0,-7.616359161E0,8.918479900E0
5.015658667E0,3.051396385E0,6.466304812E0,-8.052531043E0,1.076881488E1
5.025627667E0,3.015584528E0,8.140010067E0,-5.920422208E0,1.050737422E1
5.035596667E0,3.099278942E0,9.541658995E0,-4.847040644E0,1.114192934E1
5.045566667E0,3.220529729E0,1.031496554E1,-4.065882454E0,1.154563667E1
5.055535667E0,3.232313915E0,1.054831155E1,-3.590952303E0,1.160214067E1
5.065504667E0,3.228921361E0,1.079922493E1,-4.137348293E0,1.200694978E1
5.075474667E0,3.497388666E0,1.132157307E1,-5.821489073E0,1.320225281E1
5.085443667E0,4.240097613E0,1.154979926E1,-5.756880264E0,1.358373884E1
5.095412667E0,5.180147749E0,1.095118705E1,-4.000837442E0,1.275810051E1
5.105382667E0,5.717353086E0,1.011743724E1,-2.565934814E0,1.190103710E1
5.115351667E0,5.724003709E0,9.722468351E0,-1.989369530E0,1.145636070E1
5.125321667E0,4.943019766E0,1.013759377E1,-2.051221377E0,1.146349689E1
5.135290667E0,4.188128730E0,1.071130619E1,-1.826781267E0,1.164515489E1
5.145259667E0,3.822484501E0,1.097608098E1,-1.129972671E0,1.167743892E1
5.155229667E0,3.699626899E0,1.092937108E1,-1.848801150E-1,1.154004212E1
5.165198667E0,3.431199939E0,1.010654739E1,7.275871700E-1,1.069788840E1
5.175167667E0,2.955959301E0,8.965158030E0,1.260821663E0,9.523729582E0
5.185137667E0,2.667608539E0,8.177181986E0,2.144127202E0,8.864520405E0
5.195106667E0,2.488408921E0,7.744945865E0,2.664155173E0,8.560028516E0
5.205076667E0,2.351699265E0,7.599206353E0,2.765010288E0,8.421621490E0
5.215045667E0,2.217272069E0,7.642743552E0,2.733082151E0,8.414128741E0
5.225014667E0,2.046256214E0,7.570820460E0,2.950376379E0,8.379093490E0
5.234984667E0,1.860106595E0,7.500129377E0,3.192068700E0,8.360696132E0
5.244953667E0,1.748919743E0,7.462056402E0,3.135364741E0,8.280792116E0
5.254922667E0,1.691955876E0,7.417639782E0,2.807574509E0,8.109659010E0
5.264892667E0,1.816670846E0,7.199517004E0,2.105289996E0,7.717874320E0
5.274861667E0,3.658367483E0,6.543297440E0,-5.826017157E0,9.494254575E0
5.284831667E0,8.115159400E0,3.588135114E0,-2.367970078E1,2.528752172E1
5.294800667E0,5.636496618E0,2.011245133E0,-7.528328744E0,9.617220742E0
5.304769667E0,3.436362738E0,-1.831330401E0,2.037399144E0,4.394696256E0
5.314739667E0,1.143834519E0,-8.402052451E0,1.441918702E0,8.601277367E0
5.324708667E0,2.103683473E-1,-1.139824995E1,2.164486037E0,1.160385094E1
5.334677667E0,-2.012880892E0,-2.232948279E1,-9.678299654E-1,2.244090430E1
5.344647667E0,-9.239996461E0,-3.936417615E1,-2.844852848E0,4.053404848E1
5.354616667E0,-1.649608762E1,-4.188954649E1,5.921036750E0,4.540829977E1
5.364585667E0,-1.378469045E1,-2.448993542E1,1.130267370E1,3.029067613E1
5.374555667E0,-7.634373847E0,-1.045890060E1,6.189228652E0,1.435196214E1
5.384524667E0,-3.777357152E0,-7.852103108E0,-4.298146431E-1,8.724029511E0
5.394494667E0,-2.453576472E0,-1.663212660E1,-1.024860125E0,1.684333728E1
5.404463667E0,-3.265929558E0,-2.202041066E1,4.150608609E0,2.264491849E1
5.414432667E0,-4.500095811E0,-1.851428918E1,5.502978373E0,1.983210874E1
5.424402667E0,-5.040727909E0,-1.480902440E1,3.299602504E0,1.598760514E1
5.434371667E0,-4.420267577E0,-1.241849553E1,1.887463525E0,1.331616744E1
5.444340667E0,-3.317325122E0,-1.041680767E1,7.123709607E-1,1.095545528E1
5.454310667E0,-2.273752664E0,-8.972034940E0,-6.808041823E-1,9.280671122E0
5.464279667E0,-4.804762352E-1,-7.447285751E0,-2.076383700E0,7.746243718E0
5.474249667E0,1.675797096E0,-6.197245769E0,-3.110570208E0,7.133708576E0
5.484218667E0,3.249622843E0,-4.371292468E0,-3.872945972E0,6.683409083E0
5.494187667E0,4.081183740E0,-1.919832103E0,-3.758673837E0,5.871068475E0
5.504157667E0,4.287556539E0,7.600169975E-1,-2.441597866E0,4.992210638E0
5.514126667E0,4.088074391E0,3.162617444E0,-1.452670708E0,5.368868923E0
5.524095667E0,3.921865532E0,5.816686755E0,-1.342173974E0,7.142569918E0
5.534065667E0,3.642904814E0,7.773865609E0,-1.231001447E0,8.672894935E0
5.544034667E0,3.405394422E0,9.178069185E0,-1.273558799E0,9.871961160E0
5.554004667E0,3.205173772E0,9.892911179E0,-1.701108230E0,1.053739056E1
5.563973667E0,3.007914443E0,1.010921489E1,-2.382089145E0,1.081286843E1
5.573942667E0,3.027535360E0,1.039639855E1,-3.703925772E0,1.144421859E1
5.583912667E0,3.320427947E0,1.093837580E1,-6.564995288E0,1.318227863E1
5.593881667E0,3.796645363E0,1.117263514E1,-8.107254549E0,1.431676878E1
5.603850667E0,4.063290383E0,1.092488159E1,-6.794513705E0,1.349180429E1
5.613820667E0,4.095859959E0,1.084732062E1,-5.208155327E0,1.271083456E1
5.623789667E0,4.201398693E0,1.097821522E1,-3.277311748E0,1.220302145E1
5.633759667E0,4.433936905E0,1.119273552E1,-8.506863353E-1,1.206900129E1
5.643728667E0,4.547188994E0,1.130707432E1,1.245410156E0,1.225062871E1
5.653697667E0,4.350099235E0,1.115586766E1,3.245580078E0,1.240606854E1
5.663667667E0,3.692514930E0,1.025344348E1,3.791077936E0,1.153863257E1
5.673636667E0,3.143505527E0,9.444546683E0,2.410512899E0,1.024166302E1
5.683605667E0,2.873396616E0,9.176697428E0,1.812932137E0,9.785443615E0
5.693575667E0,2.844396765E0,9.166733773E0,1.742708831E0,9.754826246E0
5.703544667E0,2.853790610E0,9.044149235E0,1.350785753E0,9.579424742E0
5.713514667E0,2.860100048E0,8.957164886E0,9.808885521E-1,9.453735634E0
5.723483667E0,2.819480025E0,8.880772768E0,7.729954773E-1,9.349605049E0
5.733452667E0,2.710304323E0,8.825258718E0,6.446841770E-1,9.254542595E0
5.743422667E0,2.613511854E0,8.841927960E0,5.562140501E-1,9.236855976E0
5.753391667E0,2.504749550E0,8.883198777E0,4.989019811E-1,9.243045711E0
5.763360667E0,2.451339620E0,8.872943931E0,3.424059319E-1,9.211701349E0
5.773330667E0,2.533010605E0,8.810798553E0,1.124729472E-1,9.168367577E0
5.783299667E0,2.712240044E0,8.714917080E0,-2.316304314E-1,9.130152158E0
5.793269667E0,3.384279542E0,8.084182606E0,-4.584762032E0,9.890773444E0
5.803238667E0,5.296490968E0,4.759822406E0,-2.061107733E1,2.180654109E1
5.813207667E0,4.112925058E0,3.011712502E0,-1.354450437E1,1.447204766E1
5.823177667E0,2.471512222E0,3.532589489E-1,3.639365494E0,4.413405233E0
5.833146667E0,2.758983270E0,-3.318671443E0,1.614600546E1,1.671284120E1
5.843115667E0,2.927702339E0,-1.836408123E1,9.837943844E0,2.103796709E1
5.853085667E0,-7.812987428E-1,-5.686239934E1,-7.956587589E0,5.742168731E1
5.863058667E0,-4.484874924E0,-6.007757273E1,-5.498238620E0,6.049511944E1
5.873028667E0,-9.910815353E0,-3.777670154E1,2.132706420E0,3.911332096E1
5.882997667E0,-1.169233449E1,-1.710553706E1,1.309205618E0,2.076111999E1
5.892966667E0,-8.348480262E0,-5.876497339E0,7.485437078E0,1.265946728E1
5.902936667E0,-8.175106809E0,-3.138467858E0,4.625434095E0,9.903382877E0
5.912905667E0,-8.878956038E0,-9.008929117E0,2.574929001E0,1.290840515E1
5.922874667E0,-8.615315024E0,-1.421375095E1,5.233526981E0,1.742538876E1
5.932844667E0,-7.484960530E0,-1.587238383E1,5.453600975E0,1.837658745E1
5.942813667E0,-5.332079462E0,-1.473620668E1,3.891808505E0,1.614722986E1
5.952783667E0,-4.722249660E0,-1.297081416E1,2.337361307E0,1.400017571E1
5.962752667E0,-4.407018371E0,-1.195344893E1,1.261674771E0,1.280228790E1
5.972721667E0,-3.173037182E0,-1.066149259E1,-2.345423448E-1,1.112612239E1
5.982691667E0,-6.832211289E-1,-8.659060968E0,-3.050433349E0,9.206045382E0
5.992660667E0,1.899549866E0,-6.162040853E0,-7.771605660E0,1.009836084E1
6.002629667E0,3.791107172E0,-2.039644475E0,-8.163653283E0,9.229186210E0
6.012599667E0,4.016412378E0,1.175967454E0,-4.321485300E0,6.015787816E0
6.022568667E0,3.929084797E0,3.935194260E0,-1.543656161E0,5.771164142E0
6.032538667E0,3.494566508E0,5.647448453E0,-6.548068768E-1,6.673413006E0
6.042507667E0,3.247932998E0,7.492735573E0,-1.400840258E0,8.285680935E0
6.052476667E0,3.210018190E0,9.291415122E0,-2.245044297E0,1.008339405E1
6.062446667E0,3.223558002E0,1.050375810E1,-2.860295345E0,1.135348184E1
6.072415667E0,3.004542354E0,1.119843773E1,-4.266991589E0,1.235473592E1
6.082384667E0,2.785186982E0,1.174696035E1,-5.501941661E0,1.326724184E1
6.092354667E0,2.957591259E0,1.204122967E1,-5.355552524E0,1.350631337E1
6.102323667E0,3.545452779E0,1.196046324E1,-3.578577840E0,1.297802511E1
6.112293667E0,4.267979184E0,1.162185800E1,-9.779509109E-1,1.241932437E1
6.122262667E0,4.823470810E0,1.123734393E1,7.072084540E-1,1.224924133E1
6.132231667E0,4.871680226E0,1.094048547E1,2.286388789E0,1.219241831E1
6.142201667E0,4.482098958E0,1.100886515E1,3.966500838E0,1.253066047E1
6.152170667E0,4.013874394E0,1.099121942E1,4.294324983E0,1.246432185E1
6.162139667E0,3.464836924E0,1.078114534E1,3.605145249E0,1.188424427E1
6.172109667E0,2.971026699E0,1.058307441E1,2.710035936E0,1.132134084E1
6.182078667E0,2.628231634E0,1.045996480E1,1.857151705E0,1.094383285E1
6.192048667E0,2.487772159E0,1.040057346E1,1.310170993E0,1.077392624E1
6.202017667E0,2.434571560E0,1.036129186E1,9.654752916E-1,1.068717223E1
6.211986667E0,2.288440285E0,1.018663553E1,6.573545086E-1,1.046119579E1
6.221956667E0,2.106738643E0,9.745389436E0,3.078266680E-1,9.975255397E0
6.231925667E0,2.092252605E0,9.078927889E0,1.359471792E-1,9.317882497E0
6.241894667E0,2.110971004E0,8.726990996E0,7.862691502E-2,8.979017353E0
6.251864667E0,2.111552364E0,8.465770730E0,-1.969389009E-1,8.727354259E0
6.261833667E0,2.216842299E0,8.040154826E0,-9.833274257E-1,8.397940952E0
6.271803667E0,3.617765880E0,6.568659153E0,-9.099822330E0,1.179161903E1
6.281772667E0,4.920008048E0,5.173208858E0,-1.130129493E1,1.336741696E1
6.291741667E0,4.895604109E0,4.929580525E0,-5.271143289E0,8.720817354E0
6.301711667E0,5.624857736E0,3.771804929E0,-4.682164950E0,8.233359314E0
6.311680667E0,5.422099686E0,2.676564134E0,-4.385605867E0,7.469718829E0
6.321650667E0,3.137163929E0,1.597889087E0,1.966654851E0,4.032713523E0
6.331619667E0,1.467256734E0,-1.369906148E0,6.697155225E-1,2.116129500E0
6.341588667E0,5.938793648E-1,-4.956063150E0,1.697134463E0,5.272145676E0
6.351558667E0,1.825692223E0,-8.385139380E0,5.855556121E0,1.038899668E1
6.361527667E0,4.497608113E-1,-1.943087766E1,1.450586030E1,2.425244883E1
6.371496667E0,-1.878456035E0,-4.423581428E1,2.645321292E0,4.435463433E1
6.381466667E0,-6.001171086E0,-6.017923008E1,-2.763812778E0,6.054083291E1
6.391435667E0,-7.268342825E0,-3.696020804E1,3.123458641E0,3.779737795E1
6.401405667E0,-3.502980651E0,-1.153280959E1,1.905694120E0,1.220279642E1
6.411374667E0,-2.259372460E0,-3.737310449E0,-1.925919054E0,4.772988321E0
6.421343667E0,-4.801916219E0,-4.869941849E0,-6.917449075E-1,6.874099505E0
6.431313667E0,-7.464835584E0,-9.132772560E0,1.873534434E0,1.194325903E1
6.441282667E0,-8.462007462E0,-1.319305864E1,2.591592396E0,1.588643188E1
6.451251667E0,-7.886937311E0,-1.664002268E1,2.193084769E0,1.854464223E1
6.461221667E0,-5.581904089E0,-1.676225989E1,7.592282081E-1,1.768353577E1
6.471190667E0,-4.127135546E0,-1.393786762E1,-5.958254278E-1,1.454827857E1
6.481160667E0,-2.659827649E0,-1.068919904E1,-2.245329641E0,1.124167089E1
6.491129667E0,-6.091543020E-1,-7.982967888E0,-3.644677105E0,8.796733283E0
6.501098667E0,1.405602084E0,-5.295047876E0,-3.356577188E0,6.424940439E0
6.511068667E0,2.664427069E0,-3.002214285E0,-2.176997325E0,4.566374883E0
6.521037667E0,2.646991841E0,-1.810031333E0,-1.341521425E0,3.475983165E0
6.531006667E0,2.923385632E0,1.047067339E0,-9.904920191E-1,3.259387673E0
6.540976667E0,3.546747645E0,4.467701944E0,-2.296686906E-1,5.708986532E0
6.550945667E0,3.344945907E0,6.841410128E0,7.656753480E-2,7.615734912E0
6.560915667E0,2.952722282E0,8.645141087E0,9.713279525E-2,9.135998471E0
6.570884667E0,2.694260148E0,9.638260260E0,-1.989204492E-3,1.000775212E1
6.580853667E0,2.591400900E0,9.977894611E0,-4.491361460E-2,1.030901337E1
6.590823667E0,2.592586716E0,1.005461476E1,-1.350461050E-1,1.038436427E1
6.600792667E0,2.695970166E0,1.019719326E1,-5.081394124E-1,1.055979220E1
6.610761667E0,3.084713820E0,1.048799167E1,-1.366563295E0,1.101730112E1
6.620731667E0,3.743279872E0,1.077023911E1,-2.549757907E0,1.168381188E1
6.630700667E0,4.453204942E0,1.103262823E1,-2.609864945E0,1.218036597E1
6.640670667E0,5.263143128E0,1.098206151E1,-1.789583035E0,1.230889752E1
6.650639667E0,5.674599414E0,1.093625092E1,-9.264562368E-1,1.235560536E1
6.660608667E0,5.769786823E0,1.112453360E1,-2.347078393E-1,1.253398482E1
6.670578667E0,5.581666692E0,1.133892059E1,2.892827900E-1,1.264159040E1
6.680547667E0,5.157771040E0,1.160604479E1,1.718449903E-1,1.270166952E1
6.690517667E0,4.621806482E0,1.177766759E1,-4.003378057E-1,1.265838929E1
6.700486667E0,3.723552536E0,1.181225855E1,-1.484508651E-1,1.238613471E1
6.710455667E0,2.939436531E0,1.159237166E1,3.092943192E-1,1.196323664E1
6.720425667E0,2.364893799E0,1.122461454E1,6.312116075E-1,1.148839077E1
6.730394667E0,1.875609172E0,1.078401749E1,8.995602143E-1,1.098281164E1
6.740363667E0,1.498187482E0,1.032353990E1,1.002850109E0,1.047977815E1
6.750333667E0,1.280941785E0,9.910616548E0,9.520424831E-1,1.003830250E1
6.760302667E0,1.146861476E0,9.593607413E0,6.053634425E-1,9.680860464E0
6.770272667E0,9.662284130E-1,9.329619074E0,-3.624758784E-1,9.386521091E0
6.780241667E0,7.664271538E-1,8.862915956E0,-2.282203352E0,9.184070011E0
6.790210667E0,8.422626172E-1,8.159561986E0,-4.001235638E0,9.126759817E0
6.800180667E0,1.385670680E0,7.550492615E0,-3.900196921E0,8.610549227E0
6.810149667E0,2.259759985E0,6.916233439E0,-3.379238073E0,8.022471572E0
6.820119667E0,3.497574023E0,5.803663251E0,-2.598963397E0,7.257419784E0
6.830088667E0,4.533828106E0,4.105210242E0,1.038926260E0,6.203846887E0
6.840057667E0,5.066664988E0,1.549170671E0,2.341336244E0,5.792484724E0
6.850027667E0,4.633371982E0,-2.597151929E-1,3.560339205E0,5.849068572E0
6.859996792E0,3.767924716E0,1.574659268E0,1.068282791E1,1.143676618E1
6.869965792E0,3.784240495E0,-2.429994652E0,7.238480510E0,8.521792665E0
6.879935792E0,5.656880597E0,-2.348343781E1,2.189537848E0,2.425420017E1
6.889904792E0,4.662149054E0,-5.858610239E1,1.819770912E-2,5.877131407E1
6.899874792E0,-1.851795948E0,-6.197899371E1,-3.468482371E0,6.210358427E1
6.909843792E0,-5.577965990E0,-3.853267869E1,3.070914976E0,3.905523717E1
6.919812792E0,-5.492169794E0,-1.794782613E1,-2.623944456E0,1.895187264E1
6.929782792E0,-4.939281056E0,-6.189401144E0,-5.779939928E0,9.803718144E0
6.939751792E0,-6.498748673E0,-6.038252959E0,-9.476412839E-1,8.921449272E0
6.949721792E0,-7.699146963E0,-1.181377765E1,2.465488420E0,1.431505639E1
6.959690792E0,-7.550232414E0,-1.378953779E1,2.804266155E0,1.596938542E1
6.969659792E0,-6.417586981E0,-1.297102700E1,1.624457080E0,1.456268605E1
6.979629792E0,-5.118705207E0,-1.182007160E1,5.775634038E-1,1.289375101E1
6.989598792E0,-4.339579801E0,-1.115489234E1,-2.635924633E-1,1.197217846E1
6.999567792E0,-3.811530912E0,-1.047661065E1,-8.539495933E-1,1.118107189E1
7.009537792E0,-2.841382526E0,-9.484798915E0,-1.164200517E0,9.969464778E0
7.019506792E0,-8.733073854E-1,-7.703555764E0,-1.134335278E0,7.835442152E0
7.029476792E0,1.762317030E0,-4.512243694E0,-4.377430290E-1,4.863920582E0
7.039445792E0,3.038161213E0,-1.540347807E0,-3.883258706E-1,3.428394946E0
7.049414792E0,3.644937891E0,1.137028506E0,-1.163437455E0,3.991490043E0
7.059384792E0,3.785522497E0,3.627107976E0,-1.611421883E0,5.484776507E0
7.069353792E0,3.601000451E0,6.025748688E0,-9.138163108E-1,7.078976744E0
7.079323792E0,3.605758622E0,8.380938740E0,6.009825806E-2,9.123883012E0
7.089292792E0,3.753272179E0,1.000244122E1,5.274919420E-1,1.069645410E1
7.099261792E0,3.498913328E0,1.058084780E1,1.009936350E0,1.119002708E1
7.109231792E0,3.318323826E0,1.075632858E1,8.601885724E-1,1.128936677E1
7.119200792E0,3.338792005E0,1.067627202E1,1.981387496E-1,1.118792095E1
7.129169792E0,3.443769114E0,1.058951571E1,-4.813217425E-1,1.114580904E1
7.139139792E0,3.610652449E0,1.058557235E1,-1.203318974E0,1.124896126E1
7.149108792E0,3.869637033E0,1.068961068E1,-2.087363602E0,1.155850138E1
7.159078792E0,4.250779014E0,1.093212980E1,-2.876209711E0,1.207696843E1
7.169047792E0,4.645800824E0,1.098507049E1,-2.830544127E0,1.225835303E1
7.179016792E0,4.884248232E0,1.086021606E1,-2.531215802E0,1.217403907E1
7.188986792E0,4.997275495E0,1.074326006E1,-2.488001370E0,1.210704546E1
7.198955792E0,5.079570962E0,1.072638265E1,-2.314785792E0,1.209196259E1
7.208925792E0,5.027827781E0,1.066677614E1,-1.915630878E0,1.194691621E1
7.218894792E0,4.922888387E0,1.058421111E1,-1.288351523E0,1.174394332E1
7.228863792E0,4.673478912E0,1.056130172E1,-5.496686769E-1,1.156220718E1
7.238833792E0,3.946910326E0,1.026946719E1,4.097869062E-1,1.100944970E1
7.248802792E0,2.679973061E0,9.732546612E0,1.230999109E0,1.016956626E1
7.258771792E0,1.981240731E0,9.410716447E0,1.640128788E0,9.755865996E0
7.268741792E0,1.889922279E0,9.377900119E0,2.011074979E0,9.775542923E0
7.278710792E0,1.888266055E0,9.488933482E0,2.201900032E0,9.922387367E0
7.288680792E0,1.880003647E0,9.469435941E0,2.317035216E0,9.928407876E0
7.298649792E0,1.860651410E0,9.249694653E0,2.346951910E0,9.722502667E0
7.308618792E0,1.858086236E0,8.863422325E0,2.391582538E0,9.366557895E0
7.318588792E0,2.044962518E0,8.272447747E0,2.073351334E0,8.770065517E0
7.328557792E0,2.492395845E0,7.566306995E0,-2.214917980E-2,7.966274485E0
7.338527792E0,3.684032375E0,6.030403072E0,-7.903743378E0,1.060221746E1
7.348496792E0,4.506130430E0,3.979274080E0,-1.461161304E1,1.579997055E1
7.358465792E0,2.787233800E0,3.432274073E0,-3.303890852E0,5.519499282E0
7.368435792E0,1.516061689E0,1.715844383E0,7.649138067E0,7.984477325E0
7.378404792E0,2.868241418E0,5.448125643E-1,9.057951003E0,9.516832768E0
7.388374792E0,6.455234279E0,-1.315347065E1,6.216767868E0,1.591640797E1
7.398343792E0,6.443629310E0,-4.795923700E1,9.515607895E0,4.931688926E1
7.408312792E0,-1.162133234E0,-6.973732268E1,-2.730714731E1,7.490210292E1
7.418282792E0,-1.228931884E1,-5.257775150E1,-9.403494040E-2,5.399496415E1
7.428251792E0,-1.102022278E1,-1.690551667E1,1.301563307E1,2.401350679E1
7.438220792E0,-8.055758706E0,-4.879144782E-1,1.514080945E0,8.211318406E0
7.448190792E0,-7.987293073E0,-7.564390862E-1,-3.752764056E0,8.857329664E0
7.458159792E0,-7.696292937E0,-9.843170085E0,2.582457876E-1,1.249750428E1
7.468129792E0,-7.109622495E0,-1.538810457E1,4.826862488E0,1.762495662E1
7.478098792E0,-5.121983741E0,-1.472977942E1,4.809671674E0,1.631974451E1
7.488067792E0,-3.887197976E0,-1.264020440E1,4.826801677E0,1.407775159E1
7.498037792E0,-3.393169649E0,-1.125898565E1,3.389823872E0,1.223802533E1
7.508006792E0,-2.874636226E0,-9.594257038E0,1.105640652E0,1.007649457E1
7.517976792E0,-1.793014766E0,-9.119364309E0,-1.189715427E0,9.369798832E0
7.527945792E0,4.832624334E-1,-8.634559965E0,-3.023984638E0,9.161531066E0
7.537914792E0,2.533843541E0,-7.051538594E0,-5.455142301E0,9.268394530E0
7.547884792E0,4.458266292E0,-3.100672626E0,-6.078233880E0,8.150781323E0
7.557853792E0,5.295270070E0,8.206748432E-1,-4.250631080E0,6.839682514E0
7.567822792E0,5.249785749E0,3.940897635E0,-2.416164232E0,6.994910591E0
7.577792792E0,4.848791885E0,6.717077858E0,-9.978454775E-1,8.344196384E0
7.587761792E0,4.346161720E0,8.740555367E0,-2.562179732E-1,9.764838835E0
7.597731792E0,3.759897951E0,9.802968723E0,-3.287357265E-1,1.050443219E1
7.607700792E0,3.394775879E0,1.009780697E1,-6.640367067E-1,1.067385374E1
7.617669792E0,3.437505869E0,1.009723862E1,-8.319167000E-1,1.069872702E1
7.627639792E0,3.578543049E0,1.019832529E1,-1.147557002E0,1.086870259E1
7.637608792E0,3.785790007E0,1.059936944E1,-2.475277244E0,1.152414144E1
7.647578792E0,4.104315325E0,1.108150043E1,-3.598036205E0,1.235276976E1
7.657547792E0,4.472192898E0,1.117744622E1,-2.828984089E0,1.236684941E1
7.667516792E0,4.920194575E0,1.094580059E1,-1.702239082E0,1.212091099E1
7.677486792E0,5.335413544E0,1.069090643E1,-7.303213280E-1,1.197060931E1
7.687455792E0,5.606107469E0,1.058139977E1,-1.432701955E-1,1.197559971E1
7.697425792E0,5.617946327E0,1.060377941E1,3.176839042E-1,1.200426514E1
7.707394792E0,5.536637285E0,1.075164730E1,3.507592642E-1,1.209856620E1
7.717363792E0,5.486488055E0,1.106616436E1,-1.615123755E-1,1.235263660E1
7.727333792E0,5.438473059E0,1.145520417E1,-6.014539576E-1,1.269489814E1
7.737302792E0,5.096084084E0,1.181530027E1,-1.230944145E-1,1.286804358E1
7.747271792E0,4.031253489E0,1.184228868E1,1.258201525E0,1.257274341E1
7.757241792E0,2.699767640E0,1.123749479E1,2.334349991E0,1.179064139E1
7.767210792E0,2.026068994E0,1.006657465E1,2.463780448E0,1.055988139E1
7.777180792E0,1.852471009E0,9.330116088E0,2.473359357E0,9.828541172E0
7.787149792E0,1.689232974E0,9.185353062E0,2.623960243E0,9.700999241E0
7.797118792E0,1.546393974E0,9.198811598E0,2.562645171E0,9.673500887E0
7.807088792E0,1.414593786E0,9.186022568E0,2.321051084E0,9.579737174E0
7.817057792E0,1.376987273E0,9.124815084E0,2.080794840E0,9.459812441E0
7.827027792E0,1.393902829E0,8.986123222E0,1.831117562E0,9.276118109E0
7.836996792E0,1.503510933E0,8.680265311E0,1.019035202E0,8.868257086E0
7.846965792E0,3.009159608E0,5.171655838E0,-1.694420302E1,1.796961551E1
7.856935792E0,2.959607964E0,6.781372672E-1,-2.590384830E1,2.608119065E1
7.866900583E0,9.945326643E-1,1.730557147E0,4.946448573E0,5.333973823E0
7.876870583E0,1.707365190E0,1.271941313E0,1.164813539E1,1.184111433E1
7.886839583E0,2.856705154E0,-7.317629006E0,2.001098460E0,8.106346505E0
7.896808583E0,3.783563679E0,-3.353115286E1,8.228599477E0,3.473274270E1
7.906778583E0,4.776292259E-1,-6.681633908E1,-1.118058150E1,6.774700511E1
7.916747583E0,-9.278043709E0,-6.085711884E1,-1.034964304E1,6.242424305E1
7.926716583E0,-1.169871965E1,-2.546482063E1,1.083199740E1,3.004412254E1
7.936686583E0,-7.777435334E0,-5.417930621E0,3.388755586E0,1.006608847E1
7.946655583E0,-7.459731549E0,-6.232832508E0,8.718315482E-1,9.759912198E0
7.956625583E0,-6.705788054E0,-1.298529538E1,2.119511594E0,1.476745810E1
7.966594583E0,-5.483432300E0,-1.645629848E1,2.149537046E0,1.747850963E1
7.976563583E0,-3.864202631E0,-1.470398618E1,3.772865614E0,1.566441147E1
7.986533583E0,-2.978270522E0,-1.147912513E1,5.284860857E0,1.298345729E1
7.996502583E0,-2.798711885E0,-9.586119468E0,3.838791801E0,1.069872876E1
8.006472583E0,-2.368684549E0,-9.219719487E0,2.222635428E0,9.775172743E0
8.016441583E0,-1.488661344E0,-9.309077221E0,1.396332639E0,9.530203363E0
8.026410583E0,6.185857147E-2,-8.847829555E0,2.563875425E-1,8.851759649E0
8.036380583E0,1.671757839E0,-7.140854228E0,-1.255724060E0,7.440659668E0
8.046349583E0,3.242878080E0,-4.046205404E0,-3.025021935E0,6.003231973E0
8.056318583E0,4.981246523E0,-3.089972806E-1,-3.991046280E0,6.390363577E0
8.066288583E0,5.585288458E0,2.650390243E0,-3.405754026E0,7.058270049E0
8.076257583E0,5.087874008E0,5.097300305E0,-2.102343584E0,7.502584946E0
8.086227583E0,4.367128665E0,7.136403328E0,-2.168741056E0,8.643118824E0
8.096196583E0,3.865237880E0,8.868119393E0,-3.031885396E0,1.013784664E1
8.106165583E0,3.403207271E0,1.024139120E1,-4.168759536E0,1.156920349E1
8.116135583E0,3.077082619E0,1.107238813E1,-5.868441630E0,1.290367481E1
8.126104583E0,3.087238648E0,1.228119355E1,-1.075916098E1,1.661680783E1
8.136074583E0,3.450109542E0,1.254168584E1,-1.152035385E1,1.737572134E1
8.146043583E0,3.941641693E0,1.206428991E1,-6.600969113E0,1.430581782E1
8.156012583E0,5.076951994E0,1.170677595E1,-1.613401750E0,1.286184706E1
8.165982583E0,6.154988526E0,1.133662615E1,1.797322994E0,1.302433668E1
8.175951583E0,6.024831845E0,1.076970467E1,4.345148982E0,1.308302172E1
8.185921583E0,4.781561185E0,9.810016372E0,5.146251440E0,1.206580509E1
8.195890583E0,4.085012789E0,9.332341538E0,4.469934411E0,1.112475805E1
8.205859583E0,3.551186851E0,9.191868029E0,2.442473195E0,1.015219391E1
8.215829583E0,3.453198919E0,8.954505572E0,1.815641152E0,9.767512765E0
8.225798583E0,3.411064467E0,9.123336908E0,1.264284968E0,9.821866096E0
8.235767583E0,3.238071961E0,9.363901885E0,5.692346299E-1,9.924303330E0
8.245737583E0,2.975344867E0,9.449167153E0,4.484557128E-1,9.916680366E0
8.255706583E0,2.702020280E0,9.432315477E0,6.137027049E-1,9.830875844E0
8.265676583E0,2.403347428E0,9.296871158E0,8.659971964E-1,9.641464792E0
8.275645583E0,2.153797912E0,8.973360504E0,1.189135383E0,9.304519716E0
8.285614583E0,1.981417755E0,8.712951247E0,1.479292935E0,9.057032811E0
8.295584583E0,1.851625794E0,8.675112160E0,1.604175428E0,9.014403356E0
8.305553583E0,1.780673486E0,8.702964787E0,1.533379680E0,9.014635178E0
8.315523583E0,1.783404575E0,8.702787032E0,1.078645227E0,8.948883144E0
8.325492583E0,2.136587217E0,8.496882595E0,-9.034556293E-1,8.807851659E0
8.335461583E0,3.099385069E0,7.680036508E0,-5.968912582E0,1.020867602E1
8.345431583E0,4.398192583E0,5.531208730E0,-1.092962018E1,1.301518210E1
8.355400583E0,5.854427024E0,2.516291369E0,-8.579140055E0,1.068679943E1
8.365370583E0,6.896226021E0,6.808264017E-2,4.161839941E0,8.055028260E0
8.375339583E0,6.710559967E0,-3.501626143E0,8.346790416E0,1.126773762E1
8.385308583E0,5.614849641E0,-8.575602490E0,1.860428485E0,1.041771034E1
8.395278583E0,6.104000221E0,-1.426210508E1,-7.390703999E0,1.718397409E1
8.405247583E0,2.883064695E0,-2.276333450E1,3.313764460E0,2.318323736E1
8.415217583E0,-5.856573536E0,-4.122373574E1,6.916008321E0,4.220813918E1
8.425186583E0,-1.576790695E1,-4.426600462E1,-1.302443898E0,4.700853555E1
8.435155583E0,-1.419794709E1,-2.120633323E1,9.996284762E-2,2.552058509E1
8.445125583E0,-1.174633821E1,-9.160283709E0,1.992472647E0,1.502854638E1
8.455094583E0,-9.648877634E0,-2.848604422E0,2.814703435E0,1.044691065E1
8.465063583E0,-7.916443530E0,-6.091325796E0,2.150798875E0,1.021764473E1
8.475033583E0,-6.335096802E0,-1.729878169E1,1.516035669E0,1.848457907E1
8.485002583E0,-4.947516274E0,-2.796779380E1,-1.755896641E0,2.845625731E1
8.494972583E0,-2.914708072E0,-2.827062344E1,-5.079030679E0,2.887075034E1
8.504941583E0,-2.900733519E-1,-1.766460572E1,-1.925461217E0,1.777160203E1
8.514910583E0,1.160358092E0,-1.182640647E1,-1.088681388E-1,1.188369358E1
8.524880583E0,2.741827832E0,-9.484163908E0,-6.217239153E-1,9.892094092E0
8.534849583E0,4.444141758E0,-8.007645476E0,-1.335681810E0,9.255097403E0
8.544819583E0,5.639600320E0,-6.589993304E0,-1.923243953E0,8.884366653E0
8.554788583E0,5.670139743E0,-4.332872753E0,-2.531775380E0,7.571932222E0
8.564757583E0,4.723046051E0,-2.155630429E0,-1.635021830E0,5.443087628E0
8.574727583E0,3.673727242E0,-3.999092048E-1,-9.238600731E-3,3.695441052E0
8.584696583E0,2.847230326E0,1.257123299E0,1.308958865E0,3.376455661E0
8.594666583E0,2.529117236E0,3.534874581E0,1.799792858E0,4.704362511E0
8.604635583E0,2.378877269E0,5.937579693E0,2.036092876E0,6.712643583E0
8.614604583E0,2.336185286E0,8.055275726E0,1.993592389E0,8.620883906E0
8.624574583E0,2.309602089E0,9.287737808E0,1.712067082E0,9.722525859E0
8.634543583E0,1.862816634E0,1.010950140E1,1.610641864E0,1.040510796E1
8.644513583E0,2.038925560E0,1.055607665E1,4.710815138E-1,1.076150034E1
8.654482583E0,2.182403660E0,1.052038759E1,-1.510675124E-1,1.074542982E1
8.664451583E0,2.239064642E0,1.069337395E1,-1.980955971E0,1.110341585E1
8.674421583E0,2.485454323E0,1.136301814E1,-6.234199002E0,1.319700351E1
8.684390583E0,2.614745324E0,1.147140447E1,-5.865317463E0,1.314655706E1
8.694359583E0,2.693997023E0,1.122480633E1,-2.502699516E0,1.181174847E1
8.704329583E0,2.981079232E0,1.095883053E1,2.000098586E-1,1.135882053E1
8.714298583E0,3.154820182E0,1.082067018E1,1.403684928E0,1.135826240E1
8.724268583E0,3.407555553E0,1.091778073E1,1.701670732E0,1.156309017E1
8.734237583E0,3.561015143E0,1.106333430E1,1.678079556E0,1.174283380E1
8.744206583E0,3.604129296E0,1.133360898E1,1.234203383E0,1.195674281E1
8.754176583E0,3.545120365E0,1.169865533E1,4.148997116E-1,1.223104888E1
8.764145583E0,3.347373671E0,1.194164807E1,-3.464182913E-1,1.240676730E1
8.774115583E0,3.088886393E0,1.200483426E1,-1.763871074E-1,1.239711164E1
8.784084583E0,2.828934973E0,1.179223066E1,4.316683567E-1,1.213449277E1
8.794053583E0,2.452545608E0,1.089721257E1,9.747776270E-1,1.121224389E1
8.804023583E0,2.102686815E0,9.776462710E0,1.368800440E0,1.009327150E1
8.813992583E0,1.802191971E0,9.185542511E0,1.573375804E0,9.491975482E0
8.823962583E0,1.589497455E0,9.160362062E0,1.460114068E0,9.411199092E0
8.833931583E0,1.440120245E0,9.261235303E0,1.044195771E0,9.430523340E0
8.843900583E0,1.394486820E0,9.265039501E0,5.166576362E-1,9.383628592E0
8.853870583E0,1.495074278E0,9.067755030E0,-2.896956035E-1,9.194745887E0
8.863840542E0,2.220818552E0,7.876760232E0,-6.464108598E0,1.042881042E1
8.873810542E0,3.256033731E0,5.575435315E0,-1.677232879E1,1.797215201E1
8.883779542E0,1.755344079E0,5.209741092E0,-9.369635664E0,1.086336539E1
8.893748542E0,2.928526796E-1,5.118577738E0,3.932495770E0,6.461433567E0
8.903718542E0,2.816788698E-1,2.697484303E0,5.431944058E0,6.071390351E0
8.913687542E0,9.339658159E-1,-5.758612794E-1,-3.571114454E0,3.735875641E0
8.923657542E0,6.905614311E-1,-3.986487206E0,3.398861328E0,5.284052768E0
8.933626542E0,5.984135516E-2,-9.163221350E0,1.406457093E1,1.678631473E1
8.943595542E0,-1.364394417E0,-4.576913198E1,5.844538797E0,4.616095371E1
8.953565542E0,-6.076835811E0,-7.026665474E1,-1.477622152E1,7.206016531E1
8.963534542E0,-6.756086973E0,-5.860213779E1,-4.184927891E-1,5.899178249E1
8.973503542E0,-4.160300953E0,-2.252701109E1,8.480719721E0,2.442738094E1
8.983473542E0,-2.961490767E0,-6.510521457E0,3.248385572E0,7.855528374E0
8.993442542E0,-3.936867734E0,-6.345713006E0,3.140931290E-1,7.474333121E0
9.003412542E0,-4.492616638E0,-8.963668744E0,2.270105463E-1,1.002908248E1
9.013381542E0,-4.117541142E0,-1.031807860E1,1.141793987E0,1.116783706E1
9.023350542E0,-3.432086670E0,-9.394896221E0,1.370556943E0,1.009562877E1
9.033320542E0,-2.596997270E0,-8.639010866E0,1.331798090E0,9.118694518E0
9.043289542E0,-1.930352998E0,-7.354197493E0,1.024367863E0,7.672014923E0
9.053259542E0,-1.344763706E0,-6.512978457E0,7.602327597E-1,6.693671015E0
9.063228542E0,-4.462374254E-1,-5.948040361E0,3.609614861E-1,5.975667760E0
9.073197542E0,6.977402039E-1,-4.310642808E0,-2.777088296E-1,4.375569106E0
9.083167542E0,2.004049550E0,-1.164006389E0,-5.483448672E-1,2.381555703E0
9.093136542E0,2.946717777E0,2.129901511E0,-9.100074345E-1,3.748031434E0
9.103106542E0,3.449683573E0,4.730775778E0,-1.200342157E0,5.976736359E0
9.113075542E0,3.460715514E0,6.983362983E0,-1.509734125E0,7.938715737E0
9.123044542E0,2.885488658E0,8.109006960E0,-1.773452906E0,8.787899287E0
9.133014542E0,2.400273255E0,8.586273074E0,-1.873967713E0,9.110277272E0
9.142983542E0,2.328108673E0,8.944544840E0,-2.401188344E0,9.549381020E0
9.152953542E0,2.526803785E0,1.008306263E1,-2.371081030E0,1.066184387E1
9.162922542E0,2.523676987E0,1.080210410E1,-3.523424563E0,1.163911161E1
9.172891542E0,3.020955488E0,1.136980909E1,-7.353255506E0,1.387332323E1
9.182861542E0,3.745607648E0,1.136008284E1,-7.278891787E0,1.400226140E1
9.192830542E0,4.312647234E0,1.087367051E1,-2.425132692E0,1.194641808E1
9.202800542E0,5.202986974E0,1.074044872E1,6.781629950E-1,1.195358595E1
9.212769542E0,5.455649840E0,1.063175833E1,2.866689275E0,1.228886926E1
9.222738542E0,5.367152231E0,1.065654468E1,3.913613357E0,1.255725436E1
9.232708542E0,5.359732699E0,1.099303089E1,3.918603956E0,1.284246548E1
9.242677542E0,5.172189104E0,1.115327851E1,3.619048759E0,1.281579789E1
9.252646542E0,5.110279369E0,1.115471225E1,2.360393490E0,1.249455954E1
9.262616542E0,4.962489824E0,1.138899381E1,3.264056110E-1,1.242747061E1
9.272585542E0,4.679607086E0,1.169076159E1,-1.561163895E0,1.268896614E1
9.282555542E0,4.176839218E0,1.170005282E1,-1.191467253E0,1.248025705E1
9.292524542E0,3.725296468E0,1.147642372E1,-5.365463555E-2,1.206602726E1
9.302493542E0,3.162657497E0,1.097125001E1,4.730701518E-1,1.142779614E1
9.312463542E0,2.648282614E0,1.007279141E1,3.713204134E-1,1.042172762E1
9.322432542E0,2.481882259E0,9.371380473E0,2.661769875E-1,9.698111245E0
9.332402542E0,2.350278830E0,9.219370408E0,1.666351577E-1,9.515690651E0
9.342371542E0,2.216274096E0,9.136128861E0,-9.064061344E-2,9.401539085E0
9.352340542E0,2.149756463E0,8.932113660E0,-8.217565781E-1,9.223849042E0
9.362310542E0,2.254806077E0,8.073178146E0,-4.560063393E0,9.542249943E0
9.372279542E0,2.313374421E0,6.864926460E0,-8.468506642E0,1.114425957E1
9.382249542E0,1.922163241E0,6.058165067E0,-8.118391156E0,1.031040011E1
9.392218542E0,1.145420430E0,4.795361783E0,-3.779253697E0,6.212104401E0
9.402187542E0,1.166325834E0,2.522630920E0,5.257764274E0,5.947105840E0
9.412157542E0,2.921229179E0,-1.135811349E1,8.920188264E0,1.473465577E1
9.422126542E0,4.535565606E0,-6.036043296E1,1.005208525E1,6.135957660E1
9.432096542E0,8.741265219E0,-6.968031934E1,-1.430326480E1,7.166826359E1
9.442065542E0,-1.557698835E0,-5.267104032E1,-2.043412421E1,5.651741631E1
9.452034542E0,-1.234841782E1,-2.271952950E1,4.971226734E0,2.633198698E1
9.462004542E0,-9.326734643E0,-6.936327980E0,1.413500883E1,1.830024862E1
9.471973542E0,-7.820017097E0,-8.984925127E-1,1.011403416E1,1.281614775E1
9.481943542E0,-6.957835793E0,-2.213281637E0,5.463436577E0,9.119168480E0
9.491912542E0,-7.102777745E0,-6.570688722E0,4.877116967E0,1.083557437E1
9.501881542E0,-7.195869511E0,-1.076659279E1,4.564747013E0,1.373087665E1
9.511851542E0,-5.520580831E0,-1.158189579E1,4.389931637E0,1.356055392E1
9.521820542E0,-4.488476224E0,-1.166097354E1,5.317071998E0,1.357924804E1
9.531790542E0,-4.022119845E0,-1.143487106E1,3.932699254E0,1.274361988E1
9.541759542E0,-3.276551318E0,-1.112799398E1,1.594152131E0,1.170937059E1
9.551728542E0,-2.792355961E0,-1.083023856E1,-4.226174515E-1,1.119240477E1
9.561698542E0,-1.490424280E0,-7.547447385E0,-1.544165454E0,7.846640906E0
9.571667542E0,2.228990766E-1,-2.506844022E0,-1.928566673E0,3.170697142E0
9.581636542E0,1.526927277E0,1.970197679E0,-2.552768054E0,3.567886005E0
9.591606542E0,1.962146941E0,5.336157895E0,-4.043582928E0,6.976758888E0
9.601575542E0,1.553543511E0,7.824162773E0,-6.690461333E0,1.041120999E1
9.611545542E0,7.312060118E-1,1.022613581E1,-1.014812460E1,1.442542716E1
9.621514542E0,4.976237798E-1,1.135177511E1,-1.013248681E1,1.522424765E1
9.631483542E0,8.151670584E-1,1.148023259E1,-9.209791499E0,1.474043748E1
9.641453542E0,4.215140820E-1,1.188588084E1,-9.198158464E0,1.503522386E1
9.651422542E0,9.957223535E-2,1.194978272E1,-7.567908547E0,1.414498008E1
9.661392542E0,9.338956493E-1,1.215737876E1,-4.544576458E0,1.301257832E1
9.671361542E0,2.674694780E0,1.210406735E1,-2.185203892E0,1.258719805E1
9.681330542E0,3.821450129E0,1.110735214E1,-2.187483575E-1,1.174838727E1
9.691300542E0,3.937642197E0,1.007231779E1,1.598045207E0,1.093207941E1
9.701269542E0,4.087797818E0,9.647448574E0,3.163139600E0,1.094480731E1
9.711239542E0,4.022063127E0,9.802633678E0,4.087011368E0,1.135659635E1
9.721208542E0,4.035032836E0,9.845565104E0,4.210437319E0,1.144309506E1
9.731177542E0,3.908678599E0,9.632472101E0,3.263587748E0,1.089556296E1
9.741147542E0,3.638106881E0,9.451423008E0,2.676209793E0,1.047508078E1
9.751116542E0,3.638977531E0,9.286963636E0,2.480205277E0,1.027819387E1
9.761086542E0,3.516302070E0,9.142321647E0,1.937850298E0,9.985073316E0
9.771055542E0,3.305998188E0,9.187924667E0,1.559132572E0,9.888300060E0
9.781024542E0,3.132786704E0,9.283985649E0,1.313837782E0,9.885995741E0
9.790994542E0,2.866055144E0,9.316675678E0,9.627651072E-1,9.794980063E0
9.800963542E0,2.442544384E0,9.358783232E0,5.388197529E-1,9.687268623E0
9.810933542E0,2.102897900E0,9.329783381E0,1.921418452E-1,9.565770016E0
9.820902542E0,1.784078905E0,9.082983518E0,-1.052557198E-1,9.257138105E0
9.830871542E0,1.468399134E0,8.564658841E0,-2.206037521E-1,8.692424466E0
9.840841542E0,1.276406831E0,8.140695945E0,-9.022722443E-2,8.240648386E0
9.850810542E0,1.191707866E0,7.748199255E0,-2.616640699E-1,7.843674357E0
9.860783917E0,2.017965484E0,6.071287388E0,-6.486857775E0,9.111094284E0
9.870752917E0,3.539400618E0,1.531913198E0,-2.100962354E1,2.136067406E1
9.880721917E0,4.830552958E-1,1.074883713E0,-4.253027269E0,4.413270710E0
9.890691917E0,-1.320242676E0,-2.550499919E0,5.377395383E0,6.096267027E0
9.900660917E0,-1.583130422E0,-1.083492920E1,9.619835683E0,1.457543245E1
9.910630917E0,-3.864427748E-1,-2.278993699E1,1.758691142E1,2.878940811E1
9.920599917E0,-3.223449025E-1,-4.445814880E1,8.867514206E0,4.533501637E1
9.930568917E0,3.909669849E-1,-5.379202173E1,-1.128027302E1,5.496343345E1
9.940538917E0,-5.057821074E0,-3.577443480E1,-3.144337878E0,3.626676992E1
9.950507917E0,-8.888284686E0,-1.567747509E1,-1.622959024E0,1.809471817E1
9.960476917E0,-7.193572140E0,-5.304231513E0,1.865511469E0,9.130305861E0
9.970446917E0,-6.784751194E0,-2.130498512E0,4.138676196E0,8.228032166E0
9.980415917E0,-8.392812681E0,-5.547708988E0,6.499566114E-1,1.008160817E1
9.990385917E0,-9.295330417E0,-1.103285861E1,1.527780386E0,1.450728264E1
1.000035492E1,-8.920898116E0,-1.513559256E1,3.280472753E0,1.787260716E1
1.001032392E1,-7.226006645E0,-1.554062451E1,3.663914444E0,1.752570830E1
1.002029392E1,-5.641364425E0,-1.331232313E1,2.578771791E0,1.468649052E1
1.003026292E1,-4.545702631E0,-1.073103821E1,1.537734686E0,1.175513596E1
1.004023292E1,-3.336986092E0,-8.328752925E0,6.686817348E-1,8.997262736E0
1.005020192E1,-1.438207474E0,-6.067036462E0,-3.780511433E-1,6.246622675E0
1.006017092E1,6.108498484E-1,-3.637657523E0,-1.041855131E0,3.832903847E0
1.007014092E1,2.237830879E0,-1.230828955E0,-1.460225165E0,2.941952497E0
1.008010992E1,3.536809717E0,9.972759587E-1,-2.580165183E0,4.490081813E0
1.009007992E1,4.405023008E0,3.321945300E0,-2.846578946E0,6.208265456E0
1.010004892E1,4.588532024E0,5.627993013E0,-2.125710812E0,7.566212920E0
1.011001792E1,4.319435559E0,7.510480118E0,-1.710602939E0,8.831251189E0
1.011998792E1,3.908658719E0,8.978612473E0,-1.756285481E0,9.948750354E0
1.012995692E1,3.511451220E0,9.706579127E0,-1.933068445E0,1.050165328E1
1.013992692E1,3.360793908E0,9.941031425E0,-2.320588569E0,1.074728676E1
1.014989592E1,3.545750110E0,1.017988668E1,-3.606459703E0,1.136701316E1
1.015986492E1,4.329493062E0,1.082567773E1,-8.173194770E0,1.423871206E1
1.016983492E1,5.321315907E0,1.095178580E1,-1.058474555E1,1.613365593E1
1.017980392E1,5.503020473E0,1.059764334E1,-6.972534524E0,1.382785292E1
1.018977392E1,5.527453648E0,1.020723644E1,-2.454721942E0,1.186448817E1
1.019974292E1,5.879813295E0,9.996376491E0,1.412421253E0,1.168309382E1
1.020971192E1,6.082547956E0,1.000982859E1,4.802428143E0,1.265928016E1
1.021968192E1,6.333702825E0,9.946351222E0,6.483363479E0,1.345658560E1
1.022965092E1,6.203818624E0,1.017989954E1,4.947955985E0,1.290736180E1
1.023962092E1,5.504323232E0,1.038985083E1,2.070824168E0,1.193879757E1
1.024958992E1,4.831519795E0,1.098262869E1,-1.560937023E0,1.209951408E1
1.025955892E1,3.717065635E0,1.139603737E1,-2.362273954E0,1.221747039E1
1.026952892E1,2.578863593E0,1.097404030E1,-1.442976463E0,1.136495838E1
1.027949792E1,2.049950777E0,1.055046098E1,-8.478877848E-1,1.078116130E1
1.028946792E1,1.785517758E0,1.027511677E1,-3.158338451E-1,1.043387988E1
1.029943692E1,1.729060552E0,9.938417720E0,2.459490931E-1,1.009070305E1
1.030940592E1,1.763467177E0,9.415441582E0,9.697431743E-1,9.628123311E0
1.031937592E1,1.913667091E0,8.911443753E0,1.698308583E0,9.271472566E0
1.032934492E1,2.004993583E0,8.688211092E0,2.093337117E0,9.158988565E0
1.033931492E1,2.029797179E0,8.499166517E0,2.057131158E0,8.977065037E0
1.034928392E1,2.320947003E0,7.983069044E0,7.050221801E-1,8.343455078E0
1.035925292E1,3.324753425E0,6.675860251E0,-4.698093935E0,8.814373605E0
1.036922292E1,4.808424463E0,4.249996657E0,-1.410953953E1,1.550040397E1
1.037919192E1,4.137547098E0,3.701008011E0,-6.195285197E0,8.318552456E0
1.038916092E1,3.381565557E0,2.835233594E0,5.616851728E0,7.143007663E0
1.039913092E1,3.545109840E0,-9.885875809E-1,9.271698310E0,9.975444789E0
1.040909992E1,4.215143743E0,-7.059631725E0,6.162589906E0,1.027537597E1
1.041906992E1,3.568626464E0,-2.242824694E1,3.389857786E0,2.296197926E1
1.042903892E1,-1.093372609E0,-5.342525162E1,3.108250033E0,5.352676146E1
1.043900792E1,-5.482657544E0,-6.184625256E1,6.457896516E0,6.242373680E1
1.044897792E1,-7.181898174E0,-4.795226244E1,3.073144519E0,4.858439412E1
1.045894692E1,-5.959734793E0,-2.307102200E1,-3.523439766E0,2.408744741E1
1.046891692E1,-4.619774282E0,-1.087538725E1,-2.758906964E0,1.213375168E1
1.047888592E1,-6.059154416E0,-7.671984308E0,-3.931955488E0,1.053721830E1
1.048885492E1,-7.754626515E0,-9.712674265E0,-3.121852410E0,1.281468830E1
1.049882492E1,-8.278990197E0,-1.258367118E1,2.615442604E0,1.528826344E1
1.050879392E1,-7.494938219E0,-1.311982110E1,4.543549687E0,1.577807492E1
1.051876392E1,-5.590607085E0,-1.136482961E1,4.215175903E0,1.334848109E1
1.052873292E1,-4.567650155E0,-1.059081145E1,3.243015490E0,1.198106275E1
1.053870192E1,-3.620593301E0,-9.511435322E0,1.838562237E0,1.034197316E1
1.054867192E1,-2.143100723E0,-7.410889172E0,1.173273057E-1,7.715434189E0
1.055864092E1,-1.257040268E-1,-5.310111473E0,-1.343512402E0,5.478878619E0
1.056861092E1,1.736659009E0,-3.063820549E0,-3.291375471E0,4.820387263E0
1.057857992E1,3.973163155E0,1.132319158E-1,-4.894063953E0,6.304816325E0
1.058854892E1,5.159363821E0,3.052437190E0,-5.294336269E0,7.997899998E0
1.059851892E1,5.185034852E0,5.891400722E0,-4.471064093E0,9.032364198E0
1.060848792E1,4.663124662E0,7.977192593E0,-3.263674872E0,9.799587080E0
1.061845792E1,3.952289180E0,9.139072350E0,-2.454454139E0,1.025512449E1
1.062842692E1,3.644075134E0,9.927891562E0,-2.330431772E0,1.082927637E1
1.063839592E1,3.462988620E0,1.018086550E1,-1.793747422E0,1.090228611E1
1.064836592E1,3.528218403E0,1.011401078E1,-1.592046549E0,1.082941140E1
1.065833492E1,3.798482265E0,1.025850015E1,-2.896235840E0,1.131607153E1
1.066830492E1,4.316430382E0,1.081722500E1,-5.984761460E0,1.309432311E1
1.067827392E1,4.739761779E0,1.101936558E1,-5.228669114E0,1.308551643E1
1.068824292E1,4.964114766E0,1.098467873E1,-2.358093780E0,1.228276062E1
1.069821292E1,5.069889143E0,1.078344563E1,-5.190580644E-2,1.191592085E1
1.070818192E1,5.043625789E0,1.053911271E1,1.439389197E0,1.177212381E1
1.071815192E1,4.882989034E0,1.044138469E1,2.191154019E0,1.173316888E1
1.072812092E1,4.578057322E0,1.052982265E1,2.083390419E0,1.166945969E1
1.073808992E1,4.222058368E0,1.051492862E1,1.277777418E0,1.140272844E1
1.074805992E1,3.655601458E0,1.043606372E1,6.273501062E-1,1.107557746E1
1.075802892E1,3.296333910E0,1.052289253E1,1.629145012E-1,1.102831019E1
1.076799892E1,3.060834084E0,1.055407924E1,-2.492847104E-2,1.098899064E1
1.077796792E1,2.751066433E0,1.048192226E1,3.931316972E-2,1.083700172E1
1.078793692E1,2.439064560E0,1.015695974E1,-4.546831436E-3,1.044571146E1
1.079790692E1,2.218723348E0,9.681673497E0,-1.161743078E-1,9.933329324E0
1.080787592E1,2.019254357E0,9.214345896E0,-1.109187573E-1,9.433655782E0
1.081784592E1,1.825329257E0,8.968082222E0,7.516829610E-2,9.152266163E0
1.082781492E1,1.593663742E0,8.899571566E0,3.024057327E-1,9.046191873E0
1.083778392E1,1.401331424E0,8.820280398E0,5.115769905E-1,8.945545656E0
1.084775392E1,1.291334042E0,8.727686815E0,6.999614149E-1,8.850424099E0
1.085772292E1,1.338410121E0,8.666220884E0,7.317193973E-1,8.799439717E0
1.086768879E1,1.632253173E0,8.550451861E0,3.147573727E-1,8.710542443E0
1.087765779E1,3.085682119E0,7.552626849E0,-6.672134990E0,1.053949675E1
1.088762679E1,5.021732644E0,4.694672729E0,-1.773824555E1,1.902375110E1
1.089759679E1,3.628638777E0,2.642964279E0,-1.082131688E1,1.171551017E1
1.090756579E1,1.896382137E0,-5.685744792E-1,-2.394451767E0,3.106918314E0
1.091753579E1,1.857388810E0,-2.427642902E0,5.502616430E0,6.294611253E0
1.092750479E1,4.639418588E0,-4.061245612E0,9.036517450E0,1.093967862E1
1.093747379E1,7.014443858E0,-1.413163148E1,1.806297184E1,2.398283517E1
1.094744379E1,6.672567683E0,-4.569536818E1,-3.966670992E0,4.635001954E1
1.095741279E1,-3.106152052E0,-6.888397067E1,-1.728902853E1,7.108839641E1
1.096738279E1,-9.851493012E0,-4.219292810E1,5.051256405E0,4.362121374E1
1.097735179E1,-8.345326858E0,-1.447063550E1,1.471130105E1,2.225906896E1
1.098732079E1,-5.907809764E0,-4.818402151E0,8.970473149E0,1.177236612E1
1.099729079E1,-5.422093838E0,-3.276642827E0,4.981819550E0,8.059405427E0
1.100725979E1,-6.441284577E0,-9.737319694E0,5.452616670E-1,1.168772228E1
1.101722979E1,-7.611209518E0,-1.727411696E1,-1.245652231E0,1.891764458E1
1.102719879E1,-6.266402543E0,-1.771237279E1,4.631404102E-1,1.879389395E1
1.103716779E1,-5.028622418E0,-1.677478462E1,1.015045647E0,1.754168636E1
1.104713779E1,-4.295883851E0,-1.550248429E1,-1.350957661E0,1.614331824E1
1.105710679E1,-2.533329570E0,-1.270839463E1,-2.982206867E0,1.329716551E1
1.106707679E1,-4.603128429E-1,-8.985867113E0,-2.718373480E0,9.399321788E0
1.107704579E1,7.883894420E-1,-6.425315831E0,-1.836036825E0,6.728838879E0
1.108701479E1,1.865973253E0,-4.323976799E0,-1.398096160E0,4.912565970E0
1.109698479E1,2.378280999E0,-1.985964696E0,-1.430979146E0,3.412913360E0
1.110695379E1,2.631973853E0,6.325915504E-1,-8.524170381E-1,2.837969915E0
1.111692379E1,2.604240801E0,3.219626042E0,-3.190989304E-1,4.153298223E0
1.112689279E1,2.447918999E0,5.408339433E0,-4.845336546E-1,5.956275322E0
1.113686179E1,2.407017433E0,8.158213618E0,-1.526916752E0,8.641854959E0
1.114683179E1,2.586621094E0,1.070039997E1,-1.118516806E0,1.106527216E1
1.115680079E1,2.342281154E0,1.120996376E1,-6.211204827E-1,1.146888657E1
1.116677079E1,2.313014671E0,1.117707317E1,-1.325797494E-1,1.141466508E1
1.117673979E1,2.399054110E0,1.114525964E1,1.073209655E-1,1.140104341E1
1.118670879E1,2.575059102E0,1.160857196E1,-4.364964757E-3,1.189074814E1
1.119667879E1,2.931320011E0,1.251694042E1,-9.140546579E-2,1.285592429E1
1.120664779E1,3.517569162E0,1.285848096E1,-4.573756037E-1,1.333877873E1
1.121661779E1,4.517243063E0,1.239313966E1,-1.257064242E0,1.325049456E1
1.122658679E1,6.048463951E0,1.161273401E1,-2.678191999E0,1.336458827E1
1.123655579E1,7.458403062E0,1.082462991E1,-3.645085825E0,1.364137235E1
1.124652579E1,8.051810666E0,1.029435879E1,-1.931948703E0,1.321127941E1
1.125649479E1,8.096381652E0,9.808215430E0,-6.466324693E-1,1.273462286E1
1.126646479E1,7.616234615E0,9.712601175E0,-1.294333810E-1,1.234335466E1
1.127643379E1,6.823102496E0,9.944158516E0,-5.704011494E-1,1.207337458E1
1.128640279E1,4.772041625E0,1.040178149E1,-7.324923992E-1,1.146760588E1
1.129637279E1,3.428371641E0,1.023191637E1,2.399668068E-1,1.079367541E1
1.130634179E1,2.723321394E0,9.894985771E0,9.531224638E-1,1.030706870E1
1.131631179E1,2.236637463E0,9.766302003E0,1.255850360E0,1.009754238E1
1.132628079E1,2.006414164E0,9.673138316E0,1.376983033E0,9.974536829E0
1.133624979E1,1.855425168E0,9.464457622E0,1.224509284E0,9.722035981E0
1.134621979E1,1.731305591E0,9.242556957E0,1.022024884E0,9.458689815E0
1.135618879E1,1.556839732E0,9.240019265E0,8.147884512E-1,9.405614610E0
1.136615779E1,1.419279160E0,9.330940545E0,5.684312224E-1,9.455364554E0
1.137612779E1,1.288940923E0,9.373656794E0,2.791560338E-1,9.465977947E0
1.138609679E1,1.169237016E0,9.313061514E0,-9.918924272E-2,9.386696355E0
1.139606679E1,1.215102430E0,8.760561031E0,-2.681981580E0,9.242127930E0
1.140603579E1,2.150896231E0,6.510120923E0,-1.221716186E1,1.400953507E1
1.141600479E1,2.408594281E0,5.718380442E0,-8.625717806E0,1.062563923E1
1.142597479E1,1.854989843E0,5.906469582E0,1.575207152E0,6.388164667E0
1.143594379E1,1.836138274E0,5.178523977E0,7.088733902E0,8.968760376E0
1.144591379E1,3.181367126E0,7.801121235E-1,9.004036167E0,9.581353715E0
1.145588279E1,5.585024164E0,-2.096986716E1,9.048480853E0,2.351175938E1
1.146585279E1,6.056307991E0,-6.571593987E1,4.540788047E0,6.615045258E1
1.147582179E1,3.964449635E0,-6.756776243E1,-6.723915592E0,6.801713329E1
1.148579079E1,-3.961884169E0,-4.302285851E1,-9.889015764E0,4.432217857E1
1.149576079E1,-7.478383582E0,-1.755327122E1,-6.425120826E-1,1.909074051E1
1.150572979E1,-6.396562732E0,-8.524841056E0,5.011385411E0,1.177722011E1
1.151569879E1,-7.439858032E0,-6.385016236E0,3.419379793E0,1.038325951E1
1.152566879E1,-8.165009837E0,-1.014657626E1,2.667134330E0,1.329413408E1
1.153563779E1,-8.201539147E0,-1.452115428E1,3.608822563E0,1.706319918E1
1.154560779E1,-6.906610676E0,-1.308881682E1,3.510208687E0,1.520986397E1
1.155557679E1,-5.838826067E0,-1.160052502E1,3.022545054E0,1.333416099E1
1.156554579E1,-5.814628535E0,-1.116741942E1,1.722349995E0,1.270777915E1
1.157551579E1,-5.947054521E0,-1.108298095E1,9.166159576E-1,1.261111054E1
1.158548479E1,-5.522339673E0,-1.088709221E1,3.240772498E-1,1.221188103E1
1.159545479E1,-4.445801198E0,-1.054279412E1,-1.883260108E0,1.159578909E1
1.160542379E1,-1.908381793E0,-7.602642762E0,-3.751469482E0,8.689972457E0
1.161539379E1,7.388570935E-1,-3.119432833E0,-3.548653545E0,4.782228872E0
1.162536279E1,2.384419406E0,5.751642913E-1,-2.590956219E0,3.567817820E0
1.163533179E1,3.276629086E0,3.745421707E0,-1.919446186E0,5.333737488E0
1.164530179E1,3.593694939E0,6.444858395E0,-1.512981814E0,7.532592981E0
1.165527079E1,3.487906529E0,8.335309408E0,-1.197964094E0,9.114712988E0
1.166523979E1,3.335459092E0,9.258912789E0,-1.415189910E0,9.942611119E0
1.167520979E1,3.222674780E0,9.919130094E0,-1.670843042E0,1.056250401E1
1.168517879E1,2.954447796E0,1.035741633E1,-1.073640010E0,1.082393356E1
1.169514879E1,2.590250461E0,1.061464704E1,-1.059172829E0,1.097733922E1
1.170511779E1,2.438322256E0,1.118934297E1,-2.677058224E0,1.176067397E1
1.171508779E1,3.049370618E0,1.165196064E1,-4.703714864E0,1.293026610E1
1.172505679E1,4.198143256E0,1.210633490E1,-6.740907601E0,1.447852157E1
1.173502579E1,5.262864801E0,1.215036093E1,-5.690482206E0,1.441216862E1
1.174499579E1,5.814844297E0,1.121224184E1,-2.105026871E0,1.280460539E1
1.175496479E1,6.067677902E0,1.045350012E1,1.218066237E0,1.214808895E1
1.176493479E1,6.148361292E0,1.025531225E1,3.534049539E0,1.246849157E1
1.177490379E1,5.962850774E0,1.046184058E1,3.725742903E0,1.260503304E1
1.178487279E1,5.324264073E0,1.084698265E1,1.903096202E0,1.223219504E1
1.179484279E1,4.436010035E0,1.113237004E1,-2.958725838E-1,1.198730113E1
1.180481179E1,4.006202555E0,1.135356202E1,-1.146023862E0,1.209406467E1
1.181478179E1,3.875308247E0,1.144016162E1,-5.604024106E-1,1.209170637E1
1.182475079E1,3.810948822E0,1.063655539E1,4.587012041E-1,1.130796393E1
1.183471979E1,3.574598518E0,9.207185980E0,9.982354867E-1,9.927059097E0
1.184468979E1,3.254572511E0,8.277948807E0,1.271866468E0,8.985228044E0
1.185465879E1,3.068726948E0,7.952624931E0,1.269908236E0,8.618236206E0
1.186463329E1,2.927117910E0,7.971327251E0,1.014484314E0,8.552149193E0
1.187460229E1,2.784674766E0,8.084173835E0,6.326131850E-1,8.573708625E0
1.188457129E1,2.642153270E0,8.163079087E0,3.158239049E-1,8.585835942E0
1.189454129E1,2.508802547E0,8.155608684E0,4.299866061E-2,8.532871270E0
1.190451029E1,2.550551959E0,7.911090989E0,-1.254392649E0,8.406198716E0
1.191448029E1,3.308628266E0,6.744874937E0,-7.587589690E0,1.067763439E1
1.192444929E1,3.775688065E0,4.874864620E0,-1.586482572E1,1.702095240E1
1.193441829E1,2.611438431E0,1.825587265E0,-2.181270353E1,2.204419232E1
1.194438829E1,8.653928867E-1,8.483894759E-1,-8.265273213E-1,1.466907279E0
1.195435729E1,1.873990809E0,2.336134561E0,1.894184578E1,1.917714493E1
1.196432729E1,1.763751791E0,-5.536927307E-1,1.129309596E1,1.144340039E1
1.197429629E1,2.483195251E0,-4.712635376E0,-2.239249706E0,5.778358771E0
1.198426529E1,3.903861663E0,-1.241893290E1,8.360661181E0,1.547160902E1
1.199423529E1,3.832722976E0,-3.682625067E1,1.072604585E1,3.854751047E1
1.200420429E1,-1.676715547E0,-6.472827498E1,-3.655842948E0,6.485311207E1
1.201417429E1,-6.879570812E0,-4.622987386E1,1.828155363E-1,4.673931057E1
1.202414329E1,-6.429293107E0,-2.009444776E1,5.045637231E0,2.169288122E1
1.203411229E1,-5.347005064E0,-7.539886935E0,6.707991870E0,1.142092435E1
1.204408229E1,-5.147750666E0,-4.089730323E0,6.341405947E0,9.134476472E0
1.205405129E1,-7.188178083E0,-9.315878118E0,-7.952593356E-1,1.179355445E1
1.206402129E1,-1.011179702E1,-1.600009638E1,-1.114884866E1,2.196698317E1
1.207399029E1,-1.059061966E1,-1.678142238E1,-5.295084713E0,2.053814218E1
1.208395929E1,-8.279340445E0,-1.328615099E1,5.545511019E-1,1.566450808E1
1.209392929E1,-7.224725520E0,-1.170974516E1,5.602802038E-2,1.375928522E1
1.210389829E1,-5.702472507E0,-1.079898285E1,-6.073198843E-1,1.222722621E1
1.211386829E1,-2.710725907E0,-9.336595387E0,-1.456459558E0,9.830631863E0
1.212383729E1,-2.846540062E-1,-8.102372124E0,-2.269524835E0,8.419038242E0
1.213380629E1,1.917701816E0,-6.323960779E0,-2.665416418E0,7.125623122E0
1.214377629E1,3.299087364E0,-4.048641354E0,-2.423316547E0,5.757424540E0
1.215374529E1,3.697740587E0,-1.735290468E0,-1.001255574E0,4.205595223E0
1.216371529E1,3.680274954E0,5.226913780E-1,5.401792306E-1,3.756251271E0
1.217368429E1,3.701770780E0,3.236137995E0,1.184931235E0,5.057643529E0
1.218365329E1,3.965058914E0,6.158972819E0,1.152568651E0,7.415055824E0
1.219362329E1,3.836805502E0,8.209048727E0,1.122888184E0,9.130741225E0
1.220359229E1,3.506491027E0,9.409321886E0,3.299653959E-1,1.004687488E1
1.221356229E1,3.163221461E0,1.041436938E1,-4.754125464E-1,1.089454344E1
1.222353129E1,3.147660266E0,1.084257385E1,-1.292511232E0,1.136396753E1
1.223350029E1,3.583126097E0,1.106164797E1,-2.107914811E0,1.181702810E1
1.224347029E1,4.492393859E0,1.127326689E1,-3.249093086E0,1.256283227E1
1.225343929E1,5.843958753E0,1.172410943E1,-4.084558461E0,1.372188813E1
1.226340929E1,6.788749520E0,1.224087232E1,-3.246125624E0,1.436883456E1
1.227337829E1,7.329698828E0,1.238575931E1,-2.694546661E0,1.464213441E1
1.228334729E1,7.568482159E0,1.246909382E1,-2.521257994E0,1.480259993E1
1.229331729E1,7.574738095E0,1.227058319E1,-1.667455165E0,1.451634512E1
1.230328629E1,7.195918043E0,1.167358481E1,-6.333622134E-1,1.372789010E1
1.231325629E1,6.496943053E0,1.107343361E1,2.965999409E-1,1.284208599E1
1.232322529E1,5.336953701E0,1.053773744E1,6.670316505E-1,1.183097276E1
1.233319429E1,4.027259256E0,1.006791834E1,5.132902247E-1,1.085565584E1
1.234316429E1,3.402469938E0,9.973634330E0,5.265669125E-1,1.055118269E1
1.235313329E1,2.714409945E0,9.735902914E0,9.136601901E-1,1.014842854E1
1.236310329E1,2.034614700E0,9.493136460E0,1.233525690E0,9.786770788E0
1.237307229E1,1.594649437E0,9.340577926E0,1.292850956E0,9.563512242E0
1.238304129E1,1.308912965E0,9.189655443E0,1.311767283E0,9.374633524E0
1.239301129E1,1.084155789E0,9.096664833E0,1.241037024E0,9.244721616E0
1.240298029E1,8.356940013E-1,9.080580897E0,9.531651485E-1,9.168634451E0
1.241295029E1,5.467756207E-1,9.067132301E0,1.872582507E-1,9.085533413E0
1.242291929E1,1.991430089E-1,8.928197780E0,-1.908962129E0,9.132168961E0
1.243288829E1,-1.387028988E-1,8.567981814E0,-4.393542877E0,9.629785557E0
1.244285829E1,-1.895268242E-1,7.718128195E0,-8.049868805E0,1.115373530E1
1.245282729E1,5.584089486E-1,5.305003930E0,-1.440912513E1,1.536482263E1
1.246279729E1,1.807365149E0,3.909129127E0,-3.560183669E0,5.587733626E0
1.247276629E1,2.539001954E0,3.332445729E0,1.080038034E1,1.158446981E1
1.248273529E1,3.618702311E0,1.516382993E0,1.200043130E1,1.262556039E1
1.249270529E1,7.022163352E0,-4.878705071E0,2.759603367E0,8.984873514E0
1.250267429E1,1.005957904E1,-2.422522963E1,1.002567806E1,2.808150818E1
1.251264429E1,9.085145234E0,-6.256781300E1,-9.306297455E0,6.390522874E1
1.252261329E1,5.063663904E-1,-6.332550456E1,-1.446888368E1,6.495940678E1
1.253258229E1,-8.165835464E0,-2.608358469E1,9.331584908E0,2.888100995E1
1.254255229E1,-8.333308491E0,-6.424712398E0,7.721469879E0,1.305151550E1
1.255252129E1,-7.640826834E0,-2.168779648E0,3.292560117E0,8.598069086E0
1.256249129E1,-8.643649462E0,-6.797706869E0,-5.766455664E0,1.241666242E1
1.257246029E1,-8.581124600E0,-1.668983745E1,-2.898325050E0,1.898911955E1
1.258242929E1,-6.792098220E0,-1.857343260E1,3.848019292E0,2.014726406E1
1.259239929E1,-5.113331031E0,-1.536309486E1,5.160087122E0,1.699403828E1
1.260236829E1,-4.568195993E0,-1.337069705E1,4.329434005E0,1.477795497E1
1.261233829E1,-4.401534267E0,-1.225627388E1,2.180305095E0,1.320391926E1
1.262230729E1,-4.398093765E0,-1.192589918E1,2.594292641E-1,1.271367782E1
1.263227629E1,-3.426865691E0,-1.155849874E1,-5.227059960E-2,1.205591282E1
1.264224629E1,-1.067523677E0,-1.037304945E1,-1.943579400E-1,1.042964700E1
1.265221529E1,1.586800865E0,-7.940241113E0,-3.269137341E-1,8.103840973E0
1.266218529E1,3.694062104E0,-3.883247012E0,-2.035418108E0,5.733116871E0
1.267215429E1,4.645583307E0,-1.134032393E-1,-4.062320915E0,6.172256943E0
1.268212329E1,5.034136927E0,2.836357428E0,-3.714739612E0,6.869261128E0
1.269209329E1,5.037497907E0,5.275029933E0,-2.110058985E0,7.593067553E0
1.270206229E1,4.646312455E0,6.829719205E0,-1.240945807E0,8.353037193E0
1.271203229E1,4.241265010E0,7.425162225E0,-2.011704140E0,8.784549875E0
1.272200129E1,4.258732105E0,9.301644241E0,-2.910370315E0,1.063614780E1
1.273197129E1,3.658633239E0,1.140184482E1,-1.600406898E0,1.208093393E1
1.274194029E1,3.064740901E0,1.125521185E1,-4.585854292E-1,1.167401950E1
1.275190929E1,3.070848318E0,1.109021512E1,9.785900116E-2,1.150793453E1
1.276187929E1,3.099586506E0,1.141897248E1,-7.270195881E-2,1.183239852E1
1.277184829E1,3.323782787E0,1.191425387E1,1.847152601E-1,1.237057383E1
1.278181829E1,3.649037374E0,1.192461747E1,1.446010218E-1,1.247128242E1
1.279178729E1,4.126307288E0,1.168387825E1,-1.016179422E0,1.243270057E1
1.280175629E1,4.984480618E0,1.139840081E1,-3.302065351E0,1.287137225E1
1.281172629E1,6.182360512E0,1.091481503E1,-5.964492672E0,1.388992230E1
1.282169529E1,6.620380114E0,1.024220864E1,-4.603569601E0,1.303553312E1
1.283166529E1,6.404907879E0,9.601585938E0,-2.350508772E0,1.177871763E1
1.284163429E1,5.803643371E0,8.965472025E0,-1.748660127E0,1.082218912E1
1.285160329E1,4.923521640E0,8.426537667E0,-2.034767312E0,9.969347040E0
1.286157329E1,3.401322129E0,8.285701046E0,-1.680420781E0,9.112938497E0
1.287153867E1,2.080785484E0,8.637403466E0,1.375150004E-2,8.884514391E0
1.288150867E1,1.478797676E0,8.824383389E0,1.822548468E0,9.131170116E0
1.289147767E1,1.324430306E0,8.980442652E0,2.745392879E0,9.483651613E0
1.290144667E1,1.304540709E0,9.282465373E0,2.802457611E0,9.783647506E0
1.291141667E1,1.288615964E0,9.597928505E0,2.564897518E0,1.001795698E1
1.292138567E1,1.336460660E0,9.604472709E0,2.393674672E0,9.988077970E0
1.293135567E1,1.422067844E0,9.418742920E0,2.123874786E0,9.759397484E0
1.294132467E1,1.510797002E0,9.167062971E0,1.674309272E0,9.440384666E0
1.295129367E1,1.761249767E0,8.982326040E0,5.997348762E-1,9.172996443E0
1.296126367E1,2.424457777E0,8.628837295E0,-2.837424545E0,9.401372593E0
1.297123267E1,3.692856700E0,7.301742706E0,-8.309645394E0,1.166202571E1
1.298120267E1,5.047886655E0,4.750998373E0,-1.322005290E1,1.492725507E1
1.299117167E1,5.449392149E0,3.063339908E0,-9.185391068E0,1.111086564E1
1.300114067E1,4.593360947E0,2.883557323E0,5.860119288E0,7.984664407E0
1.301111067E1,4.276261472E0,1.437792907E0,1.397307370E1,1.468333918E1
1.302107967E1,5.655908205E0,-3.891232554E0,3.794262915E0,7.843941578E0
1.303104967E1,9.339287446E0,-1.909342549E1,5.858696660E0,2.204780065E1
1.304101867E1,9.800404719E0,-5.184347687E1,1.173909000E1,5.405182939E1
1.305098767E1,2.730352379E0,-6.623810559E1,-2.460904086E1,7.071454128E1
1.306095767E1,-9.964431982E0,-3.308506644E1,9.286308163E-1,3.456550131E1
1.307092667E1,-9.714548882E0,-1.113315941E1,1.222245710E1,1.917571787E1
1.308089667E1,-7.455363679E0,-3.132018380E0,6.756104515E0,1.053740646E1
1.309086567E1,-7.227750869E0,-7.005970073E-1,2.605326921E0,7.714852375E0
1.310083467E1,-7.941621641E0,-5.676596823E0,-3.008463789E0,1.021488914E1
1.311080467E1,-8.637409898E0,-1.564115803E1,-7.713997722E-1,1.788423137E1
1.312077367E1,-8.098537520E0,-1.840337452E1,1.815687345E0,2.018829423E1
1.313074367E1,-6.897044631E0,-1.668309794E1,1.634030727E0,1.812636307E1
1.314071267E1,-6.102201033E0,-1.674774944E1,4.798605233E-1,1.783127126E1
1.315068167E1,-4.780826190E0,-1.598673081E1,-9.818369704E-1,1.671513880E1
1.316065167E1,-2.272854093E0,-1.291664205E1,-3.100288464E0,1.347654615E1
1.317062067E1,-2.737255602E-1,-9.973696311E0,-4.383086886E0,1.089775181E1
1.318059067E1,1.657076504E0,-6.759218157E0,-4.095262958E0,8.074906274E0
1.319055967E1,3.143442670E0,-3.784325572E0,-3.337301257E0,5.944739820E0
1.320052967E1,3.657623425E0,-1.605885739E0,-1.889943475E0,4.419158796E0
1.321049867E1,3.781562178E0,1.779073834E-1,-3.260343128E-1,3.799758139E0
1.322046767E1,3.764853466E0,2.159736929E0,1.087013177E0,4.474391900E0
1.323043767E1,3.760878822E0,4.522727752E0,1.616601346E0,6.100219319E0
1.324040667E1,3.757102397E0,6.677429059E0,1.158098363E0,7.748875343E0
1.325037667E1,3.583552651E0,8.429415666E0,1.011030364E0,9.215154935E0
1.326034567E1,2.967865109E0,9.517511748E0,4.937097267E-1,9.981733440E0
1.327031467E1,2.856754563E0,1.027932559E1,-3.877213416E-1,1.067595004E1
1.328028467E1,3.045029352E0,1.094975565E1,-7.493932644E-1,1.138994920E1
1.329025367E1,3.195781389E0,1.120994037E1,-1.082086898E0,1.170669440E1
1.330022367E1,3.315651941E0,1.108492924E1,-1.461223285E0,1.166209147E1
1.331019267E1,3.524647801E0,1.100474520E1,-2.373155622E0,1.179658538E1
1.332016167E1,3.888178846E0,1.113233379E1,-3.509403525E0,1.230295507E1
1.333013167E1,4.331503042E0,1.154117110E1,-3.860712427E0,1.291764876E1
1.334010067E1,4.806920266E0,1.155206447E1,-2.705816000E0,1.280148883E1
1.335007067E1,5.051528885E0,1.130413668E1,-1.645731005E0,1.249039153E1
1.336003967E1,5.114748981E0,1.109729259E1,-9.346043319E-1,1.225496003E1
1.337000867E1,5.165255476E0,1.084016479E1,-1.267500937E-1,1.200854289E1
1.337997867E1,5.130483838E0,1.020750308E1,6.823197806E-1,1.144467316E1
1.338994767E1,4.321705448E0,8.693109890E0,1.054704387E0,9.765229074E0
1.339991767E1,2.855107695E0,7.987577832E0,1.056393063E0,8.548041055E0
1.340988667E1,2.095002112E0,8.205929237E0,1.165855279E0,8.549007371E0
1.341985567E1,1.799525787E0,8.312856685E0,1.131046804E0,8.580276580E0
1.342982567E1,1.626070912E0,8.547375056E0,1.127091748E0,8.773372371E0
1.343979467E1,1.572865050E0,8.840680164E0,1.164665955E0,9.054721256E0
1.344976467E1,1.460539745E0,9.109526369E0,1.000928714E0,9.280005674E0
1.345973367E1,1.279984012E0,9.287247226E0,6.289194989E-1,9.396108761E0
1.346970267E1,1.095430098E0,9.389778153E0,-2.060640474E-1,9.455705328E0
1.347967267E1,9.244241832E-1,9.562081565E0,-1.951117630E0,9.802796740E0
1.348964167E1,7.141280490E-1,9.380102765E0,-4.586709155E0,1.046585914E1
1.349961167E1,1.115620680E0,7.600695639E0,-8.736588031E0,1.163370767E1
1.350958067E1,2.559622745E0,3.963596526E0,-1.208454701E1,1.297297354E1
1.351954967E1,4.292254777E0,8.015497702E-1,-2.675126889E0,5.120765272E0
1.352951967E1,4.436067630E0,5.778715521E-1,1.159920706E1,1.243198439E1
1.353948867E1,4.139924284E0,-3.104589091E0,1.784476662E0,5.473737613E0
1.354945867E1,5.450104340E0,-8.064810780E0,-1.004114160E1,1.398461065E1
1.355942767E1,6.398304033E0,-7.786526585E0,1.468296895E1,1.780892664E1
1.356939767E1,4.576166040E0,-1.545690174E1,1.787563407E1,2.407063357E1
1.357936667E1,1.203949012E0,-3.637872583E1,-7.069163271E0,3.707875747E1
1.358933567E1,-7.529390014E0,-4.878038255E1,-8.730927926E0,5.012431085E1
1.359930567E1,-1.038254182E1,-2.727525425E1,5.788662220E0,2.975307177E1
1.360927467E1,-5.781783555E0,-6.061207373E0,3.989667506E0,9.278184236E0
1.361924467E1,-1.902303173E0,6.065538990E-1,-7.402049351E0,7.666615915E0
1.362921367E1,-6.366116573E-1,-9.057978485E0,-6.366089968E0,1.108960550E1
1.363918267E1,-3.545281748E0,-1.813879619E1,1.348032884E0,1.853111283E1
1.364915267E1,-5.245688020E0,-2.132775184E1,4.313970459E0,2.238304229E1
1.365912167E1,-3.697029566E0,-1.930015730E1,3.817373450E0,2.001840252E1
1.366909167E1,-2.229692725E0,-1.875124526E1,-1.031577297E-1,1.888362703E1
1.367906067E1,-9.676716520E-1,-1.678158377E1,7.933502197E-2,1.680964712E1
1.368902967E1,-1.364535846E-1,-1.347593524E1,1.406088134E0,1.354977985E1
1.369899967E1,4.259465638E-1,-1.106822959E1,1.008390931E0,1.112222950E1
1.370896867E1,7.370352472E-1,-9.492367551E0,2.223029895E-1,9.523533026E0
1.371893867E1,5.414037106E-1,-8.390228212E0,-2.384354027E-1,8.411058130E0
1.372890767E1,6.365514310E-1,-6.980653383E0,-5.715185523E-1,7.032876569E0
1.373887667E1,9.146748282E-1,-5.265879625E0,-4.008488524E-1,5.359738620E0
1.374884667E1,1.739162641E0,-2.744109415E0,5.160074258E-1,3.289542041E0
1.375881567E1,2.670800534E0,-3.006632441E-1,7.018202448E-1,2.777791485E0
1.376878567E1,3.058032390E0,1.612715871E0,4.998194093E-1,3.493169624E0
1.377875467E1,2.879291486E0,1.910536784E0,1.953566444E-1,3.461016395E0
1.378872467E1,2.590020957E0,2.976035131E0,-1.528003750E0,4.230814239E0
1.379869367E1,3.466579687E0,1.048193863E1,-2.688573146E0,1.136295022E1
1.380866267E1,3.697290351E0,1.167383741E1,1.327078217E0,1.231704398E1
1.381863267E1,3.132212507E0,1.141299780E1,7.925526595E-1,1.186150975E1
1.382860167E1,3.434113314E0,1.133662732E1,-2.262077236E-1,1.184750704E1
1.383857167E1,3.757404698E0,1.107158355E1,3.116507836E-1,1.169594711E1
1.384854067E1,3.872700681E0,1.103627807E1,8.566170931E-1,1.172736275E1
1.385850967E1,4.177820381E0,1.127763476E1,1.369679861E0,1.210434846E1
1.386847946E1,4.402309900E0,1.135103602E1,1.537735856E0,1.227155177E1
1.387844846E1,4.576054943E0,1.103715749E1,6.590735900E-1,1.196634874E1
1.388841846E1,4.986583861E0,1.076257692E1,-1.132295258E0,1.191558530E1
1.389838746E1,5.807039434E0,1.094876513E1,-5.404335260E0,1.352050311E1
1.390835646E1,6.581227158E0,1.161884552E1,-9.797452460E0,1.656201065E1
1.391832646E1,5.735398178E0,1.141329016E1,-4.571574222E0,1.356677100E1
1.392829546E1,4.404069620E0,1.031377622E1,-2.980828679E-1,1.121867472E1
1.393826546E1,3.737932301E0,9.849867486E0,7.983378947E-1,1.056548015E1
1.394823446E1,3.286174373E0,9.643107601E0,8.133570528E-1,1.022007906E1
1.395820346E1,2.838693976E0,9.349427687E0,6.912566650E-1,9.795295674E0
1.396817346E1,2.438940307E0,9.117703115E0,9.181268781E-1,9.482821146E0
1.397814246E1,2.143298944E0,8.966916872E0,1.222175660E0,9.300163542E0
1.398811246E1,1.914345075E0,8.950494382E0,1.431603044E0,9.264208225E0
1.399808146E1,1.661888908E0,8.990560673E0,1.652065294E0,9.290929754E0
1.400805146E1,1.373236869E0,9.063578948E0,1.900052726E0,9.361861098E0
1.401802046E1,1.066326021E0,9.162382860E0,2.091773572E0,9.458426271E0
1.402798946E1,8.318803011E-1,9.193602898E0,2.123461972E0,9.472246293E0
1.403795946E1,7.215538667E-1,9.142681251E0,1.879585133E0,9.361735988E0
1.404792846E1,7.468543303E-1,8.968558770E0,1.121059760E0,9.069157226E0
1.405789846E1,9.569918588E-1,8.616373370E0,-6.906976712E-1,8.696826246E0
1.406786746E1,1.902688797E0,7.299474571E0,-7.818315557E0,1.086409738E1
1.407783646E1,3.475485581E0,4.853749155E0,-1.702638213E1,1.804260428E1
1.408780646E1,3.490143089E0,3.825082419E0,-9.997062954E0,1.125849111E1
1.409777546E1,3.033108926E0,3.072912970E0,3.572426569E0,5.603996384E0
1.410774546E1,3.436149315E0,3.466837549E-1,9.343910254E0,9.961725281E0
1.411771446E1,4.235728866E0,-5.550713287E0,9.706949841E0,1.195728616E1
1.412768446E1,1.079150426E1,-1.754866829E1,4.304706715E0,2.104620686E1
1.413765346E1,1.688331830E1,-4.643673431E1,8.416401519E0,5.012237569E1
1.414762246E1,1.149698019E1,-6.791457248E1,-2.843771113E1,7.452028666E1
1.415759246E1,-6.833336878E0,-3.629291209E1,-1.695008415E0,3.696948762E1
1.416756146E1,-1.116822166E1,-9.768338588E0,1.400804707E1,2.040526884E1
1.417753146E1,-9.633378419E0,-2.767417002E-1,1.030484752E1,1.410916185E1
1.418750046E1,-8.095327399E0,3.268861937E0,5.315782687E0,1.022141525E1
1.419746946E1,-7.538040969E0,4.292084330E-1,-8.425229645E-1,7.597113036E0
1.420743946E1,-8.017072942E0,-9.794204332E0,-4.612924562E0,1.347141307E1
1.421740846E1,-8.034840292E0,-1.975381236E1,1.905615767E0,2.141035107E1
1.422737846E1,-5.958006356E0,-1.954265069E1,5.491904916E0,2.115594610E1
1.423734746E1,-4.612354166E0,-1.951537694E1,4.125127612E0,2.047291933E1
1.424731646E1,-4.028035181E0,-2.226506051E1,-2.960023554E-1,2.262842469E1
1.425728646E1,-2.294835970E0,-2.072306788E1,-1.397389816E0,2.089651915E1
1.426725546E1,-4.439640279E-1,-1.480962666E1,-3.141790831E-1,1.481961047E1
1.427722546E1,1.032562589E0,-1.033443911E1,-3.086382616E-1,1.039048001E1
1.428719446E1,2.499894606E0,-6.756246017E0,-2.642238640E0,7.673184366E0
1.429716346E1,2.924772884E0,-3.992430900E0,-4.697647793E0,6.823613097E0
1.430713346E1,2.203383324E0,-1.958351805E0,-4.151348282E0,5.091535370E0
1.431710246E1,1.937298905E0,4.109130800E-1,-2.065704346E0,2.861662288E0
1.432707246E1,1.958341134E0,2.464054098E0,-7.520244384E-1,3.236078391E0
1.433704146E1,1.882567797E0,4.030496274E0,-1.063900888E-1,4.449750620E0
1.434701146E1,5.141870414E-1,5.031217412E0,1.643278281E-1,5.060092944E0
1.435698046E1,7.213338652E-1,7.916137136E0,-9.861200559E-1,8.009867818E0
1.436694946E1,1.979324160E0,1.014610380E1,-4.374810737E-1,1.034661955E1
1.437691946E1,2.080319754E0,1.070328849E1,-1.396665931E-2,1.090359160E1
1.438688846E1,1.586420212E0,1.082624842E1,-8.777955255E-2,1.094221592E1
1.439685846E1,2.004102175E0,1.074811558E1,3.566275299E-1,1.093917718E1
1.440682746E1,2.254290061E0,1.076524559E1,1.271637257E0,1.107200964E1
1.441679646E1,2.820881018E0,1.122351878E1,1.748478863E0,1.170392762E1
1.442676646E1,3.739722134E0,1.204208570E1,1.161903731E0,1.266283420E1
1.443673546E1,4.425875641E0,1.219831161E1,3.816729087E-1,1.298202047E1
1.444670546E1,5.020691839E0,1.200587740E1,-4.746465611E-1,1.302204777E1
1.445667446E1,5.710151655E0,1.179834919E1,-2.405292504E0,1.332637639E1
1.446664446E1,6.617976909E0,1.178107769E1,-4.877681808E0,1.436604294E1
1.447661346E1,6.581363983E0,1.160648918E1,-3.818927055E0,1.387836975E1
1.448658246E1,5.859899433E0,1.128291596E1,-2.051575719E0,1.287833750E1
1.449655246E1,4.957198679E0,1.087360853E1,-1.025808617E0,1.199422630E1
1.450652146E1,3.722108274E0,1.027634819E1,-1.991257779E-1,1.093147169E1
1.451649146E1,2.448692439E0,9.676589343E0,5.775400150E-1,9.998301278E0
1.452646046E1,1.494037128E0,9.261927028E0,1.057815106E0,9.441102267E0
1.453643046E1,1.241721440E0,9.176657667E0,1.652268777E0,9.406535504E0
1.454639946E1,1.077970604E0,9.017065517E0,2.151383597E0,9.332627848E0
1.455636846E1,8.630662796E-1,8.996274573E0,2.211084838E0,9.304124663E0
1.456633846E1,7.288549925E-1,9.110640264E0,2.137090663E0,9.386274666E0
1.457630746E1,5.866151860E-1,9.217734942E0,1.648330677E0,9.382310422E0
1.458627746E1,5.554752544E-1,9.192831650E0,6.172244829E-1,9.230258532E0
1.459624646E1,5.789779915E-1,8.941784955E0,-1.472219558E0,9.080647781E0
1.460621546E1,7.972031694E-1,8.313986952E0,-4.510980695E0,9.492463261E0
1.461618546E1,1.422141665E0,7.500232873E0,-7.056591758E0,1.039574275E1
1.462615446E1,1.948877123E0,6.533078846E0,-9.670442165E0,1.183201982E1
1.463612446E1,8.963519201E-1,6.223309148E0,-5.380830038E0,8.275648338E0
1.464609346E1,-1.656610846E-1,6.077279615E0,3.536960868E0,7.033552679E0
1.465606346E1,8.674808543E-2,3.695044436E0,1.324938136E0,3.926364690E0
1.466603246E1,4.107196468E-1,1.600161899E0,4.494816653E0,4.788797915E0
1.467600146E1,1.117370167E0,2.127083153E0,1.363836972E1,1.384839801E1
1.468597146E1,2.653262395E0,-5.903392777E0,1.088984040E1,1.266800977E1
1.469594046E1,7.500761461E0,-4.812576571E1,-5.357277453E0,4.900052213E1
1.470591046E1,5.409767908E0,-7.018835818E1,-2.187652706E0,7.043051212E1
1.471587946E1,-3.182388049E0,-5.482354541E1,8.622488973E0,5.558863230E1
1.472584846E1,-4.849968345E0,-1.984784261E1,-2.454521163E-1,2.043328891E1
1.473581846E1,-5.522766520E0,-8.472600278E0,-4.053247790E0,1.089562863E1
1.474578746E1,-6.425546211E0,-9.456775550E0,-3.949813469E0,1.209625043E1
1.475575746E1,-8.909943942E0,-1.038629690E1,-5.823792291E0,1.487208193E1
1.476572646E1,-1.006700735E1,-1.321895947E1,-1.287229443E0,1.666560788E1
1.477569646E1,-9.242057605E0,-1.335721104E1,2.985950255E0,1.651504206E1
1.478566546E1,-7.732570233E0,-1.078376372E1,3.476674320E0,1.371748762E1
1.479563446E1,-6.387858567E0,-9.916931541E0,2.184921471E0,1.199683917E1
1.480560446E1,-5.293695999E0,-9.465712434E0,1.017948205E0,1.089307797E1
1.481557346E1,-3.879294879E0,-8.763357754E0,3.368317813E-1,9.589516334E0
1.482554346E1,-2.249863134E0,-7.854526779E0,-6.005152602E-2,8.170623062E0
1.483551246E1,-3.881142014E-1,-5.558793554E0,-8.172804614E-1,5.631941563E0
1.484548146E1,1.113828070E0,-2.690799181E0,-1.267593323E0,3.176130670E0
1.485545146E1,2.547217877E0,8.525708199E-2,-7.930959389E-1,2.669192547E0
1.486541996E1,3.404617912E0,3.087638013E0,-5.251537136E-1,4.626091012E0
1.487538996E1,3.749268883E0,6.371153072E0,-7.655221510E-1,7.432000591E0
1.488535896E1,3.688130396E0,8.786086466E0,-1.286452932E0,9.615226588E0
1.489532896E1,3.438697239E0,9.544438761E0,-1.896517938E0,1.032074272E1
1.490529796E1,3.749431435E0,9.804913507E0,-4.972368695E0,1.161546449E1
1.491526696E1,6.586203139E0,1.138053406E1,-2.490251729E1,2.816078825E1
1.492523696E1,5.141067883E0,1.105352852E1,-1.485715985E1,1.921838366E1
1.493520596E1,3.875686562E0,1.084116817E1,-2.819413952E0,1.185331046E1
1.494517596E1,4.206741002E0,1.067117207E1,3.091205399E0,1.187965210E1
1.495514496E1,5.027897363E0,1.012749913E1,6.155227093E0,1.287372561E1
1.496511496E1,5.827497672E0,9.818080852E0,8.475666558E0,1.421940098E1
1.497508396E1,6.155974367E0,1.003998970E1,9.751261210E0,1.529001337E1
1.498505296E1,5.721597580E0,1.081994629E1,7.598402946E0,1.440637511E1
1.499502296E1,4.780447582E0,1.089900298E1,3.553396221E0,1.242044966E1
1.500499196E1,4.120945976E0,1.064284231E1,1.436594228E0,1.150287317E1
1.501496196E1,3.958261234E0,1.059159732E1,6.715959871E-1,1.132699461E1
1.502493096E1,3.869764794E0,1.066985996E1,4.028754973E-1,1.135708148E1
1.503490096E1,3.817006537E0,1.074527852E1,8.027057648E-2,1.140337637E1
1.504486996E1,3.782615261E0,1.076351715E1,-3.639499980E-1,1.141463706E1
1.505483896E1,3.710100139E0,1.060432203E1,-6.102043523E-1,1.125117052E1
1.506480896E1,3.437982709E0,1.015418816E1,-6.336960894E-1,1.073912627E1
1.507477796E1,3.252755197E0,9.630071819E0,-6.252521253E-1,1.018379300E1
1.508474796E1,3.020586529E0,9.134548944E0,-5.667109716E-1,9.637691047E0
1.509471696E1,2.769535156E0,8.930579351E0,-6.217250848E-1,9.370811843E0
1.510468596E1,2.599608344E0,8.706667829E0,-8.750861084E-1,9.128515976E0
1.511465596E1,2.598774531E0,8.399315370E0,-1.736088613E0,8.961926769E0
1.512462496E1,2.968878139E0,7.631616885E0,-5.508132693E0,9.868907713E0
1.513459496E1,2.911041283E0,7.345717276E0,-6.555798787E0,1.026704541E1
1.514456396E1,2.342820560E0,7.353056701E0,-7.289621428E0,1.061578219E1
1.515453396E1,3.747938056E-1,6.802231445E0,-1.618988063E1,1.756482444E1
1.516450296E1,-1.161255713E0,5.015562662E0,-7.495304840E0,9.093073094E0
1.517447196E1,1.358018613E0,2.905054026E0,1.002315674E1,1.052365072E1
1.518444196E1,3.530168450E0,2.279842831E0,1.481761396E1,1.540199520E1
1.519441096E1,4.603162050E0,4.758353001E-1,6.115590572E0,7.669156938E0
1.520438096E1,5.729820519E0,-5.764707931E0,3.491260200E0,8.845993358E0
1.521434996E1,7.430076225E0,-3.026994083E1,7.525525004E0,3.206413694E1
1.522431996E1,4.514687538E0,-6.738876278E1,-6.554851538E-1,6.754300418E1
1.523428896E1,-7.141806009E-1,-6.341663692E1,7.343600584E0,6.384440745E1
1.524425796E1,-4.771499296E0,-3.286737928E1,6.720955732E0,3.388514530E1
1.525422796E1,-3.660985282E0,-1.101178759E1,3.541039301E0,1.213265175E1
1.526419696E1,-2.438343306E0,-7.551282574E0,2.751192732E0,8.398597981E0
1.527416696E1,-5.273057667E0,-8.463799633E0,-1.147173425E1,1.520005684E1
1.528413596E1,-7.732886567E0,-1.020784455E1,-9.832269706E0,1.614531364E1
1.529410496E1,-6.913799243E0,-1.228490536E1,2.485437366E0,1.431422085E1
1.530407496E1,-6.108038308E0,-1.122036011E1,2.628857287E0,1.304283342E1
1.531404396E1,-5.221613864E0,-9.612824287E0,1.185835215E0,1.100353794E1
1.532401396E1,-4.379668312E0,-9.289209552E0,5.185562636E-1,1.028298640E1
1.533398296E1,-3.401396096E0,-9.134941292E0,-1.040687442E-2,9.747653877E0
1.534395296E1,-2.115587235E0,-8.786022146E0,-1.167742760E0,9.112272914E0
1.535392196E1,-4.762755954E-1,-7.252018569E0,-2.910432880E0,7.828743916E0
1.536389096E1,1.134221550E0,-4.433208050E0,-3.934965050E0,6.035208536E0
1.537386096E1,2.620540207E0,-2.220678949E-1,-2.464801957E0,3.604413103E0
1.538382996E1,3.063909135E0,3.142053956E0,-5.367549549E-1,4.421328774E0
1.539379996E1,3.138332203E0,5.876547040E0,1.164010336E-1,6.663068612E0
1.540376896E1,3.218295508E0,8.041640604E0,8.017994463E-2,8.662092034E0
1.541373896E1,3.330037554E0,9.304586560E0,-2.126186483E-1,9.884821083E0
1.542370796E1,3.320280305E0,9.567992515E0,-6.670521158E-1,1.014966505E1
1.543367696E1,3.387428268E0,9.512485482E0,-8.355010432E-1,1.013213266E1
1.544364696E1,3.441692475E0,9.545701175E0,-8.630362395E-1,1.018383472E1
1.545361596E1,3.424929678E0,9.650845222E0,-9.920392654E-1,1.028849351E1
1.546358596E1,3.596166265E0,1.001890932E1,-2.822928128E0,1.101271442E1
1.547355496E1,4.202490953E0,1.107758280E1,-8.225202245E0,1.442316619E1
1.548352496E1,4.035422553E0,1.084295041E1,-4.518487351E0,1.242058520E1
1.549349396E1,3.713045966E0,1.054256023E1,-7.515427009E-1,1.120254895E1
1.550346296E1,3.710839227E0,1.050774590E1,6.400701392E-1,1.116211188E1
1.551343296E1,3.501659765E0,1.049637892E1,1.243534369E0,1.113471909E1
1.552340196E1,3.238567805E0,1.058700608E1,1.473121199E0,1.116884530E1
1.553337196E1,3.067531485E0,1.067877696E1,1.591601576E0,1.122404661E1
1.554334096E1,2.821445859E0,1.075492408E1,1.558858922E0,1.122759947E1
1.555331096E1,2.463514985E0,1.084680021E1,1.388104438E0,1.120931822E1
1.556327996E1,2.243111792E0,1.085728310E1,1.071994604E0,1.113828170E1
1.557324896E1,2.128513236E0,1.071511624E1,7.825065583E-1,1.095247009E1
1.558321896E1,2.165274242E0,1.042927510E1,4.700670218E-1,1.066204271E1
1.559318796E1,2.276975065E0,1.012062515E1,1.643511987E-1,1.037490627E1
1.560315796E1,2.403194231E0,9.864615333E0,-7.235814253E-2,1.015338436E1
1.561312696E1,2.493420569E0,9.676396385E0,-2.110090742E-1,9.994714501E0
1.562309696E1,2.613008116E0,9.457563754E0,-5.368942648E-1,9.826575143E0
1.563306596E1,3.337779852E0,9.000507957E0,-4.136135581E0,1.045263294E1
1.564303496E1,4.428463326E0,8.156544823E0,-8.494068915E0,1.258132416E1
1.565300496E1,4.430742863E0,7.255688866E0,-7.793088330E0,1.153294104E1
1.566297396E1,4.857322681E0,5.559922652E0,-9.992739522E0,1.242421694E1
1.567294396E1,4.238977579E0,2.958130957E0,-8.803985378E0,1.020929127E1
1.568291296E1,1.254035676E0,3.192340595E0,8.141162553E0,8.834148044E0
1.569288196E1,-3.529239766E-1,2.419883062E0,6.472561333E0,6.919135754E0
1.570285196E1,-1.016011315E0,1.298231564E0,2.858278055E0,3.299611739E0
1.571282096E1,-3.341437066E-3,-3.105181414E-1,5.223030059E0,5.232253404E0
1.572279096E1,6.914287924E-1,-4.148721712E0,4.777069938E0,6.364775158E0
1.573275996E1,1.940167549E0,-1.500352150E1,-2.829937770E0,1.539085622E1
1.574272996E1,-9.355280457E-1,-5.420458255E1,2.446606007E0,5.426783452E1
1.575269896E1,-2.625277914E0,-6.296788885E1,9.891524220E-1,6.303035406E1
1.576266796E1,-3.746603137E0,-3.519100898E1,1.449946929E0,3.541957784E1
1.577263796E1,-2.774701463E0,-1.084237270E1,5.953667722E0,1.267683609E1
1.578260696E1,-1.689132256E0,-7.803465384E0,5.220142704E0,9.539241564E0
1.579257696E1,-1.497863692E0,-1.132682738E1,-1.436820515E0,1.151542736E1
1.580254596E1,-2.543053490E0,-1.442725267E1,-3.423949392E0,1.504447308E1
1.581251596E1,-3.410998394E0,-1.440247334E1,-8.793276787E-2,1.480114457E1
1.582248496E1,-3.159703192E0,-1.322815597E1,1.484765929E0,1.368109515E1
1.583245396E1,-2.567097533E0,-1.151103689E1,2.701472104E0,1.209925252E1
1.584242396E1,-1.991180705E0,-1.031715006E1,2.844476287E0,1.088574441E1
1.585239296E1,-1.788933848E0,-9.938956833E0,2.222465858E0,1.034033373E1
1.586236296E1,-1.345539631E0,-9.824884672E0,1.079011263E0,9.975124111E0
1.587233179E1,-5.193608040E-1,-8.905651501E0,2.936331367E-1,8.925613969E0
1.588230179E1,2.777946375E-1,-6.534941184E0,-3.930977833E-1,6.552644657E0
1.589227079E1,9.981233664E-1,-2.688463803E0,-1.815838788E0,3.394312652E0
1.590223979E1,1.415166229E0,8.974160403E-1,-3.049779046E0,3.479828046E0
1.591220979E1,1.491237627E0,3.697901385E0,-3.616509313E0,5.383066406E0
1.592217879E1,1.524091232E0,6.043129537E0,-2.870546683E0,6.861654825E0
1.593214879E1,1.613299716E0,7.958839352E0,-1.820004344E0,8.322155707E0
1.594211779E1,1.777835394E0,9.316455823E0,-1.271427927E0,9.569408381E0
1.595208779E1,1.915220111E0,9.975632908E0,-1.332729551E0,1.024487619E1
1.596205679E1,1.856053890E0,1.020490691E1,-1.647506220E0,1.050234916E1
1.597202579E1,1.751773038E0,1.047033542E1,-2.619982967E0,1.093439268E1
1.598199579E1,1.630835516E0,1.115111037E1,-5.206092430E0,1.241411637E1
1.599196479E1,1.729221789E0,1.185893687E1,-7.181491207E0,1.397134237E1
1.600193479E1,2.150000145E0,1.189879266E1,-5.998533992E0,1.349763600E1
1.601190379E1,2.783645364E0,1.148083486E1,-3.044608353E0,1.219950370E1
1.602187379E1,3.565885289E0,1.087949550E1,-1.274400834E-1,1.144968127E1
1.603184279E1,4.043581173E0,1.042840387E1,2.035277774E0,1.136857562E1
1.604181179E1,4.178246351E0,1.030265365E1,3.105201879E0,1.154316653E1
1.605178179E1,4.130342159E0,1.039122844E1,3.596032948E0,1.174601242E1
1.606175079E1,3.907960269E0,1.048573231E1,3.792350875E0,1.181544162E1
1.607172079E1,3.794466982E0,1.028979679E1,3.489597251E0,1.150891770E1
1.608168979E1,3.792560790E0,9.882998979E0,2.872149990E0,1.096842886E1
1.609165979E1,3.864786475E0,9.401305354E0,1.962343115E0,1.035238655E1
1.610162879E1,4.031891420E0,8.755396185E0,3.970978636E-1,9.647320742E0
1.611159779E1,4.046748318E0,8.266518086E0,-1.470298163E0,9.320583131E0
1.612156779E1,4.080904536E0,7.990252349E0,-3.216322365E0,9.531140749E0
1.613153679E1,4.178699802E0,7.838767948E0,-3.942088712E0,9.718429832E0
1.614150679E1,4.099592237E0,7.749908981E0,-3.337059183E0,9.381029246E0
1.615147579E1,3.749434066E0,7.666074527E0,-2.026467190E0,8.771175733E0
1.616144579E1,3.205570213E0,7.632647164E0,-5.424204683E-1,8.296216191E0
1.617141479E1,2.743140824E0,7.742550260E0,4.833741152E-1,8.228338633E0
1.618138379E1,2.588159496E0,7.954101353E0,4.608178961E-1,8.377269904E0
1.619135379E1,3.230610622E0,7.762858225E0,-1.455669014E0,8.533333762E0
1.620132279E1,4.506183640E0,6.290505935E0,-6.044367392E0,9.818886550E0
1.621129279E1,4.530723527E0,4.290855246E0,-4.969637461E0,7.977229526E0
1.622126179E1,3.036373134E0,2.569346080E0,-8.567071402E-1,4.068789527E0
1.623123179E1,1.007660467E0,4.797798318E-1,1.322008773E-1,1.123852916E0
1.624120079E1,9.317564455E-1,7.512420809E-1,8.333497356E0,8.419009023E0
1.625116979E1,1.427602526E0,-6.291604627E0,9.777812247E0,1.171443341E1
1.626113979E1,1.066609464E0,-3.370697629E1,1.661961122E0,3.376477486E1
1.627110879E1,-1.123307722E0,-6.560682148E1,-1.297064825E-1,6.561656550E1
1.628107879E1,-1.769982584E0,-5.738098188E1,6.774674102E0,5.780662704E1
1.629104779E1,-5.079218960E0,-2.772721128E1,-3.780048333E0,2.844091201E1
1.630101779E1,-5.224160326E0,-8.790632676E0,-6.359288487E0,1.204191114E1
1.631098679E1,-5.955196184E0,-5.260681450E0,-1.595661882E0,8.104644826E0
1.632095579E1,-7.688168816E0,-6.931355508E0,1.450160353E0,1.045249224E1
1.633092579E1,-8.518042499E0,-9.756959322E0,3.539361734E0,1.342692760E1
1.634089479E1,-8.673788350E0,-1.321719595E1,4.369771607E0,1.640194431E1
1.635086479E1,-6.739628815E0,-1.280380716E1,3.185174832E0,1.481571507E1
1.636083379E1,-5.396197105E0,-1.172842000E1,3.084484609E0,1.327361383E1
1.637080379E1,-4.379595514E0,-1.072847128E1,2.466871287E0,1.184763296E1
1.638077279E1,-3.093986335E0,-9.268634369E0,1.010384831E0,9.823503042E0
1.639074179E1,-1.824255562E0,-7.627593416E0,-4.988271368E-1,7.858557004E0
1.640071179E1,-2.972315133E-1,-5.801865817E0,-1.872930416E0,6.103921844E0
1.641068079E1,1.132701859E0,-3.621254913E0,-3.268819837E0,5.008161716E0
1.642065079E1,2.535833640E0,-9.417478752E-1,-3.940366123E0,4.779521576E0
1.643061979E1,3.311550997E0,1.813864768E0,-3.098804440E0,4.884574123E0
1.644058979E1,3.450726716E0,4.454211248E0,-1.904014215E0,5.947502236E0
1.645055879E1,3.369514153E0,6.930860249E0,-1.502739100E0,7.851666971E0
1.646052779E1,3.314255334E0,8.823352525E0,-1.746299460E0,9.585687247E0
1.647049779E1,3.210550579E0,9.722318078E0,-1.887477704E0,1.041122836E1
1.648046679E1,3.136837947E0,9.865380149E0,-1.623581167E0,1.047862079E1
1.649043679E1,3.292195836E0,9.829474736E0,-1.503151475E0,1.047456879E1
1.650040579E1,4.146752370E0,9.858826590E0,-4.426668524E0,1.157529313E1
1.651037579E1,6.060624406E0,1.011771791E1,-1.296583935E1,1.752747483E1
1.652034479E1,5.666650710E0,9.820975224E0,-8.122058530E0,1.394741264E1
1.653031379E1,4.980954162E0,9.626261773E0,-2.902038617E0,1.122036756E1
1.654028379E1,4.830766966E0,9.727582326E0,-2.737128425E-1,1.086448738E1
1.655025279E1,4.866549587E0,1.022026287E1,1.763975154E0,1.145638190E1
1.656022279E1,5.023514875E0,1.080310982E1,3.640317421E0,1.245772027E1
1.657019179E1,4.884120178E0,1.106036275E1,4.169918454E0,1.278962368E1
1.658016179E1,4.091434202E0,1.112433246E1,3.460548284E0,1.234771237E1
1.659013079E1,3.420161566E0,1.112844188E1,2.318329205E0,1.187073604E1
1.660009979E1,3.165724362E0,1.114524210E1,1.830038349E-1,1.158756759E1
1.661006979E1,2.972618018E0,1.092353088E1,-5.257559037E-1,1.133297861E1
1.662003879E1,2.882062190E0,1.036318168E1,9.539558748E-2,1.075690092E1
1.663000879E1,2.854752184E0,9.810675938E0,9.130117339E-1,1.025829239E1
1.663997779E1,2.698237716E0,9.476456108E0,1.331938423E0,9.942724330E0
1.664994779E1,2.576554527E0,9.263344393E0,1.359318595E0,9.710609127E0
1.665991679E1,2.414032045E0,9.108096725E0,1.072293397E0,9.483395478E0
1.666988579E1,2.251732342E0,9.043916516E0,8.331077778E-1,9.357178691E0
1.667985579E1,2.122609156E0,8.968304417E0,8.400566089E-1,9.254277327E0
