"Time (s)","Linear Acceleration x (m/s^2)","Linear Acceleration y (m/s^2)","Linear Acceleration z (m/s^2)","Absolute acceleration (m/s^2)"
2.059749997E-3,-5.479342465E-1,9.689135714E0,-1.209465567E0,9.779692724E0
1.212775000E-2,-1.480897996E-1,1.000975024E1,-1.704385010E0,1.015489826E1
2.219475000E-2,3.108162032E-1,1.007515486E1,-1.735964652E0,1.022833933E1
3.226275000E-2,4.545945949E-1,1.004892893E1,-1.508252002E0,1.017164947E1
4.233075000E-2,6.451219142E-1,1.009346834E1,-1.450766855E0,1.021758337E1
5.239875001E-2,8.829397961E-1,1.020310012E1,-1.237960219E0,1.031578307E1
6.246674999E-2,1.091397712E0,1.038054675E1,-9.015470982E-1,1.047662574E1
7.253375000E-2,1.382230032E0,1.048721633E1,-1.813386758E-1,1.057946832E1
8.260174999E-2,1.756819478E0,1.050264246E1,6.875542080E-1,1.067073774E1
9.266975000E-2,2.096196114E0,1.046011916E1,1.359547806E0,1.075437127E1
1.027377500E-1,2.224895815E0,1.037588184E1,1.706078948E0,1.074801334E1
1.128057500E-1,2.221381054E0,1.035920558E1,1.780473073E0,1.074326572E1
1.228727500E-1,2.111886678E0,1.033705399E1,1.495427742E0,1.065603372E1
1.329407500E-1,2.007149451E0,1.034828298E1,1.266064276E0,1.061689824E1
1.430087500E-1,1.901129052E0,1.043284307E1,1.256070800E0,1.067877428E1
1.530767500E-1,1.781568988E0,1.062465864E1,1.494618487E0,1.087617781E1
1.631437500E-1,1.678146507E0,1.084850526E1,2.054192348E0,1.116807720E1
1.732117500E-1,1.567458422E0,1.097712997E1,2.364118166E0,1.133769655E1
1.832797500E-1,1.462878485E0,1.107020712E1,2.385138906E0,1.141833555E1
1.933477500E-1,1.365711356E0,1.118116271E1,2.545169013E0,1.154822291E1
2.034157500E-1,1.244995735E0,1.118984934E1,2.756580942E0,1.159143999E1
2.134827500E-1,1.265594891E0,1.110101610E1,2.778041393E0,1.151311439E1
2.235507500E-1,1.232027926E0,1.048920555E1,2.670922741E0,1.089381266E1
2.336187500E-1,1.093620970E0,9.224358083E0,2.301348160E0,9.569795830E0
2.436867500E-1,1.173823718E0,8.915556099E0,2.543723581E0,9.345348166E0
2.537537500E-1,1.199599122E0,8.688395864E0,3.073569027E0,9.293766046E0
2.638217500E-1,1.189683998E0,8.182036344E0,3.900203937E0,9.141808219E0
2.738897500E-1,9.485309377E-1,6.478737162E0,5.891359792E0,8.808056900E0
2.839577500E-1,-6.179746222E0,-1.780380336E1,8.109196994E0,2.051642643E1
2.940257500E-1,-3.070506022E1,-6.975334405E1,7.014282475E0,7.653450129E1
3.040927500E-1,-1.806386413E1,-6.914986462E1,3.669479568E-2,7.147033168E1
3.141607500E-1,-7.160929474E0,-5.845831967E1,-1.549716216E0,5.891566575E1
3.242287500E-1,-2.996384026E0,-2.824384553E1,-4.139869612E0,2.870246763E1
3.342967500E-1,7.935835236E-1,-1.051287976E1,-2.403400930E0,1.081326739E1
3.443637500E-1,1.499933899E0,-3.578602399E0,-1.320192536E0,4.098671146E0
3.544317500E-1,1.553625664E-1,-3.004533291E-1,-4.855013323E-1,5.917104644E-1
3.644997500E-1,1.431959724E-1,8.504494500E-1,4.293949592E-1,9.634050989E-1
3.745677500E-1,7.142294982E-1,1.253429613E0,8.101638883E-1,1.654561904E0
3.846357500E-1,1.651822050E0,2.141124072E0,2.754319056E-1,2.718233086E0
3.947027500E-1,2.013922281E0,3.606842696E0,-2.315485704E-1,4.137488602E0
4.047707500E-1,2.456935990E0,5.140916440E0,-4.743846059E-1,5.717569157E0
4.148387500E-1,2.684763977E0,6.656086721E0,-6.813093817E-1,7.209412634E0
4.249067500E-1,2.753890345E0,7.943692725E0,-8.317021072E-1,8.448543930E0
4.349737500E-1,2.839733026E0,8.883818582E0,-9.952042902E-1,9.379592094E0
4.450417500E-1,2.946471901E0,9.564002960E0,-1.225184637E0,1.008230761E1
4.551097500E-1,2.986897211E0,9.903438506E0,-1.168508745E0,1.040985408E1
4.651777500E-1,2.930327739E0,9.859551644E0,-8.222249401E-1,1.031860616E1
4.752457500E-1,2.819842553E0,9.884210522E0,-8.167379129E-1,1.031097427E1
4.853127500E-1,2.756970951E0,9.977295856E0,-8.160724998E-1,1.038331815E1
4.953807500E-1,2.667403302E0,1.006604723E1,-7.337635839E-1,1.043928907E1
5.054487500E-1,2.583436115E0,1.016432957E1,-7.551433432E-1,1.051465545E1
5.155167500E-1,2.492594065E0,1.029428745E1,-5.978134811E-1,1.060861726E1
5.255837500E-1,2.435189318E0,1.036709230E1,-3.301899290E-1,1.065437822E1
5.356517500E-1,2.379674976E0,1.046430109E1,-1.263337902E-1,1.073221368E1
5.457197500E-1,2.354574487E0,1.075970477E1,3.279240964E-2,1.101436984E1
5.557877500E-1,2.382467313E0,1.097835789E1,2.111219072E-1,1.123588291E1
5.658553750E-1,2.351999665E0,1.117428171E1,2.148185352E-1,1.142114798E1
5.759223750E-1,2.372818530E0,1.122884325E1,1.701153839E-1,1.147807160E1
5.859903750E-1,2.407457144E0,1.120664956E1,8.176044703E-2,1.146261440E1
5.960583750E-1,2.417515232E0,1.138119128E1,-4.746649068E-2,1.163521156E1
6.061263750E-1,2.486129384E0,1.156277306E1,-1.960395992E-1,1.182865130E1
6.161933750E-1,2.552168130E0,1.174653701E1,-2.926648196E-1,1.202415680E1
6.262613750E-1,2.595772279E0,1.198121969E1,-3.979813778E-1,1.226564504E1
6.363293750E-1,2.616692739E0,1.210491988E1,-5.202992821E-1,1.239543777E1
6.463973750E-1,2.572455044E0,1.207834311E1,-5.381169176E-1,1.236096546E1
6.564643750E-1,2.324772252E0,1.171865164E1,-5.861599803E-1,1.196139398E1
6.665323750E-1,1.841479705E0,1.001831758E1,-5.457112813E-1,1.020076152E1
6.766003750E-1,1.859315760E0,9.240192928E0,-5.711922777E-1,9.442694586E0
6.866683750E-1,1.915133865E0,9.161942564E0,-6.224863923E-1,9.380640627E0
6.967363750E-1,1.962390039E0,9.154637638E0,-5.535909891E-1,9.378956654E0
7.068033750E-1,2.017354012E0,8.664101268E0,-6.828331661E-1,8.922030549E0
7.168713750E-1,2.517542965E0,-3.780671647E0,-4.685363377E0,6.525651742E0
7.269393750E-1,-1.236572908E1,-6.446277397E1,4.744712616E0,6.580936698E1
7.370073750E-1,-1.242147527E1,-7.003002962E1,-7.516124436E0,7.151915983E1
7.470753750E-1,-1.660486337E1,-6.707685359E1,-5.839693794E0,6.934787523E1
7.571423750E-1,-1.462097677E1,-4.001683300E1,-1.083059290E-1,4.260436146E1
7.672103750E-1,-4.579898318E0,-9.697274453E0,-3.856513834E0,1.139672319E1
7.772783750E-1,-2.995538227E0,3.895836067E-1,-3.292611573E0,4.468368340E0
7.873463750E-1,-3.530523083E0,4.385996461E0,-3.384400287E0,6.569301599E0
7.974133750E-1,-2.772592080E0,6.507894888E0,-3.661719984E0,7.965435077E0
8.074813750E-1,-2.546113923E0,7.612443280E0,-3.519561600E0,8.764662153E0
8.175493750E-1,-2.175831975E0,7.945587807E0,-2.820062115E0,8.707431350E0
8.276173750E-1,-3.895029882E-1,8.418933948E0,-2.172847848E0,8.703529696E0
8.376853750E-1,1.114922449E0,8.692124049E0,-1.777319816E0,8.941752528E0
8.477523750E-1,2.242802036E0,8.689257159E0,-1.212758427E0,9.055613395E0
8.578203750E-1,3.349413180E0,8.686239996E0,4.390586525E-1,9.319984250E0
8.678883750E-1,3.565453472E0,9.179220502E0,1.779153357E0,1.000679440E1
8.779563750E-1,4.425745248E0,9.780801929E0,3.593245581E0,1.132089754E1
8.880233750E-1,5.258288770E0,1.048156207E1,4.980496325E0,1.274041161E1
8.980913750E-1,5.296180481E0,1.082121280E1,4.461210950E0,1.284720114E1
9.081593750E-1,4.578257589E0,1.097803629E1,3.314276091E0,1.234755641E1
9.182273750E-1,3.245037164E0,1.107036616E1,1.681081517E0,1.165801477E1
9.282943750E-1,2.287810978E0,1.115792237E1,6.022240359E-1,1.140596267E1
9.383623750E-1,1.764646707E0,1.114843000E1,7.984957695E-2,1.128750838E1
9.484303750E-1,1.639043398E0,1.089088003E1,-2.476717194E-1,1.101630938E1
9.584983750E-1,1.515005974E0,1.068894059E1,-2.676843631E-1,1.079909019E1
9.685663750E-1,1.444970803E0,1.060162646E1,-1.236849924E-1,1.070036084E1
9.786333750E-1,1.240639413E0,1.073020205E1,3.036295366E-1,1.080595267E1
9.887013750E-1,1.011457869E0,1.086017280E1,8.730922079E-1,1.094206060E1
9.987693750E-1,8.408603087E-1,1.100224142E1,1.401420887E0,1.112296466E1
1.008837375E0,7.480617803E-1,1.115653541E1,1.927651584E0,1.134652896E1
1.018904375E0,7.059469903E-1,1.126180050E1,2.261087741E0,1.150821573E1
1.028972375E0,6.956992333E-1,1.136116691E1,2.427596709E0,1.163844220E1
1.039040375E0,7.739957897E-1,1.139777165E1,2.341501136E0,1.166151344E1
1.049108375E0,9.801153309E-1,1.138563283E1,1.989637917E0,1.159965172E1
1.059176375E0,1.214244278E0,1.125944290E1,1.604382420E0,1.143780952E1
1.069243375E0,1.375861537E0,1.081987378E1,1.288276094E0,1.098281926E1
1.079311375E0,1.101067545E0,9.976021163E0,1.087207890E0,1.009531421E1
1.089379375E0,1.050276437E0,9.630717936E0,1.053657809E0,9.744947580E0
1.099447375E0,1.117815432E0,9.406942654E0,1.316915756E0,9.564222318E0
1.109514375E0,1.114758508E0,9.135724819E0,1.927249296E0,9.403108228E0
1.119582375E0,1.003988855E0,8.533684970E0,3.220459270E0,9.176226387E0
1.129650375E0,4.294208331E-1,6.233268710E0,6.601107692E0,9.089150886E0
1.139718375E0,-6.904912060E0,-2.285999599E1,9.046213303E0,2.553607648E1
1.149786375E0,-2.584557494E1,-7.042657843E1,5.505693820E0,7.522106990E1
1.159853375E0,-1.618303821E1,-6.888384437E1,-2.438255598E0,7.080126999E1
1.169921375E0,-8.532486291E0,-6.115846563E1,-3.940007104E0,6.187636783E1
1.179989375E0,-4.303010145E0,-3.029895004E1,-5.087762327E0,3.102301719E1
1.190057375E0,-8.172436970E-1,-1.104394143E1,-3.225304273E0,1.153425841E1
1.200124375E0,8.009068689E-1,-4.490638232E0,-1.526047271E0,4.810000397E0
1.210192375E0,-2.106707945E-1,-1.291576847E0,4.240108430E-1,1.375622816E0
1.220260375E0,-3.574803463E-1,7.466426611E-1,1.043344417E0,1.331853983E0
1.230328375E0,2.025212377E-1,2.177817689E0,7.385068452E-1,2.308527041E0
1.240396375E0,1.050560465E0,3.319110569E0,1.495846037E-1,3.484615878E0
1.250463375E0,2.029755956E0,4.500400159E0,-3.889931110E-1,4.952254686E0
1.260531375E0,2.675501695E0,5.779009636E0,-8.733508010E-1,6.427908160E0
1.270599375E0,2.814153212E0,7.154060165E0,-1.321805783E0,7.800461888E0
1.280667375E0,2.857369690E0,8.306575606E0,-1.532321334E0,8.916937171E0
1.290734375E0,3.028720591E0,9.165002997E0,-1.534586545E0,9.773708826E0
1.300802375E0,3.209680806E0,9.639650728E0,-1.383328432E0,1.025370736E1
1.310870375E0,3.295790412E0,9.674369155E0,-1.088883702E0,1.027819637E1
1.320938375E0,3.276199023E0,9.527615737E0,-5.661929083E-1,1.009106120E1
1.331006375E0,3.223124139E0,9.546654271E0,-1.523211463E-1,1.007721880E1
1.341073375E0,3.184635719E0,9.664286216E0,-3.209981060E-1,1.018053891E1
1.351141375E0,3.146516551E0,9.830588046E0,-4.476043582E-1,1.033157187E1
1.361209375E0,3.152236589E0,9.949245594E0,-3.066314971E-1,1.044117361E1
1.371277375E0,3.063172093E0,9.946191008E0,6.036198576E-2,1.040737154E1
1.381344375E0,3.042746599E0,1.000447371E1,1.692184027E-1,1.045831899E1
1.391412375E0,3.130536695E0,1.009902553E1,8.768016815E-2,1.057346984E1
1.401480375E0,3.251456238E0,1.021276323E1,3.699414572E-2,1.071792280E1
1.411548375E0,3.371319188E0,1.036773667E1,5.622214794E-2,1.090224369E1
1.421616375E0,3.429431741E0,1.059230249E1,7.340358814E-2,1.113387903E1
1.431683375E0,3.614240301E0,1.083373519E1,6.380249659E-2,1.142088534E1
1.441751375E0,3.793584638E0,1.102367381E1,7.993145624E-2,1.165843290E1
1.451819375E0,3.888949509E0,1.109520163E1,7.476951599E-2,1.175725384E1
1.461887375E0,3.969385854E0,1.111988156E1,1.117636983E-1,1.180763655E1
1.471954375E0,4.046961741E0,1.108435855E1,1.373522651E-1,1.180083766E1
1.482022375E0,4.102664656E0,1.108953568E1,1.288656163E-1,1.182481565E1
1.492090375E0,4.094118366E0,1.108297510E1,2.202774592E-1,1.181704973E1
1.502158375E0,4.034214226E0,1.088711676E1,2.972478672E-1,1.161432530E1
1.512225375E0,3.910477203E0,1.043043285E1,3.687780440E-1,1.114548153E1
1.522293375E0,3.458829203E0,9.288759316E0,3.631132615E-1,9.918487805E0
1.532361375E0,3.283676150E0,8.863719948E0,3.059929629E-1,9.457361792E0
1.542429375E0,3.263942967E0,8.785096532E0,1.818776246E-1,9.373597188E0
1.552497375E0,3.315506053E0,8.784351012E0,7.427016834E-2,9.389511124E0
1.562564375E0,3.425319687E0,8.641932135E0,8.341520905E-2,9.296384462E0
1.572632750E0,3.357650737E0,3.410407240E0,-1.279949659E0,4.954085904E0
1.582700750E0,-1.985820153E1,-5.685871794E1,1.091174568E0,6.023663865E1
1.592768750E0,-2.664813102E1,-7.143023662E1,-5.063741965E0,7.640708785E1
1.602836750E0,-2.268750546E1,-6.840109825E1,-1.470812367E1,7.355108461E1
1.612903750E0,-2.086329580E1,-4.667175496E1,-4.304565797E0,5.130359743E1
1.622971750E0,-4.590722976E0,-1.449739236E1,-1.925692767E0,1.532832070E1
1.633039750E0,-9.818074420E-1,-2.141270837E0,-1.391827360E0,2.736086631E0
1.643107750E0,-7.743423834E-1,2.440528995E0,-9.266597199E-1,2.722955406E0
1.653174750E0,-3.976457477E-2,4.406157660E0,-2.771501282E-1,4.415044591E0
1.663242750E0,4.447284052E-1,5.388771141E0,-8.627803507E-1,5.475493375E0
1.673310750E0,1.650813405E0,5.673322383E0,-2.011554159E0,6.241644165E0
1.683378750E0,1.987538475E0,5.962785870E0,-2.121475381E0,6.633685424E0
1.693445750E0,1.885145250E0,6.930187234E0,-2.036481131E0,7.465153924E0
1.703513750E0,2.289496292E0,8.017007453E0,-1.958754094E0,8.564515128E0
1.713581750E0,2.978875124E0,8.767239720E0,-1.622290102E0,9.400532671E0
1.723649750E0,3.908611941E0,9.424436354E0,-1.382235003E-1,1.020374214E1
1.733717750E0,5.513966460E0,9.928263445E0,4.444662160E0,1.219546075E1
1.743784750E0,1.021083599E1,1.081509895E1,1.176925228E1,1.896688788E1
1.753852750E0,9.289142894E0,1.109169096E1,7.894536352E0,1.648142859E1
1.763920750E0,4.724129540E0,1.106839097E1,8.557658847E-1,1.206478404E1
1.773988750E0,3.676953443E0,1.103452156E1,-2.232432584E-1,1.163316338E1
1.784055750E0,3.550517929E0,1.043864000E1,-4.454210810E-1,1.103493464E1
1.794123750E0,2.877312204E0,1.161340059E1,-5.636440339E-1,1.197780002E1
1.804191750E0,2.001675580E0,1.357508063E1,-3.115039819E-1,1.372539814E1
1.814259750E0,2.021813098E0,1.380052471E1,1.571520702E-1,1.394872421E1
1.824326750E0,2.383413393E0,1.334692695E1,7.687065446E-1,1.357983904E1
1.834394750E0,2.796198167E0,1.280427260E1,1.363590571E0,1.317677882E1
1.844462750E0,3.347744969E0,1.217514260E1,1.946230527E0,1.277612253E1
1.854530750E0,3.905148050E0,1.149020443E1,2.433335166E0,1.237724118E1
1.864598750E0,4.348461722E0,1.067650006E1,2.705215491E0,1.184123995E1
1.874665750E0,4.079786548E0,9.761670424E0,2.760941795E0,1.093424288E1
1.884733750E0,3.794713443E0,9.167772823E0,2.775186782E0,1.030289136E1
1.894801750E0,3.706782137E0,8.880748209E0,2.517460227E0,9.947136702E0
1.904869750E0,3.519161943E0,8.705573815E0,1.977876682E0,9.596015443E0
1.914936750E0,3.351323465E0,8.699550013E0,1.524087285E0,9.446501016E0
1.925004750E0,3.106153221E0,8.804848427E0,1.181610090E0,9.411150092E0
1.935072750E0,2.897484221E0,8.922744666E0,9.738865113E-1,9.431820722E0
1.945140750E0,2.745178579E0,8.939283516E0,8.595068602E-1,9.390716014E0
1.955208750E0,2.625891871E0,8.868547409E0,9.257288432E-1,9.295343735E0
1.965275750E0,2.480601426E0,8.809198170E0,1.208408976E0,9.231230042E0
1.975343750E0,2.272851023E0,8.608428758E0,1.640600073E0,9.053312436E0
1.985411750E0,1.893206514E0,7.913288373E0,3.079247843E0,8.699777644E0
1.995479750E0,-5.607564595E-1,2.413566315E0,7.876650889E0,8.257201668E0
2.005546750E0,-2.724139186E1,-5.164882072E1,1.257544298E1,5.973136428E1
2.015614750E0,-4.111277430E1,-7.169862382E1,5.865080650E0,8.285741994E1
2.025682750E0,-2.107513575E1,-6.555036076E1,-7.139180609E-1,6.885870186E1
2.035750750E0,-1.079167851E1,-3.980068249E1,-1.884809401E-1,4.123821258E1
2.045818750E0,-3.497645651E0,-1.662164371E1,-4.563261016E-1,1.699178620E1
2.055885750E0,1.386576560E-1,-7.147884336E0,-1.078806610E0,7.230165982E0
2.065953750E0,1.131765427E0,-3.370102383E0,-9.084105599E-1,3.669290503E0
2.076021750E0,2.753155643E-1,-2.497739908E0,-2.456146324E-1,2.524842540E0
2.086089750E0,1.063234305E0,-2.618020642E0,3.775559207E-1,2.850797738E0
2.096156750E0,1.774776716E0,-1.505220659E0,-3.552843879E-1,2.354091888E0
2.106224750E0,2.405601822E0,1.565469199E-1,-9.232665807E-1,2.581443055E0
2.116292750E0,2.848546534E0,1.933061428E0,-1.187082353E0,3.641443169E0
2.126360750E0,3.454349651E0,3.502739453E0,-1.465084201E0,5.133048500E0
2.136427750E0,4.085449576E0,5.077669448E0,-1.721174705E0,6.740628133E0
2.146495750E0,4.868181252E0,6.561649511E0,-2.094452766E0,8.434522239E0
2.156563750E0,5.481316193E0,7.784726227E0,-2.225333333E0,9.777468899E0
2.166631750E0,5.598264599E0,8.577593467E0,-1.845718060E0,1.040780243E1
2.176699750E0,5.499209257E0,8.738405930E0,-1.130831627E0,1.038652111E1
2.186766750E0,5.527415641E0,8.791769375E0,-8.671970451E-1,1.042111141E1
2.196834750E0,5.521006508E0,8.877878396E0,-8.189844131E-1,1.048660923E1
2.206902750E0,5.469905936E0,8.969408371E0,-6.576761055E-1,1.052628592E1
2.216970750E0,5.313791710E0,9.050261330E0,-5.496604908E-1,1.050931678E1
2.227037750E0,5.142284689E0,9.083805052E0,-1.676560450E-1,1.043967023E1
2.237105750E0,5.000720090E0,9.086760235E0,5.486793280E-2,1.037205011E1
2.247173750E0,4.961213962E0,9.209740044E0,5.214080969E-2,1.046115072E1
2.257241750E0,4.848372348E0,9.584561770E0,1.691856948E-1,1.074240022E1
2.267309750E0,4.837436300E0,9.672502724E0,1.238416704E-1,1.081542582E1
2.277376750E0,4.912704291E0,9.439390608E0,1.125587186E-2,1.064128212E1
2.287444750E0,4.931505429E0,9.650164021E0,5.763483524E-2,1.083737668E1
2.297512750E0,5.111068743E0,9.522068483E0,2.714394907E-2,1.080710640E1
2.307580750E0,5.198306862E0,9.451341732E0,-9.448164940E-2,1.078699131E1
2.317647750E0,5.179352528E0,9.585075740E0,-1.395291835E-1,1.089581745E1
2.327715750E0,5.189497447E0,9.685013427E0,-1.779997694E-1,1.098917889E1
2.337783750E0,5.194243047E0,9.896883777E0,-2.088490945E-1,1.117909152E1
2.347851750E0,5.173152725E0,1.029678538E1,-1.057246757E-1,1.152373533E1
2.357918750E0,5.160659564E0,1.048893775E1,-7.234409094E-2,1.168997245E1
2.367986750E0,5.150947339E0,1.091746031E1,-1.059118048E-1,1.207205100E1
2.378054750E0,5.010502481E0,1.136798593E1,-2.350293813E-1,1.242543674E1
2.388122750E0,4.698053005E0,1.014479987E1,-3.633834028E-1,1.118573708E1
2.398189750E0,4.450799398E0,8.499924316E0,-4.666557928E-1,9.606044779E0
2.408257750E0,4.379076574E0,8.383151911E0,-7.827316761E-1,9.490322254E0
2.418325750E0,4.336782201E0,8.406106911E0,-9.330846405E-1,9.504786173E0
2.428393750E0,4.320382515E0,8.341760641E0,-1.004658068E0,9.447751770E0
2.438461750E0,4.231250191E0,7.976690317E0,-1.866462811E0,9.220344354E0
2.448528750E0,-5.447961920E0,-1.124105691E1,-6.379878287E0,1.402656396E1
2.458596750E0,-5.115143317E1,-6.900105532E1,5.508356349E-1,8.589480875E1
2.468664750E0,-5.023195149E1,-7.124091781E1,-1.037280152E1,8.778446521E1
2.478732750E0,-3.950575829E1,-6.442659608E1,-3.562590968E0,7.565833249E1
2.488800750E0,-2.151815121E1,-2.899590739E1,3.394231795E0,3.626726191E1
2.498867750E0,-4.999329622E0,-5.438455517E0,-9.419577903E-1,7.446971167E0
2.508935750E0,1.989410461E0,2.351022742E0,-2.611177061E0,4.037735449E0
2.519003750E0,5.137909802E0,6.109957949E0,-3.013490056E0,8.532925969E0
2.529071750E0,6.254767753E0,7.947979903E0,-4.622350273E0,1.112019003E1
2.539138750E0,6.756800333E0,8.080170246E0,-5.142143186E0,1.172114067E1
2.549206750E0,7.236414689E0,7.618520291E0,-4.388334762E0,1.138705541E1
2.559274750E0,7.843414146E0,7.411655157E0,-3.530461980E0,1.135411553E1
2.569342042E0,8.735778192E0,7.321303981E0,-2.710243804E0,1.171583262E1
2.579409042E0,9.672421448E0,7.466518412E0,-2.261020937E0,1.242645764E1
2.589477042E0,1.094735478E1,7.629026569E0,1.180924138E-1,1.334393379E1
2.599545042E0,1.448777486E1,7.434075136E0,6.239325256E0,1.743818434E1
2.609613042E0,2.021076993E1,6.920175047E0,1.034578271E1,2.373603302E1
2.619681042E0,1.525715851E1,7.401645309E0,1.858086529E0,1.705924162E1
2.629748042E0,1.134561566E1,8.392412732E0,-1.135692271E0,1.415787353E1
2.639816042E0,1.067318469E1,9.042258246E0,-5.485600448E-1,1.399929368E1
2.649884042E0,1.026059813E1,9.319465969E0,1.080980605E-1,1.386160183E1
2.659952042E0,9.235861895E0,9.270218965E0,3.799894953E-1,1.309131378E1
2.670019042E0,8.565072824E0,9.755125635E0,8.337790382E-1,1.300838715E1
2.680087042E0,8.364404569E0,1.032843402E1,1.408956778E0,1.336506537E1
2.690155042E0,8.410763049E0,1.045435615E1,1.850197027E0,1.354465675E1
2.700223042E0,8.513497458E0,9.978146042E0,2.159631679E0,1.329312027E1
2.710290042E0,7.491016492E0,9.498044613E0,2.373836385E0,1.232733867E1
2.720358042E0,6.072013028E0,8.770008377E0,2.253923879E0,1.090241083E1
2.730426042E0,5.635807232E0,8.054838939E0,2.076289999E0,1.004757352E1
2.740494042E0,5.560929542E0,7.586482812E0,1.922882595E0,9.600840396E0
2.750562042E0,5.586014682E0,7.302349062E0,1.837720238E0,9.375770770E0
2.760629042E0,5.639689198E0,7.153368439E0,1.672621619E0,9.261448988E0
2.770697042E0,5.591638534E0,7.157043414E0,1.569115523E0,9.216930913E0
2.780765042E0,5.508643740E0,7.245498923E0,1.512472522E0,9.226591116E0
2.790833042E0,5.433960763E0,7.209407569E0,1.608585691E0,9.170116411E0
2.800900042E0,5.351309785E0,7.183516683E0,1.763412652E0,9.129570227E0
2.810968042E0,5.239965350E0,7.092899458E0,2.081164384E0,9.060778377E0
2.821036042E0,4.990892674E0,6.820919146E0,2.753561440E0,8.889097158E0
2.831104042E0,3.950381818E0,5.701001347E0,4.154594071E0,8.085022249E0
2.841171042E0,-8.568938418E0,-5.622881377E0,6.637982572E0,1.221090960E1
2.851239042E0,-5.549730370E1,-5.833259050E1,4.403079686E0,8.063515948E1
2.861307042E0,-5.973023877E1,-7.075749809E1,-1.898897316E0,9.261711920E1
2.871375042E0,-3.985762034E1,-5.296037458E1,-2.807477446E0,6.634239297E1
2.881443042E0,-2.225943081E1,-3.046857777E1,-5.351343699E0,3.811106624E1
2.891510042E0,-8.640248721E0,-1.131351561E1,-3.489691976E0,1.465699436E1
2.901578042E0,-2.487469858E0,-2.796134140E0,-3.004385941E0,4.799188192E0
2.911646042E0,-2.209062871E0,-5.812377942E0,-2.287879829E0,6.625563389E0
2.921714042E0,-1.001071620E1,-8.485160097E0,-2.696165171E0,1.339707757E1
2.931781042E0,-8.801322556E0,-4.418593519E0,-1.988080219E0,1.004687565E1
2.941849042E0,-2.626247090E0,-1.504834158E0,1.314933550E-1,3.029684822E0
2.951917042E0,-5.171593273E-1,6.887701365E-1,5.551008133E-1,1.024692629E0
2.961985042E0,3.137559786E0,1.986041295E0,1.211345593E0,3.905892930E0
2.972052042E0,6.125325601E0,3.288113894E0,1.344349869E0,7.080860348E0
2.982120042E0,7.921958039E0,3.892914214E0,1.134177403E0,8.899357203E0
2.992188042E0,9.013847210E0,4.162191066E0,1.047339088E0,9.983496139E0
3.002256042E0,9.561744180E0,4.246425762E0,1.188045462E0,1.052950785E1
3.012324042E0,9.657539114E0,4.250826377E0,1.247143271E0,1.062510955E1
3.022391042E0,9.647006525E0,4.183528433E0,1.260411919E0,1.059033915E1
3.032459042E0,9.640154757E0,4.039176758E0,1.075933142E0,1.050738620E1
3.042527042E0,9.564574233E0,3.905236928E0,8.775417928E-1,1.036831883E1
3.052595042E0,9.526245734E0,3.876019269E0,7.653044884E-1,1.031302934E1
3.062662042E0,9.499881808E0,3.841035962E0,5.075125909E-1,1.025957507E1
3.072730042E0,9.494374316E0,3.799368119E0,3.704492513E-1,1.023306281E1
3.082798042E0,9.406114689E0,3.758999234E0,3.615918890E-1,1.013586787E1
3.092866042E0,9.391955656E0,3.719096373E0,3.494717073E-1,1.010755358E1
3.102933042E0,9.583339702E0,3.688940235E0,3.199665841E-1,1.027380448E1
3.113001042E0,9.870830923E0,3.660290925E0,2.405696547E-1,1.053038017E1
3.123069042E0,1.016411674E1,3.622514403E0,2.412362373E-1,1.079305677E1
3.133137042E0,1.043831607E1,3.684406596E0,5.494768882E-1,1.108310512E1
3.143205042E0,1.128053731E1,3.249054202E0,2.998358631E-1,1.174294583E1
3.153272042E0,1.200980205E1,2.993387913E0,3.891193378E-1,1.238334084E1
3.163340042E0,1.218666161E1,3.078327784E0,3.468141478E-1,1.257422376E1
3.173408042E0,1.190733077E1,3.228043109E0,-3.370042741E-2,1.233717650E1
3.183476042E0,1.134997534E1,3.475232981E0,-5.823446721E-1,1.188437250E1
3.193543042E0,1.087416986E1,3.809278564E0,-1.253288695E0,1.159003477E1
3.203611042E0,1.055823778E1,4.268226521E0,-2.341977245E0,1.162665042E1
3.213679042E0,1.006573616E1,4.625106943E0,-3.353212116E0,1.157387965E1
3.223747042E0,8.869176570E0,4.837572248E0,-3.989842923E0,1.086200924E1
3.233814042E0,7.481736376E0,4.427743242E0,-4.411009680E0,9.748758680E0
3.243882042E0,7.314803047E0,3.889051543E0,-4.255444508E0,9.313424369E0
3.253950042E0,7.459398258E0,4.031821838E0,-3.869263103E0,9.320375886E0
3.264018042E0,7.539783440E0,4.171982228E0,-3.601750941E0,9.339506404E0
3.274086042E0,7.351310722E0,4.146109761E0,-3.350936379E0,9.080791271E0
3.284153042E0,6.946214452E0,3.808649989E0,-3.472086887E0,8.649340860E0
3.294221042E0,-2.396503788E1,-1.677221653E1,2.268251019E0,2.933897154E1
3.304289042E0,-7.065464790E1,-7.507992830E1,3.012847564E1,1.074094965E2
3.314357042E0,-6.801712329E1,-6.572843888E1,2.138360093E0,9.461040811E1
3.324424042E0,-4.612460059E1,-1.720643544E1,-5.996464663E0,4.959332403E1
3.334492042E0,-1.577540542E1,3.377318724E0,-4.986771557E-1,1.614058168E1
3.344560042E0,-4.073198490E0,-3.463181285E0,2.908160360E0,6.086211238E0
3.354628042E0,4.759751070E0,1.045878746E0,-6.467543837E-1,4.916033343E0
3.364695042E0,7.585768867E0,4.405947745E0,-2.259433418E0,9.058769464E0
3.374763042E0,8.531051969E0,4.970218089E0,-2.432914459E0,1.016862765E1
3.384831042E0,9.191049419E0,4.340918521E0,-1.587254171E0,1.028777619E1
3.394899042E0,9.542468249E0,3.661777287E0,-8.743458509E-1,1.025825491E1
3.404967042E0,9.751057143E0,3.375461356E0,-3.914541310E-1,1.032618473E1
3.415034042E0,9.705531891E0,3.280102040E0,-1.561121795E-1,1.024601336E1
3.425102042E0,9.680288292E0,3.104681477E0,-2.563337481E-1,1.016920525E1
3.435170042E0,9.754619851E0,3.056450134E0,-4.615938216E-1,1.023267144E1
3.445238042E0,9.792937825E0,2.859408322E0,-4.161535008E-1,1.021033941E1
3.455305042E0,1.001285161E1,2.580243828E0,-1.436380219E-1,1.034096163E1
3.465373042E0,1.031329207E1,2.160967768E0,4.421073908E-1,1.054652710E1
3.475441042E0,1.068664147E1,2.013109226E0,1.518586809E0,1.098011933E1
3.485509042E0,1.116389706E1,2.035534321E0,2.953066683E0,1.172589443E1
3.495576042E0,1.212054130E1,2.039502534E0,5.497451584E0,1.346436281E1
3.505644042E0,1.230823224E1,1.805572539E0,6.445422651E0,1.401057266E1
3.515712042E0,1.283688720E1,1.440679823E0,7.323582641E0,1.484911088E1
3.525780042E0,1.350811715E1,9.943655071E-1,6.645865788E0,1.508726363E1
3.535848042E0,1.310209234E1,5.309176795E-1,3.536409475E0,1.358134343E1
3.545915042E0,1.256164589E1,1.838792910E-1,1.080329152E0,1.260935645E1
3.555983042E0,1.217925904E1,-1.374211344E-1,-1.497753326E-1,1.218095513E1
3.566051375E0,1.199503315E1,-3.027311302E-1,-9.144952456E-1,1.203365148E1
3.576119375E0,1.163161116E1,-3.961215247E-1,-1.132558894E0,1.169333058E1
3.586186375E0,1.121281486E1,-4.589070626E-1,-9.211446992E-1,1.125994318E1
3.596254375E0,1.068642278E1,-5.581794820E-1,-7.261961905E-1,1.072560288E1
3.606322375E0,1.035032249E1,-6.138081010E-1,-6.572591259E-1,1.038931786E1
3.616390375E0,1.002504188E1,-5.858459848E-1,-5.880462921E-1,1.005934783E1
3.626457375E0,9.791776568E0,-5.663773514E-1,-5.261300524E-1,9.822244371E0
3.636525375E0,9.735431628E0,-5.376969779E-1,-3.971283056E-1,9.758353238E0
3.646593375E0,9.633119388E0,-5.238830405E-1,-9.101366580E-2,9.647783479E0
3.656661375E0,9.345871995E0,-4.898614183E-1,5.824201377E-1,9.376806534E0
3.666728375E0,8.678723400E0,-4.369954625E-1,1.893041330E0,8.893526318E0
3.676796375E0,7.374366294E0,8.115862235E-2,3.811596985E0,8.301574341E0
3.686864375E0,5.504968180E0,1.327596719E0,5.794638659E0,8.102161742E0
3.696932375E0,-2.061257187E1,3.374235195E0,7.739019127E0,2.227455947E1
3.707000375E0,-6.895622355E1,-1.000145187E1,1.034552777E1,7.044160525E1
3.717067375E0,-6.735827774E1,-1.898625070E1,-6.793926644E0,7.031196723E1
3.727135375E0,-3.841552154E1,-6.235884170E0,-7.134707050E0,3.956693811E1
3.737203375E0,-9.828916912E0,-2.713612385E-1,-1.177890164E0,9.902962679E0
3.747271375E0,-7.237512211E0,1.115024264E0,-2.516844808E0,7.743343587E0
3.757338375E0,-6.171384119E0,4.220034939E-1,-3.495280453E0,7.105002064E0
3.767406375E0,-4.724084809E0,-4.777292132E-1,-3.539734787E0,5.922408703E0
3.777474375E0,-2.949377090E0,-6.334338418E-1,-3.152833883E0,4.363533562E0
3.787542375E0,-4.792950976E-1,-1.872915798E-1,-1.343346341E0,1.438534434E0
3.797609375E0,2.048432840E0,1.653377701E-1,3.073881269E-2,2.055324440E0
3.807677375E0,4.177358451E0,3.427168576E-1,7.345190442E-1,4.255266936E0
3.817745375E0,5.679210529E0,4.402105540E-1,9.682613437E-1,5.777953582E0
3.827813375E0,6.903701102E0,6.138392374E-1,7.966669066E-1,6.976572631E0
3.837881375E0,7.961467091E0,7.213272871E-1,5.279592808E-1,8.011492514E0
3.847948375E0,8.947649127E0,7.998869683E-1,6.241035859E-1,9.004984695E0
3.858016375E0,9.845796654E0,7.981532688E-1,8.046714525E-1,9.910815130E0
3.868084375E0,1.025956668E1,7.226433492E-1,8.239204864E-1,1.031793424E1
3.878152375E0,1.024817865E1,8.154380769E-1,5.631675589E-1,1.029598283E1
3.888219375E0,1.016088206E1,9.180092029E-1,4.739988358E-1,1.021327273E1
3.898287375E0,1.010718590E1,9.392364961E-1,7.155613478E-1,1.017592257E1
3.908355375E0,1.012777746E1,8.662180750E-1,9.709629035E-1,1.021102243E1
3.918423375E0,1.028399167E1,7.575791471E-1,1.200957430E0,1.038155622E1
3.928490375E0,1.091468873E1,3.351700026E-1,1.536971186E0,1.102746795E1
3.938558375E0,1.180319185E1,-2.413359323E-1,1.903903702E0,1.195819511E1
3.948626375E0,1.237134475E1,-6.688489652E-1,2.161670018E0,1.257657931E1
3.958694375E0,1.243380939E1,-6.489874354E-1,2.050654782E0,1.261847794E1
3.968761375E0,1.216867207E1,-2.647271338E-1,1.691062714E0,1.228846424E1
3.978829375E0,1.196914519E1,7.342904180E-2,1.336798629E0,1.204378923E1
3.988897375E0,1.182602406E1,3.912206809E-1,9.398592246E-1,1.186976133E1
3.998965375E0,1.158000714E1,7.953846122E-1,4.881243932E-1,1.161754998E1
4.009033375E0,1.116449464E1,1.227572640E0,1.180435896E-1,1.123239999E1
4.019100375E0,1.071014260E1,1.672369165E0,-1.559545970E-1,1.084104676E1
4.029168375E0,1.024642682E1,2.039557644E0,-3.958360344E-1,1.045493874E1
4.039236375E0,9.753629333E0,2.304647597E0,-5.598644668E-1,1.003783512E1
4.049304375E0,9.306812010E0,2.513346418E0,-7.119305923E-1,9.666462909E0
4.059371375E0,8.972650067E0,2.648984865E0,-9.849237156E-1,9.407212380E0
4.069439375E0,8.644214888E0,2.660548026E0,-1.452476289E0,9.160275880E0
4.079507375E0,8.161901457E0,2.491432224E0,-1.869304412E0,8.736027067E0
4.089575375E0,7.748557105E0,2.131429973E0,-2.282974454E0,8.354346372E0
4.099642375E0,7.319006610E0,1.808342949E0,-2.739427550E0,8.021373030E0
4.109710375E0,7.058394454E0,1.836920924E0,-3.043371667E0,7.902994486E0
4.119778375E0,5.693053227E0,8.199953967E-1,-2.983625987E0,6.479604272E0
4.129846375E0,-4.369792189E1,-2.248461644E1,1.358991034E1,5.098776340E1
4.139914375E0,-7.131074760E1,-5.366485180E1,2.083115951E1,9.164647428E1
4.149981375E0,-6.074100718E1,-3.755157204E1,-8.816483801E0,7.195360243E1
4.160049375E0,-3.516408840E1,-9.589283397E0,-1.150263094E1,3.822012543E1
4.170117375E0,-3.160842463E1,-1.824149143E0,3.649821485E0,3.187069539E1
4.180185375E0,-1.598956203E1,-6.100346296E0,3.612287623E0,1.749082448E1
4.190252375E0,-1.815830601E0,-4.866895450E0,-8.309954712E-1,5.260652580E0
4.200320375E0,1.186788896E0,-1.488543084E0,-1.511070213E0,2.430547590E0
4.210388375E0,3.440399948E0,5.248747283E-1,1.692605209E-1,3.484321226E0
4.220456375E0,3.893976653E0,6.395112915E-1,1.852465454E0,4.359318424E0
4.230523375E0,3.362326756E0,5.558560543E-1,4.135236279E0,5.358581552E0
4.240591375E0,4.337877384E0,1.044405248E0,3.932352806E0,5.947382711E0
4.250659375E0,5.662819614E0,1.897058806E0,2.297143573E0,6.398689451E0
4.260727375E0,6.622994404E0,3.020334806E0,2.025368937E0,7.555699607E0
4.270794375E0,7.769438682E0,3.499663233E0,1.717527358E0,8.692624483E0
4.280862375E0,8.687188414E0,3.660722157E0,1.512460827E0,9.547547696E0
4.290930375E0,9.153671093E0,3.721701307E0,1.313000315E0,9.968185639E0
4.300998375E0,9.553234727E0,3.594773458E0,2.542680145E0,1.051912127E1
4.311066375E0,1.046562490E1,3.165864987E0,1.009173756E1,1.487935391E1
4.321133375E0,1.421303291E1,2.451565907E0,1.979318517E1,2.449062390E1
4.331201375E0,1.720699443E1,1.076162792E0,1.552908679E1,2.320326098E1
4.341269375E0,1.323466860E1,8.535388264E-1,2.869653229E0,1.356907849E1
4.351337375E0,1.126019368E1,7.240741628E-1,-7.703168678E-1,1.130971411E1
4.361404375E0,1.063893170E1,4.991078031E-1,-1.523003796E0,1.075897378E1
4.371472375E0,1.061966161E1,2.974666992E-1,-1.496724508E0,1.072874100E1
4.381540375E0,1.064088233E1,1.099330629E-1,-1.417935616E0,1.073550201E1
4.391608375E0,1.058785276E1,-1.095443876E-1,-1.473463407E0,1.069044996E1
4.401675375E0,1.046774510E1,-2.985255021E-1,-1.570646324E0,1.058913287E1
4.411743375E0,1.049083576E1,-4.510318864E-1,-1.551065315E0,1.061446505E1
4.421811375E0,1.052043670E1,-6.419840790E-1,-1.392389277E0,1.063157937E1
4.431879375E0,1.054854778E1,-9.041143182E-1,-1.205732705E0,1.065565926E1
4.441947375E0,1.051699152E1,-1.170115926E0,-1.042148734E0,1.063307839E1
4.452014375E0,1.043299978E1,-1.364939962E0,-8.757924521E-1,1.055829332E1
4.462082375E0,1.034749828E1,-1.511262294E0,-6.762059319E-1,1.047911680E1
4.472150375E0,1.026789312E1,-1.642490478E0,-5.188328004E-1,1.041136838E1
4.482218375E0,1.015786489E1,-1.755572851E0,-2.364895407E-1,1.031116785E1
4.492285375E0,9.967596495E0,-1.826287616E0,2.606133252E-1,1.013687455E1
4.502353375E0,9.773901629E0,-1.736131883E0,7.554356309E-1,9.955600935E0
4.512421375E0,9.678168676E0,-1.427796653E0,1.064398559E0,9.840655288E0
4.522489375E0,9.796017553E0,-4.425816000E-1,1.514108427E0,9.922215615E0
4.532556375E0,7.878973988E0,4.982071565E0,1.968965671E0,9.527648922E0
4.542624375E0,-1.351619566E0,1.368337340E1,3.475023066E0,1.418229066E1
4.552692375E0,-3.339414324E1,4.028575464E0,1.005156602E1,3.510601377E1
4.562760375E0,-7.038373003E1,-1.143118966E1,1.374369679E1,7.261839127E1
4.572826875E0,-5.578012650E1,-1.139186245E1,-1.638155937E0,5.695507526E1
4.582894875E0,-1.705872542E1,-2.147675585E0,-4.962192786E-1,1.720054815E1
4.592962875E0,-4.395170158E0,-1.296811567E-1,-1.385337535E0,4.610151625E0
4.603030875E0,-7.600384567E0,-5.620356110E-1,-2.524931799E0,8.028512327E0
4.613098875E0,-7.414947140E0,-2.003647554E0,-2.425940777E0,8.054888780E0
4.623165875E0,-4.079409987E0,-2.293467575E0,-2.046586289E0,5.107846396E0
4.633233875E0,-1.512973482E0,-1.751603469E0,-1.801103804E0,2.932776566E0
4.643301875E0,9.590071017E-1,-1.522240003E0,-6.186167780E-1,1.902523578E0
4.653369875E0,3.500313444E0,-1.510791593E0,5.060414314E-2,3.812774085E0
4.663436875E0,5.521857278E0,-1.394328068E0,3.509743687E-1,5.705982962E0
4.673504875E0,7.173455964E0,-1.289924278E0,5.271698336E-1,7.307549736E0
4.683572875E0,8.430055937E0,-1.234038345E0,4.350281668E-1,8.530998959E0
4.693640875E0,9.409432399E0,-1.089760272E0,3.111665976E-1,9.477437426E0
4.703707875E0,1.031777221E1,-9.670861995E-1,3.021829355E-1,1.036740052E1
4.713775875E0,1.091049978E1,-7.883790632E-1,3.445353417E-1,1.094437077E1
4.723843875E0,1.122087350E1,-6.868816321E-1,4.945178850E-1,1.125274883E1
4.733911875E0,1.129374033E1,-4.493342569E-1,6.435027471E-1,1.132097909E1
4.743978875E0,1.111918457E1,-2.039274200E-1,9.323782969E-1,1.116007084E1
4.754046875E0,1.086861267E1,-6.026016198E-2,1.460920984E0,1.096652464E1
4.764114875E0,1.084715572E1,1.119772495E-1,1.952789641E0,1.102210114E1
4.774182875E0,1.087086969E1,2.859202939E-1,2.271338933E0,1.110929965E1
4.784250875E0,1.099848751E1,4.776078835E-1,2.453443741E0,1.127892827E1
4.794317875E0,1.128968938E1,5.089507136E-1,2.663476896E0,1.161078060E1
4.804385875E0,1.169770575E1,3.899825330E-1,2.916834412E0,1.206218592E1
4.814453875E0,1.191807327E1,4.511214584E-1,2.806232281E0,1.225230267E1
4.824521875E0,1.194808118E1,6.003986813E-1,2.554383055E0,1.223282450E1
4.834588875E0,1.199649847E1,8.039102912E-1,2.338089724E0,1.224862893E1
4.844656875E0,1.194516927E1,1.081661513E0,2.058363751E0,1.216938461E1
4.854724875E0,1.165507370E1,1.429774035E0,1.578703787E0,1.184809277E1
4.864792875E0,1.079650831E1,1.903620990E0,1.060743099E0,1.101424262E1
4.874859875E0,9.786629264E0,2.310159475E0,8.122074902E-1,1.008834130E1
4.884927875E0,9.476733266E0,2.577675731E0,7.311019313E-1,9.848217890E0
4.894995875E0,9.322118851E0,2.731136783E0,6.386925352E-1,9.734933803E0
4.905063875E0,8.994516900E0,2.833012236E0,2.485323930E-1,9.433401345E0
4.915130875E0,8.629776943E0,2.926653349E0,-1.898216335E-1,9.114514916E0
4.925198875E0,8.300379311E0,2.938628739E0,-4.116264403E-1,8.814832494E0
4.935266875E0,8.087924824E0,2.987829842E0,-7.780924952E-1,8.657198337E0
4.945334875E0,8.008938881E0,3.228623153E0,-1.034180660E0,8.696932741E0
4.955402875E0,7.542014737E0,2.666769463E0,-9.348130774E-1,8.054037569E0
4.965469875E0,-9.530566826E0,-6.301872337E0,1.384913027E0,1.150926944E1
4.975537875E0,-6.748539153E1,-4.927137091E1,1.276117160E1,8.452688071E1
4.985605875E0,-6.590543176E1,-5.788582113E1,-2.046943554E0,8.774100638E1
4.995673875E0,-4.969116825E1,-3.027712589E1,-7.964950862E0,5.873122676E1
5.005740875E0,-1.362172972E1,-3.528380956E0,-1.664092432E1,2.179269040E1
5.015808875E0,-1.396778314E1,4.658258609E0,-1.298399086E0,1.478121035E1
5.025876875E0,-2.284918332E1,-5.730674797E0,5.799363794E0,2.426022325E1
5.035944875E0,-1.196472236E1,-3.752204770E0,2.825771922E0,1.285373909E1
5.046011875E0,-5.566220688E0,8.872937791E-1,6.797031516E-1,5.677332064E0
5.056079875E0,-1.310907742E0,1.666708768E0,-6.150148201E-1,2.207858794E0
5.066147875E0,1.512101662E0,1.231583976E0,-1.320931332E-1,1.954660872E0
5.076215875E0,2.615503415E0,1.374205167E0,1.140625713E0,3.167068830E0
5.086282875E0,3.840003929E0,2.126699868E0,2.284123578E0,4.948303045E0
5.096350875E0,5.005125382E0,3.629451540E0,2.800578901E0,6.787299960E0
5.106418875E0,6.819487163E0,4.199873155E0,3.517404270E0,8.747369461E0
5.116486875E0,8.250051157E0,3.735114820E0,4.846900896E0,1.027165396E1
5.126554875E0,9.015231246E0,3.990846013E0,9.070818386E0,1.339705163E1
5.136621875E0,9.587231024E0,6.216296582E0,1.860602849E1,2.183441407E1
5.146689875E0,1.190612039E1,7.033425089E0,1.765451459E1,2.242558041E1
5.156757875E0,1.106430962E1,4.653758592E0,3.436467696E0,1.248542056E1
5.166825875E0,1.073539321E1,2.883981830E0,-8.084351590E-1,1.114538407E1
5.176892875E0,1.274880942E1,1.119983141E0,2.749851966E-1,1.280086406E1
5.186960875E0,1.329231396E1,-3.837241485E-1,1.101017551E-1,1.329830730E1
5.197028875E0,1.229978886E1,-8.389377442E-1,-1.490484652E0,1.241813863E1
5.207096875E0,1.119625672E1,-8.884340592E-1,-2.780194045E0,1.157043467E1
5.217163875E0,1.073790050E1,-9.972222374E-1,-2.889713856E0,1.116456025E1
5.227231875E0,1.044984444E1,-1.143516722E0,-2.712132747E0,1.085645169E1
5.237299875E0,1.044344758E1,-1.368230336E0,-2.453688154E0,1.081472317E1
5.247367875E0,1.051986367E1,-1.544324206E0,-2.173454058E0,1.085248228E1
5.257434875E0,1.029911608E1,-1.718730130E0,-1.634191964E0,1.056865217E1
5.267502875E0,1.011374414E1,-1.871178737E0,-1.040526132E0,1.033788301E1
5.277570875E0,1.011724312E1,-1.889281424E0,-5.238345087E-1,1.030545463E1
5.287638875E0,1.030574332E1,-1.610955129E0,-1.624890067E-2,1.043090532E1
5.297706875E0,1.049015280E1,-1.547519124E0,1.181131349E-1,1.060434213E1
5.307773875E0,1.053623588E1,-1.838084081E0,2.387066953E-1,1.069802788E1
5.317841875E0,1.043089478E1,-2.156085635E0,1.099890500E-1,1.065196549E1
5.327909875E0,1.031296580E1,-2.322256926E0,-1.426439222E-1,1.057215626E1
5.337977875E0,1.012542337E1,-2.252940523E0,-1.733985955E-1,1.037448825E1
5.348044875E0,9.752921820E0,-1.941553047E0,6.092871800E-3,9.944302358E0
5.358112875E0,9.835906674E0,-1.478868135E0,2.265843574E-1,9.949042744E0
5.368180875E0,9.903272445E0,-9.676687284E-1,1.788200607E-1,9.952043233E0
5.378248875E0,7.799436652E0,5.864053295E0,-8.040558869E-1,9.791059136E0
5.388315875E0,-1.350017429E0,1.685257247E1,1.750562226E0,1.699694720E1
5.398383875E0,-2.642308572E1,4.444383833E0,1.072149438E1,2.885970285E1
5.408451875E0,-6.956305694E1,-1.013339079E1,2.064938360E1,7.326732930E1
5.418519875E0,-5.930161447E1,-1.013082971E1,-1.288624004E0,6.017454396E1
5.428586875E0,-1.949654891E1,-1.144359599E0,-2.264362913E0,1.966093379E1
5.438654875E0,-4.399990602E0,-3.223371549E-1,-7.174299717E-1,4.469734254E0
5.448722875E0,-8.608408878E0,-1.255129398E0,-1.374188064E0,8.807295047E0
5.458790875E0,-1.068093575E1,-2.207954677E0,-2.635634794E0,1.122069620E1
5.468857875E0,-7.274431531E0,-2.498071445E0,-2.628867227E0,8.128262910E0
5.478925875E0,-3.329346120E0,-2.116290362E0,-1.743929729E0,4.313295885E0
5.488993875E0,-7.878772259E-2,-2.105920179E0,-7.277924073E-1,2.229526653E0
5.499061875E0,3.329640820E0,-2.164481506E0,-3.075401545E-2,3.971452378E0
5.509129875E0,5.814570647E0,-1.886384275E0,1.534953312E-1,6.114837550E0
5.519196875E0,7.629333547E0,-1.519620451E0,1.233213230E-1,7.780178972E0
5.529264875E0,9.295117579E0,-1.198030899E0,4.264611918E-2,9.372102620E0
5.539332875E0,1.042396934E1,-1.010274758E0,1.897187956E-1,1.047453030E1
5.549400875E0,1.064463273E1,-9.019926560E-1,1.571521068E-1,1.068393624E1
5.559467875E0,1.086575922E1,-8.682289325E-1,1.839523812E-1,1.090194402E1
5.569536625E0,1.120250037E1,-8.716160783E-1,2.676622168E-1,1.123954502E1
5.579604625E0,1.133463809E1,-8.730465996E-1,4.092838995E-1,1.137557666E1
5.589672625E0,1.138576615E1,-9.587143023E-1,7.746533091E-1,1.145228761E1
5.599739625E0,1.155113359E1,-1.038066574E0,1.275864794E0,1.166765188E1
5.609807625E0,1.170657480E1,-9.669676472E-1,1.658982550E0,1.186301577E1
5.619875625E0,1.183796642E1,-8.703996382E-1,1.927874802E0,1.202546239E1
5.629943625E0,1.229027544E1,-8.495133839E-1,2.126406484E0,1.250176580E1
5.640010625E0,1.279201449E1,-9.254850874E-1,2.247119912E0,1.302081815E1
5.650078625E0,1.335491425E1,-1.145932792E0,2.040956444E0,1.355848073E1
5.660146625E0,1.389032625E1,-1.173718615E0,1.851236662E0,1.406221376E1
5.670214625E0,1.388034037E1,-9.081027040E-1,1.782493286E0,1.402375776E1
5.680282625E0,1.313611378E1,-3.943045025E-1,1.630429280E0,1.324278146E1
5.690349625E0,1.139994915E1,3.473696333E-1,1.343541491E0,1.148410249E1
5.700417625E0,1.007319136E1,1.139906944E0,1.143750465E0,1.020180068E1
5.710485625E0,9.452432238E0,1.670071502E0,9.279952971E-1,9.643587989E0
5.720553625E0,9.297310284E0,2.029853605E0,7.493137423E-1,9.545771591E0
5.730620625E0,9.271248659E0,2.365703346E0,3.943666291E-1,9.576436136E0
5.740688625E0,9.214241230E0,2.636133854E0,2.582839407E-2,9.583950660E0
5.750756625E0,9.176108614E0,2.873246927E0,-1.613329025E-1,9.616784572E0
5.760824625E0,9.140439429E0,3.088942527E0,-1.597366126E-1,9.649596606E0
5.770891625E0,9.070586836E0,3.283646037E0,-8.480922181E-2,9.647023865E0
5.780959625E0,8.927159899E0,3.362854174E0,2.121837616E-2,9.539571389E0
5.791027625E0,8.809394052E0,3.316999432E0,8.190429767E-2,9.413533721E0
5.801095625E0,8.697570730E0,3.269636108E0,8.393561125E-2,9.292217285E0
5.811162625E0,8.281550108E0,2.991135566E0,1.490338326E-2,8.805179514E0
5.821230625E0,3.794429560E0,-3.318979007E-1,2.037520766E-1,3.814363225E0
5.831298625E0,-5.571771566E1,-3.812446352E1,6.455774562E0,6.782046581E1
5.841366625E0,-6.998698943E1,-6.130124060E1,-6.025579850E-1,9.303968973E1
5.851433625E0,-5.744814534E1,-3.780950208E1,-1.197638872E1,6.980889440E1
5.861501625E0,-2.297526800E1,5.777403991E0,-7.528629876E0,2.485802897E1
5.871569625E0,-2.300328318E1,6.282266623E0,-2.974318389E0,2.403049065E1
5.881637625E0,-2.245505759E1,-4.645554948E0,-1.604069447E0,2.298660112E1
5.891705625E0,-1.099637199E1,7.449968892E-1,1.465989204E0,1.111864837E1
5.901772625E0,-9.417940682E-1,2.964802630E0,2.313405265E0,3.876709251E0
5.911840625E0,1.183953581E0,3.695937013E0,1.667791965E0,4.224124350E0
5.921908625E0,2.779255275E0,3.558487977E0,1.516897548E0,4.763200052E0
5.931976625E0,4.782616022E0,3.259962182E0,1.417994235E0,5.959150703E0
5.942043625E0,5.637331601E0,4.092665040E0,2.142964776E0,7.288464361E0
5.952111625E0,6.516671559E0,4.898771546E0,2.719790261E0,8.594313813E0
5.962179625E0,7.676672021E0,5.351803874E0,3.266261680E0,9.911688221E0
5.972247625E0,7.902369282E0,6.835278153E0,3.803748268E0,1.111921619E1
5.982314625E0,8.136862510E0,8.541816108E0,4.246336884E0,1.253804334E1
5.992382625E0,9.385251823E0,9.267786523E0,6.629437451E0,1.476225795E1
6.002450625E0,1.136678608E1,7.931876671E0,1.000772944E1,1.709599784E1
6.012518625E0,1.179429356E1,5.593707279E0,6.956514323E0,1.479148449E1
6.022585625E0,1.163164858E1,3.656978477E0,2.811529566E0,1.251293086E1
6.032653625E0,1.179195117E1,2.180698905E0,1.742650943E0,1.211785428E1
6.042721625E0,1.190764418E1,1.196759275E0,1.504207921E0,1.206179357E1
6.052789625E0,1.157376115E1,4.791994225E-1,1.166942861E0,1.164230797E1
6.062856625E0,1.147598167E1,-3.519234449E-2,8.548027021E-1,1.150782696E1
6.072924625E0,1.127361070E1,-6.294885792E-1,3.503616536E-1,1.129660601E1
6.082992625E0,1.097931683E1,-1.158077751E0,-1.213344026E-1,1.104089055E1
6.093060625E0,1.089732717E1,-1.608967514E0,-2.197009420E-1,1.101765785E1
6.103127625E0,1.091153240E1,-2.028672613E0,-2.415203937E-1,1.110114336E1
6.113195625E0,1.070059409E1,-2.380233238E0,-3.201286250E-1,1.096680020E1
6.123263625E0,1.054973242E1,-2.690900045E0,-2.147454268E-1,1.088962409E1
6.133331625E0,1.053177094E1,-2.979684379E0,-3.874355955E-3,1.094516940E1
6.143399625E0,1.045996480E1,-3.145675136E0,2.085736907E-1,1.092472602E1
6.153466625E0,1.040745446E1,-3.198268502E0,5.516988301E-1,1.090176139E1
6.163534625E0,1.037691095E1,-3.325309495E0,7.381139123E-1,1.092166545E1
6.173602625E0,1.033528930E1,-3.449024884E0,7.316247455E-1,1.092013060E1
6.183670625E0,1.025399546E1,-3.482940781E0,7.776095152E-1,1.085725453E1
6.193737625E0,9.973627313E0,-3.438099361E0,8.488613462E-1,1.058368247E1
6.203805625E0,9.221296481E0,-3.174569153E0,9.433324707E-1,9.797962760E0
6.213873625E0,9.096524500E0,-2.825666672E0,9.877619541E-1,9.576367986E0
6.223941625E0,9.217675885E0,-1.732991051E0,1.079476701E0,9.441084506E0
6.234008625E0,7.124419459E0,6.204474682E0,9.071592557E-1,9.490826972E0
6.244076625E0,3.487641943E-1,1.373680058E1,4.690203702E-1,1.374922932E1
6.254144625E0,-1.437161524E1,1.737850672E0,1.466763521E0,1.455042422E1
6.264212625E0,-5.997063885E1,-1.122415378E1,-2.193540852E0,6.105137815E1
6.274279625E0,-6.777094615E1,-1.014613772E1,-1.164656249E1,6.950890354E1
6.284347625E0,-3.557141714E1,-5.226402149E-2,-7.979839627E0,3.645553853E1
6.294415625E0,-1.310536912E1,1.112030051E0,-3.381964045E0,1.358031632E1
6.304483625E0,-1.098573473E1,-8.380774726E-1,-1.975243388E0,1.119331622E1
6.314550625E0,-1.061791213E1,-1.972575011E0,5.520799955E-1,1.081369051E1
6.324618625E0,-9.088375821E0,-1.962170037E0,1.005799299E0,9.352022163E0
6.334686625E0,-6.609746953E0,-1.480520850E0,4.856960080E-1,6.790920216E0
6.344754625E0,-3.221102464E0,-1.534578505E0,2.294669251E-1,3.575344367E0
6.354822625E0,5.152005100E-1,-1.605134664E0,4.345955094E-1,1.740908416E0
6.364889625E0,3.739825922E0,-1.369721815E0,5.534652740E-1,4.021039615E0
6.374957625E0,6.272146263E0,-9.046224412E-1,7.538645571E-1,6.381729567E0
6.385025625E0,8.082896803E0,-6.118982176E-1,9.693151581E-1,8.163774374E0
6.395093625E0,9.135675702E0,-3.833112985E-1,1.358746737E0,9.244116550E0
6.405160625E0,9.576266910E0,-2.346069565E-1,1.228010012E0,9.657532653E0
6.415228625E0,1.021612304E1,-2.885279328E-2,9.437675035E-1,1.025966372E1
6.425296625E0,1.042317412E1,1.549909759E-1,7.833935809E-1,1.045372117E1
6.435364625E0,1.040301175E1,1.020597140E-1,5.141199446E-1,1.041620799E1
6.445431625E0,1.047812859E1,-7.437278241E-2,3.674086261E-1,1.048483186E1
6.455499625E0,1.052301649E1,-2.636427677E-1,2.969964552E-1,1.053050761E1
6.465567625E0,1.044710794E1,-5.367811943E-1,1.681004333E-1,1.046223954E1
6.475635625E0,1.051515316E1,-6.975758971E-1,-1.376434565E-1,1.053916523E1
6.485702625E0,1.061819513E1,-8.203798512E-1,7.796909412E-2,1.065012536E1
6.495770625E0,1.065453675E1,-1.042389274E0,4.076491642E-1,1.071316510E1
6.505838625E0,1.068808339E1,-1.297564981E0,4.699757687E-1,1.077681208E1
6.515906625E0,1.066110434E1,-1.542733471E0,5.685024854E-1,1.078713898E1
6.525973625E0,1.060869341E1,-1.775110299E0,8.312939715E-1,1.078825482E1
6.536041625E0,1.073001962E1,-2.125715782E0,1.040626631E0,1.098794305E1
6.546109625E0,1.086834136E1,-2.607819005E0,1.307319452E0,1.125302839E1
6.556177625E0,1.107151573E1,-3.151430551E0,1.549568427E0,1.161512537E1
6.566244625E0,1.151606316E1,-3.657357669E0,1.622070247E0,1.219127096E1
6.576311875E0,1.210950409E1,-3.904642266E0,1.652358678E0,1.283030046E1
6.586379875E0,1.225938343E1,-3.870776363E0,1.717673392E0,1.297018865E1
6.596447875E0,1.182391906E1,-3.412542644E0,1.661598448E0,1.241818903E1
6.606515875E0,1.136132946E1,-2.898692840E0,1.550741086E0,1.182738455E1
6.616582875E0,1.102034791E1,-2.724602227E0,1.559961268E0,1.145883958E1
6.626650875E0,1.022370688E1,-2.804801760E0,1.625737621E0,1.072539594E1
6.636718875E0,8.918938714E0,-2.975103670E0,1.642910893E0,9.544520199E0
6.646786875E0,8.556045308E0,-3.133401246E0,1.728628736E0,9.274280133E0
6.656853875E0,8.345022218E0,-3.147436318E0,1.845130999E0,9.107703311E0
6.666921875E0,8.176558673E0,-3.214482247E0,1.962241373E0,9.002188570E0
6.676989875E0,7.659681766E0,-3.366343208E0,2.032104052E0,8.610019642E0
6.687057875E0,5.777415685E0,-3.177411484E0,1.854624538E0,6.849387412E0
6.697124875E0,-6.280676765E0,2.983318423E0,5.752694242E0,9.024443500E0
6.707192875E0,-5.005051005E1,4.010664273E0,-2.113662039E0,5.025541316E1
6.717260875E0,-7.020879069E1,-1.115288675E1,-1.467484366E1,7.258796188E1
6.727328875E0,-5.933457406E1,-7.152994217E0,-4.479912100E0,5.993184977E1
6.737395875E0,-2.069975386E1,2.100806205E0,-3.521615435E0,2.110201345E1
6.747463875E0,-1.715490627E0,2.979948965E0,-3.796556193E0,5.122191216E0
6.757531875E0,-1.156621356E0,1.687510823E0,-3.582384378E0,4.125402231E0
6.767599875E0,-1.570331159E0,1.265711104E0,-1.604151455E0,2.577065470E0
6.777666875E0,7.586855865E-1,1.761462898E0,-4.118405215E-1,1.961623811E0
6.787734875E0,2.106428449E0,2.338498883E0,-6.459121654E-1,3.212914621E0
6.797802875E0,3.185888193E0,2.531516349E0,-1.427042947E-1,4.071710097E0
6.807870875E0,4.547659110E0,1.992218586E0,1.657380851E-1,4.967656126E0
6.817938875E0,5.372278485E0,1.898390801E0,7.450580657E-1,5.746335813E0
6.828005875E0,6.149686856E0,2.057510642E0,1.150767708E0,6.586065957E0
6.838073875E0,7.643464513E0,1.859297926E0,1.118937221E0,7.945537052E0
6.848141875E0,9.270452853E0,1.551325077E0,7.414053100E-1,9.428551715E0
6.858209875E0,1.021850754E1,1.286810490E0,6.402081335E-1,1.031909124E1
6.868276875E0,1.054630946E1,1.134588755E0,6.538070029E-1,1.062729498E1
6.878344875E0,1.053705566E1,9.333480576E-1,3.597043347E-1,1.058442572E1
6.888412875E0,1.063382123E1,9.197886568E-1,1.678086573E-1,1.067484543E1
6.898480875E0,1.070371885E1,8.214472604E-1,5.412229586E-1,1.074882761E1
6.908547875E0,1.069200103E1,6.044097616E-1,4.662628233E-1,1.071921630E1
6.918615875E0,1.080843546E1,3.848701662E-1,7.113757646E-1,1.083865571E1
6.928683875E0,1.086227545E1,5.653877467E-2,9.689842057E-1,1.090555616E1
6.938751875E0,1.074198303E1,-2.962506428E-1,1.296523007E0,1.082399814E1
6.948818875E0,1.062818802E1,-7.828394111E-1,1.563780524E0,1.077110151E1
6.958886875E0,1.074068027E1,-1.566947522E0,1.954747581E0,1.102898795E1
6.968954875E0,1.134543439E1,-2.618730201E0,2.367305045E0,1.188195113E1
6.979022875E0,1.224717562E1,-3.439074385E0,2.633688841E0,1.299064510E1
6.989089875E0,1.274699093E1,-3.491021926E0,2.662502750E0,1.348191132E1
6.999157875E0,1.282593068E1,-3.103717563E0,2.706453931E0,1.347080003E1
7.009225875E0,1.275942679E1,-2.731176251E0,2.585421245E0,1.330213136E1
7.019293875E0,1.277625976E1,-2.648814418E0,2.442570258E0,1.327460661E1
7.029360875E0,1.265413481E1,-2.799418228E0,2.301869878E0,1.316292046E1
7.039428875E0,1.157009962E1,-2.799966989E0,2.227730838E0,1.211073099E1
7.049496875E0,9.564722167E0,-2.433423751E0,2.113385904E0,1.009315913E1
7.059564875E0,8.893251311E0,-2.238966409E0,2.007149013E0,9.387839827E0
7.069631875E0,8.881101966E0,-2.012781197E0,1.965845597E0,9.316104829E0
7.079699875E0,8.930354818E0,-1.860293560E0,2.031425629E0,9.345513329E0
7.089767875E0,8.846078314E0,-1.671738982E0,1.974157999E0,9.216567287E0
7.099835875E0,8.640390224E0,-1.649775232E0,1.886421697E0,8.996481999E0
7.109903875E0,8.078720137E0,-7.264456473E-1,1.600513902E0,8.267713534E0
7.119970875E0,2.451159233E0,5.491855214E0,3.735604817E0,7.079788036E0
7.130038875E0,-3.097712181E1,1.258919797E1,5.146684719E0,3.383132195E1
7.140106875E0,-6.956234124E1,-4.212948114E-2,1.225999739E0,6.957315696E1
7.150174875E0,-6.332163604E1,-8.082103336E0,-2.063039770E0,6.386866304E1
7.160241875E0,-2.464364702E1,1.235786918E-1,-7.781639774E-1,2.465623956E1
7.170309875E0,-1.923671384E0,2.552654618E-1,-1.712638940E0,2.588204820E0
7.180377875E0,-5.483641630E-1,-4.461739831E-1,-2.237296736E0,2.346331427E0
7.190445875E0,-2.622454001E0,4.791793227E-4,-2.407782834E0,3.560152158E0
7.200512875E0,-1.189027795E0,4.746980166E-1,-2.304350266E0,2.636125083E0
7.210580875E0,-2.765013796E-1,5.501481485E-1,-1.450538667E0,1.575810402E0
7.220648875E0,6.739494914E-1,2.126338145E-1,-3.669608755E-1,7.962922455E-1
7.230716875E0,2.824812101E0,-3.453738324E-1,-8.987243548E-3,2.845861427E0
7.240783875E0,4.777112038E0,-4.003038554E-1,3.998701016E-1,4.810502957E0
7.250851875E0,6.530958061E0,-3.793332915E-1,5.329503179E-1,6.563637938E0
7.260919875E0,8.111613064E0,-4.188592633E-1,5.721214368E-1,8.142544597E0
7.270987875E0,9.234300104E0,-3.781927921E-1,7.179047656E-1,9.269882170E0
7.281054875E0,9.768008806E0,-3.834753129E-1,8.310074580E-1,9.810791137E0
7.291122875E0,1.017808456E1,-4.642025569E-1,8.786774683E-1,1.022648344E1
7.301190875E0,1.047960676E1,-5.405026181E-1,9.554467320E-1,1.053694355E1
7.311258875E0,1.052627690E1,-4.955578854E-1,1.039804439E0,1.058911121E1
7.321325875E0,1.046887595E1,-5.378056996E-1,1.019895912E0,1.053217862E1
7.331393875E0,1.048647256E1,-6.803543852E-1,9.468770528E-1,1.055109308E1
7.341461875E0,1.052042384E1,-8.671728522E-1,9.837870900E-1,1.060184623E1
7.351529875E0,1.040657855E1,-9.480380905E-1,9.955681331E-1,1.049699048E1
7.361597875E0,1.034137625E1,-1.082298640E0,1.067265522E0,1.045248720E1
7.371664875E0,1.041801219E1,-1.281561736E0,1.299194015E0,1.057663858E1
7.381732875E0,1.052169034E1,-1.483785643E0,1.607818390E0,1.074675149E1
7.391800875E0,1.066601483E1,-1.740451806E0,1.831208925E0,1.096113000E1
7.401868875E0,1.090234174E1,-2.099907049E0,1.974314850E0,1.127690491E1
7.411935875E0,1.116221306E1,-2.405281687E0,2.070217373E0,1.160457584E1
7.422003875E0,1.129571903E1,-2.547635368E0,2.012388264E0,1.175301752E1
7.432071875E0,1.141519752E1,-2.607762579E0,1.962334929E0,1.187257000E1
7.442139875E0,1.134074376E1,-2.760566404E0,1.912524837E0,1.182755034E1
7.452206875E0,1.114979240E1,-2.858326002E0,1.779028518E0,1.164700994E1
7.462274875E0,1.106475635E1,-2.686885932E0,1.633592770E0,1.150290460E1
7.472342875E0,1.110567750E1,-2.532440794E0,1.529237512E0,1.149294986E1
7.482410875E0,1.115507946E1,-2.465501284E0,1.506244068E0,1.152316213E1
7.492477875E0,1.112400969E1,-2.581317669E0,1.523092089E0,1.152070319E1
7.502545875E0,1.080518207E1,-2.764508597E0,1.511416515E0,1.125516980E1
7.512613875E0,8.669410540E0,-2.772733875E0,1.566402561E0,9.235818818E0
7.522681875E0,7.813493943E0,-2.959051309E0,1.448293337E0,8.479635950E0
7.532748875E0,6.987686414E0,-3.655758456E0,1.271399714E0,7.988040344E0
7.542816875E0,4.359921972E0,-5.678345726E0,7.560229106E-1,7.198895778E0
7.552884875E0,-1.135498289E0,-8.588890872E0,8.066071732E-1,8.701092915E0
7.562952875E0,-2.399525396E1,-2.955388613E0,2.622486745E0,2.431838751E1
7.573020375E0,-6.872039832E1,8.282579802E0,-1.300835913E1,7.042948020E1
7.583088375E0,-6.855582025E1,-9.451741682E0,-1.566153791E1,7.095434927E1
7.593156375E0,-4.806763970E1,-3.298846166E0,-8.144773793E0,4.886427850E1
7.603224375E0,-9.286982347E0,2.723977452E0,-5.940831914E0,1.135612514E1
7.613292375E0,3.086515932E0,-4.855089337E-2,-3.239787242E0,4.474947951E0
7.623359375E0,3.549441749E0,5.912096357E-1,-1.025777042E0,3.741695352E0
7.633427375E0,3.837108387E0,1.742766426E0,1.332755864E-1,4.216443759E0
7.643495375E0,4.876218835E0,2.534491412E0,-4.333178562E-1,5.512614734E0
7.653563375E0,5.285374827E0,2.703304913E0,-1.468487646E-1,5.938401222E0
7.663630375E0,5.221282911E0,2.076450066E0,4.092501318E-1,5.633908571E0
7.673698375E0,5.191132913E0,1.874067408E0,1.216807331E0,5.651602397E0
7.683766375E0,5.980347397E0,2.021304683E0,1.904419427E0,6.593712230E0
7.693834375E0,7.773445194E0,1.628594863E0,1.775751446E0,8.138308461E0
7.703901375E0,9.339331884E0,1.374481595E0,1.575750943E0,9.570543910E0
7.713969375E0,9.909948796E0,1.750239460E0,1.524710598E0,1.017817104E1
7.724037375E0,1.004219293E1,2.383808957E0,1.318613788E0,1.040513942E1
7.734105375E0,1.033061503E1,2.326350415E0,1.467976234E0,1.069057844E1
7.744172375E0,1.043871719E1,2.225308775E0,1.010447981E0,1.072099906E1
7.754240375E0,1.057974501E1,2.378064652E0,1.041190302E0,1.089358863E1
7.764308375E0,1.085689017E1,2.194258013E0,1.053865896E0,1.112643095E1
7.774376375E0,1.112324020E1,1.949813993E0,1.074721745E0,1.134386503E1
7.784443375E0,1.154619854E1,1.581834971E0,1.241893641E0,1.172003423E1
7.794511375E0,1.209982344E1,1.076470794E0,1.388855220E0,1.222675082E1
7.804579375E0,1.248865042E1,3.638219440E-1,1.379442372E0,1.256986941E1
7.814647375E0,1.277387643E1,-2.592909774E-1,1.465274820E0,1.286025588E1
7.824714375E0,1.301542608E1,-7.611143737E-1,1.691321161E0,1.314690756E1
7.834782375E0,1.321858057E1,-1.174109209E0,1.827717991E0,1.339589332E1
7.844850375E0,1.333632127E1,-1.414340310E0,1.638865789E0,1.351087357E1
7.854918375E0,1.333197679E1,-1.483213786E0,1.409289485E0,1.348805491E1
7.864985375E0,1.227114920E1,-1.300411990E0,1.311590697E0,1.240936921E1
7.875053375E0,9.644330254E0,-9.566348863E-1,1.430818933E0,9.796708589E0
7.885121375E0,9.047526587E0,-1.025990027E0,1.497439184E0,9.227822982E0
7.895189375E0,9.182886121E0,-1.076779380E0,1.576967164E0,9.379321766E0
7.905257375E0,9.049305310E0,-1.006069294E0,1.591968781E0,9.243184874E0
7.915324375E0,8.863862620E0,-8.673321158E-1,1.549287615E0,9.039945667E0
7.925392375E0,8.845922778E0,-6.859503168E-1,1.623775295E0,9.019840566E0
7.935460375E0,8.738777229E0,-2.939522485E-1,2.006225883E0,8.970929588E0
7.945528375E0,8.644754001E0,2.127104495E-1,2.485158454E0,8.997390178E0
7.955595375E0,8.401920889E0,7.687733491E-1,3.018730330E0,8.960804646E0
7.965663375E0,7.973190174E0,2.619602606E0,4.030905579E0,9.310331849E0
7.975731375E0,4.029841971E0,7.938243120E0,6.199456601E0,1.084843732E1
7.985799375E0,-4.409620148E1,1.052103195E1,1.625237567E1,4.815918202E1
7.995866375E0,-7.095731382E1,-3.502628356E0,1.413142449E1,7.243552960E1
8.005934375E0,-5.504968765E1,-5.057835692E0,-6.705265313E0,5.568671650E1
8.016002375E0,-1.956993965E1,-1.592557888E0,-3.811257262E0,2.000111148E1
8.026070375E0,-8.253681693E0,-1.946583699E0,-1.717566242E0,8.652310870E0
8.036137375E0,-9.916994691E0,-1.840669281E0,-6.002400756E-1,1.010421374E1
8.046205375E0,-9.393050839E0,-2.728709604E0,9.706658649E-1,9.829417704E0
8.056273375E0,-5.826870266E0,-2.554510524E0,2.483721793E-1,6.367073884E0
8.066341375E0,-3.594295741E0,-1.953573461E0,-9.006004339E-1,4.188853337E0
8.076408375E0,-1.269898880E0,-1.368295679E0,-1.704970901E0,2.528201338E0
8.086476375E0,9.617646486E-1,-9.484601864E-1,-1.642162449E0,2.126326756E0
8.096544375E0,3.618781541E0,-8.320339367E-1,-2.282723755E-1,3.720210826E0
8.106612375E0,5.656711028E0,-7.513546398E-1,5.034939457E-1,5.728561739E0
8.116679375E0,6.902793614E0,-5.804029214E-1,4.255142353E-1,6.940208180E0
8.126747375E0,7.785752413E0,-6.199285278E-1,1.631361473E-1,7.812097377E0
8.136815375E0,8.734386554E0,-1.005577105E0,-2.283747017E-2,8.792110972E0
8.146883375E0,9.438134626E0,-1.386725079E0,-1.854549694E-1,9.541267485E0
8.156950375E0,9.771137651E0,-1.508010658E0,-3.255782300E-1,9.892180160E0
8.167018375E0,1.024111989E1,-1.541467256E0,-3.329919147E-1,1.036183099E1
8.177086375E0,1.066012434E1,-1.489038051E0,-2.816369891E-1,1.076730258E1
8.187154375E0,1.085980910E1,-1.418313346E0,-2.165103357E-2,1.095205621E1
8.197221375E0,1.099113055E1,-1.376375800E0,4.206989070E-1,1.108496047E1
8.207289375E0,1.109395500E1,-1.345464202E0,8.578531945E-1,1.120812311E1
8.217357375E0,1.122020107E1,-1.320316789E0,1.183757188E0,1.135946431E1
8.227425375E0,1.140003101E1,-1.370276131E0,1.273654547E0,1.155251313E1
8.237493375E0,1.162510438E1,-1.546349243E0,1.245385598E0,1.179344026E1
8.247560375E0,1.177356752E1,-1.658540354E0,1.176498527E0,1.194787835E1
8.257628375E0,1.190695187E1,-1.638309719E0,1.273043074E0,1.208636422E1
8.267696375E0,1.181969387E1,-1.524176747E0,1.384351695E0,1.199769592E1
8.277764375E0,1.177732260E1,-1.457840086E0,1.434336033E0,1.195357458E1
8.287831375E0,1.168309238E1,-1.164957293E0,1.386310658E0,1.182258983E1
8.297899375E0,1.153188456E1,-7.668624059E-1,1.320881484E0,1.163259074E1
8.307967375E0,1.134178105E1,-3.926869433E-1,1.314796872E0,1.142448648E1
8.318035375E0,1.119761561E1,-1.044257167E-1,1.340883493E0,1.127809685E1
8.328102375E0,1.111690415E1,6.381051823E-2,1.444289163E0,1.121051296E1
8.338170375E0,1.078332050E1,2.368775766E-1,1.565480748E0,1.089893765E1
8.348238375E0,9.732564738E0,4.988285986E-1,1.552332699E0,9.868200604E0
8.358306375E0,9.121665773E0,8.913254343E-1,1.514086938E0,9.289332956E0
8.368373375E0,8.931768090E0,1.090239086E0,1.506353849E0,9.123278160E0
8.378441375E0,8.672664515E0,9.937935032E-1,1.446143462E0,8.848393427E0
8.388509375E0,8.465670158E0,6.981297746E-1,1.367884912E0,8.603840162E0
8.398577375E0,8.050220808E0,-1.109509170E-2,1.273570493E0,8.150347229E0
8.408644375E0,-2.469157548E0,-4.186162311E0,2.761814200E0,5.590018924E0
8.418712375E0,-6.204094613E1,-3.096872520E1,-5.825545871E0,6.958504093E1
8.428780375E0,-6.813855826E1,-3.835899066E1,-1.039217335E1,7.888138281E1
8.438848375E0,-5.102660681E1,-1.007250958E1,-1.156007398E1,5.328044071E1
8.448915375E0,-4.104159731E1,1.454299830E1,-1.434540568E1,4.584432542E1
8.458983375E0,-2.359910743E1,-1.913824381E-1,-9.031987612E0,2.526917686E1
8.469051375E0,-1.286876622E1,-2.173517354E0,5.408265173E-2,1.305113966E1
8.479119375E0,-5.964037174E0,1.179791240E0,1.985796297E0,6.395704317E0
8.489186375E0,-4.912187397E-2,2.965689653E0,2.504812700E0,3.882243518E0
8.499254375E0,1.901201704E0,3.288132606E0,2.065061152E0,4.323292902E0
8.509322375E0,2.315933601E0,3.579668638E0,1.373963531E0,4.479436548E0
8.519390375E0,3.836584477E0,3.172046664E0,1.458431239E0,5.187319362E0
8.529457375E0,5.117494249E0,2.175815895E0,1.621144048E0,5.792325113E0
8.539525375E0,5.734287792E0,1.777595658E0,2.222495095E0,6.401670661E0
8.549593375E0,6.529015616E0,1.853429660E0,3.764447962E0,7.761076914E0
8.559661375E0,6.373130600E0,3.171272785E0,6.712087845E0,9.783960750E0
8.569729375E0,6.300943800E0,4.849947588E0,1.192404445E1,1.433201732E1
8.579796667E0,7.842090336E0,5.799368472E0,1.743003881E1,1.997341504E1
8.589864667E0,9.244974781E0,5.279736357E0,9.984713634E0,1.459587891E1
8.599932667E0,1.002269598E1,3.807811206E0,2.321999502E0,1.097021160E1
8.610000667E0,1.010730987E1,2.194019447E0,2.424770347E-1,1.034554151E1
8.620067667E0,1.050872473E1,1.183985448E0,1.520346236E-1,1.057630519E1
8.630135667E0,1.057482049E1,7.115619984E-1,4.670521975E-1,1.060901911E1
8.640203667E0,1.050023340E1,4.226478571E-1,6.645641255E-1,1.052972831E1
8.650271667E0,1.055710108E1,2.978366270E-1,6.274927783E-1,1.057992614E1
8.660338667E0,1.062866866E1,3.571384303E-2,6.322337008E-1,1.064751579E1
8.670406667E0,1.049514749E1,-5.105727312E-1,5.882088447E-1,1.052401041E1
8.680474667E0,1.026966716E1,-1.182643220E0,3.246128547E-1,1.034263420E1
8.690542667E0,1.017796528E1,-1.724042180E0,3.981369138E-1,1.033062494E1
8.700609667E0,1.016367118E1,-2.180374384E0,5.301483321E-1,1.040842455E1
8.710677667E0,1.010139950E1,-2.567875505E0,7.331086957E-1,1.044843074E1
8.720745667E0,9.942617190E0,-2.896036158E0,9.072341732E-1,1.039546708E1
8.730813667E0,9.727815045E0,-3.180422800E0,1.006865977E0,1.028393183E1
8.740880667E0,9.616938388E0,-3.469631056E0,1.097724545E0,1.028245315E1
8.750948667E0,9.489614097E0,-3.720176353E0,1.204214037E0,1.026365526E1
8.761016667E0,9.380701520E0,-3.943023098E0,1.331434539E0,1.026244172E1
8.771084667E0,9.326303118E0,-4.152982286E0,1.420126129E0,1.030747059E1
8.781151667E0,9.311481012E0,-4.323193272E0,1.506473132E0,1.037608500E1
8.791219667E0,9.269051861E0,-4.396380239E0,1.562698789E0,1.037716286E1
8.801287667E0,9.068611062E0,-4.275258675E0,1.546964078E0,1.014448822E1
8.811355667E0,8.730164865E0,-3.902217134E0,1.500271283E0,9.679560478E0
8.821422667E0,8.816456904E0,-2.735955766E0,1.747180635E0,9.395105452E0
8.831490667E0,7.713824059E0,7.101389031E0,2.747207855E0,1.083881722E1
8.841558667E0,-3.536156291E-1,2.702040921E1,1.757678872E0,2.707982631E1
8.851626667E0,-6.269342523E0,1.531410104E1,-1.674601632E0,1.663221684E1
8.861693667E0,-3.091853972E1,-1.764186122E1,-6.514112817E0,3.618874178E1
8.871761667E0,-6.791510575E1,-1.397203524E1,-1.777070228E1,7.157846895E1
8.881829667E0,-5.578012650E1,-4.323068141E0,-9.003476003E0,5.666722166E1
8.891897667E0,-1.681354231E1,1.185931109E0,1.610978664E0,1.693212597E1
8.901964667E0,-4.863652584E0,4.313827202E-1,3.202180509E-1,4.893234831E0
8.912032667E0,-6.686916751E0,-1.338165415E0,6.331411886E-1,6.848825452E0
8.922100667E0,-6.239759120E0,-1.634141824E0,7.007186294E-2,6.450575435E0
8.932168667E0,-3.295884259E0,-1.338736103E0,-2.528803825E-2,3.557486035E0
8.942236667E0,-1.582593355E0,-1.291518375E0,-2.820812861E-2,2.042894305E0
8.952303667E0,2.859873176E-2,-1.354496104E0,4.439603734E-1,1.425685237E0
8.962371667E0,1.905621614E0,-1.159354345E0,1.204531102E0,2.535032822E0
8.972439667E0,4.461343097E0,-7.940355134E-1,1.422205399E0,4.749393943E0
8.982507667E0,6.650563442E0,-5.692235202E-1,1.420148349E0,6.824282441E0
8.992574667E0,8.189062359E0,-3.720779201E-1,1.347590250E0,8.307537769E0
9.002642667E0,9.252579085E0,-2.715932268E-1,1.197602152E0,9.333714883E0
9.012710667E0,9.929526443E0,-2.279080939E-1,1.228844994E0,1.000787178E1
9.022778667E0,1.056689868E1,-4.177660167E-1,1.033772525E0,1.062556171E1
9.032845667E0,1.073173403E1,-5.138524345E-1,8.488999379E-1,1.077751319E1
9.042913667E0,1.075098306E1,-3.255992800E-1,1.242087768E0,1.082739275E1
9.052981667E0,1.070250262E1,-1.970792341E-1,1.329819392E0,1.078660383E1
9.063049667E0,1.065329831E1,-1.360655853E-1,1.032584370E0,1.070408843E1
9.073116667E0,1.065140264E1,-6.677900344E-2,6.973073637E-1,1.067441217E1
9.083184667E0,1.070215179E1,5.784943263E-2,-2.419819035E-2,1.070233550E1
9.093252667E0,1.057247224E1,-9.671031564E-2,2.243611729E-1,1.057529480E1
9.103320667E0,1.058307441E1,-4.256811002E-1,6.255585194E-1,1.061008916E1
9.113387667E0,1.084679787E1,-8.098241651E-1,1.015897659E0,1.092432549E1
9.123455667E0,1.102756805E1,-1.185956545E0,1.250566377E0,1.116143657E1
9.133523667E0,1.119279166E1,-1.554334054E0,1.490663431E0,1.139809707E1
9.143591667E0,1.130754093E1,-1.759953439E0,1.728053223E0,1.157342153E1
9.153658667E0,1.130829522E1,-1.832558024E0,1.854051365E0,1.160488329E1
9.163726667E0,1.116621255E1,-1.737329685E0,1.920577769E0,1.146260163E1
9.173794667E0,1.100350559E1,-1.581487062E0,1.988538787E0,1.129302985E1
9.183862667E0,1.079980263E1,-1.417593408E0,2.133525031E0,1.109942508E1
9.193929667E0,1.067370977E1,-1.296971781E0,2.262395325E0,1.098765892E1
9.203997667E0,1.060106981E1,-1.166308511E0,2.425760829E0,1.093742530E1
9.214065667E0,1.056215542E1,-9.958803014E-1,2.670461103E0,1.093993908E1
9.224133667E0,1.049932591E1,-8.314744312E-1,2.846644435E0,1.091011361E1
9.234200667E0,1.020408947E1,-7.395581015E-1,2.913384262E0,1.063758412E1
9.244268667E0,8.907671714E0,-9.410989074E-1,2.786135108E0,9.380556026E0
9.254336667E0,8.600373634E0,-1.095132402E0,2.787390213E0,9.106881235E0
9.264404667E0,8.252176035E0,-1.303866233E0,2.601056992E0,8.750084225E0
9.274471667E0,6.433359261E0,-1.896341791E0,3.067128904E0,7.375059544E0
9.284539667E0,-2.441680312E0,-3.208769225E0,6.910584444E0,8.000886203E0
9.294607667E0,-5.100760570E1,3.283080904E0,-8.491694945E0,5.181373701E1
9.304675667E0,-7.068380914E1,2.720652140E0,-2.110416133E1,7.381726389E1
9.314743667E0,-6.004942657E1,-3.380884649E0,-9.538939455E0,6.089626736E1
9.324810667E0,-2.500348935E1,-5.717398694E-1,-3.865041121E0,2.530691425E1
9.334878667E0,-3.317514279E0,1.732997775E-1,-5.773189902E-2,3.322539207E0
9.344946667E0,-8.676461112E-1,7.292910486E-1,-1.958468750E0,2.262802477E0
9.355013667E0,-1.882910444E0,1.510365039E0,-2.420799905E0,3.418600075E0
9.365081667E0,2.469290864E-1,1.612236107E0,-5.448551758E-1,1.719635543E0
9.375149667E0,2.444327931E0,1.467135404E0,1.163434605E0,3.079091653E0
9.385217667E0,4.470099303E0,9.636904290E-1,1.865742434E0,4.938773314E0
9.395285667E0,6.136258725E0,5.650076777E-1,1.580287213E0,6.361620273E0
9.405352667E0,7.636160756E0,4.068261321E-1,8.997859899E-1,7.699745023E0
9.415420667E0,8.800013949E0,3.348276481E-1,5.510018420E-1,8.823602330E0
9.425488667E0,9.418855187E0,4.669162497E-1,4.750207829E-1,9.442377273E0
9.435556667E0,9.749440972E0,6.205211431E-1,4.355181269E-1,9.778871192E0
9.445623667E0,1.013179567E1,8.036193922E-1,6.355595970E-1,1.018346815E1
9.455691667E0,1.043612219E1,8.696771416E-1,8.109725583E-1,1.050364990E1
9.465759667E0,1.044615017E1,7.065667221E-1,7.466566944E-1,1.049660831E1
9.475827667E0,1.043470600E1,5.500195463E-1,6.156182528E-1,1.046731086E1
9.485894667E0,1.048006519E1,5.395068008E-1,1.940012598E-1,1.049573582E1
9.495962667E0,1.060837766E1,6.250270075E-1,2.641541798E-2,1.062680728E1
9.506030667E0,1.071365677E1,5.402467659E-1,2.888910449E-1,1.073115865E1
9.516098667E0,1.081156723E1,2.144106006E-1,5.266704813E-1,1.082651096E1
9.526165667E0,1.089620217E1,-2.754141629E-1,7.204600719E-1,1.092346728E1
9.536233667E0,1.105875710E1,-9.883025292E-1,8.052563202E-1,1.113199390E1
9.546301667E0,1.149464130E1,-1.755259733E0,9.020769290E-1,1.166282376E1
9.556369667E0,1.207310518E1,-2.370253942E0,1.073071734E0,1.235028159E1
9.566436667E0,1.249573140E1,-2.753676045E0,1.179962198E0,1.284983835E1
9.576504750E0,1.264924771E1,-2.815299266E0,1.236335278E0,1.301759972E1
9.586572750E0,1.246986566E1,-2.662448663E0,1.262382284E0,1.281326623E1
9.596640750E0,1.202616607E1,-2.401541223E0,1.238011090E0,1.232593777E1
9.606707750E0,1.168596220E1,-2.191100224E0,1.148656279E0,1.194495893E1
9.616775750E0,1.146025032E1,-2.170242329E0,1.209113053E0,1.172643354E1
9.626843750E0,1.134435032E1,-2.242529994E0,1.290358872E0,1.163564570E1
9.636911750E0,1.131599132E1,-2.388258103E0,1.359530410E0,1.164490272E1
9.646978750E0,1.132010191E1,-2.530561206E0,1.368201685E0,1.167991538E1
9.657046750E0,1.104627564E1,-2.457568074E0,1.417315080E0,1.140476340E1
9.667114750E0,9.556645993E0,-2.089885506E0,1.380464466E0,9.879412240E0
9.677182750E0,8.947700583E0,-2.098849872E0,1.416498517E0,9.299085146E0
9.687249750E0,9.045230386E0,-2.121099990E0,1.486906010E0,9.408833476E0
9.697317750E0,9.154714821E0,-1.949165245E0,1.407454044E0,9.465145297E0
9.707385750E0,9.140957492E0,-1.761190125E0,1.257690479E0,9.393651040E0
9.717453750E0,8.936006151E0,-1.280725146E0,1.266581755E0,9.115738707E0
9.727520750E0,5.154181434E0,4.293122211E0,2.281744931E0,7.085396566E0
9.737588750E0,-2.737249345E1,1.032607993E1,1.635197246E0,2.930111251E1
9.747656750E0,-6.941839215E1,-5.371621842E0,-1.580154598E1,7.139647292E1
9.757724750E0,-6.556109625E1,-8.583546517E0,-1.036159592E1,6.692755249E1
9.767791750E0,-2.847666762E1,8.387113108E-1,-1.215114489E0,2.851491783E1
9.777859750E0,-9.272982359E-2,1.044945677E0,-2.642422827E0,2.843045670E0
9.787927750E0,-1.223225820E0,2.547631860E-3,-1.882429218E0,2.244956048E0
9.797995750E0,-6.339717271E0,-6.004856586E-2,-9.714271724E-1,6.413991866E0
9.808062750E0,-3.736851443E0,2.440700904E-1,-1.779725214E0,4.146209203E0
9.818130750E0,-3.265313262E0,3.651416606E-1,-2.274365745E0,3.996040374E0
9.828198750E0,-2.288924727E0,-3.193404204E-1,-8.355425584E-1,2.457495895E0
9.838266750E0,5.766354507E-1,-7.796665657E-1,1.198428363E0,1.541628664E0
9.848333750E0,3.304584332E0,-9.978793913E-1,1.579205478E0,3.796041468E0
9.858401750E0,5.562681953E0,-7.548541984E-1,1.454613007E0,5.799063232E0
9.868469750E0,7.562419766E0,-4.582854670E-1,1.081878152E0,7.653148281E0
9.878537750E0,8.985402260E0,-1.977300292E-1,7.615910679E-1,9.019787796E0
9.888605750E0,9.864380275E0,-7.670493524E-2,6.541549122E-1,9.886344143E0
9.898672750E0,1.019361360E1,2.244746089E-3,5.270317662E-1,1.020722909E1
9.908740750E0,1.052616463E1,6.668924868E-2,4.947715080E-1,1.053799735E1
9.918808750E0,1.092635275E1,-1.331118643E-2,7.012039483E-1,1.094883777E1
9.928876750E0,1.118893834E1,-1.759845266E-1,1.191913980E0,1.125362034E1
9.938943750E0,1.137177844E1,-2.876806529E-1,1.424192868E0,1.146422393E1
9.949011750E0,1.157550829E1,-2.722127393E-1,1.551604282E0,1.168220732E1
9.959079750E0,1.195912072E1,-2.919468363E-1,1.688950700E0,1.208132261E1
9.969147750E0,1.207896058E1,-3.478769524E-1,1.625938765E0,1.219286611E1
9.979214750E0,1.177452997E1,-4.016338776E-1,1.407880890E0,1.186520099E1
9.989282750E0,1.148387307E1,-4.548447095E-1,1.616874411E0,1.160605477E1
9.999350750E0,1.201486574E1,-1.054808760E0,1.848723528E0,1.220194242E1
1.000941875E1,1.268049640E1,-1.829401112E0,1.985576441E0,1.296472950E1
1.001948575E1,1.276920568E1,-2.079701411E0,1.832489319E0,1.306659055E1
1.002955375E1,1.267287280E1,-1.941492236E0,1.479759397E0,1.290584305E1
1.003962175E1,1.270525819E1,-1.903732087E0,1.335196491E0,1.291628937E1
1.004968975E1,1.289834494E1,-1.987289237E0,1.291543518E0,1.311429393E1
1.005975675E1,1.303506454E1,-2.041210652E0,1.407539413E0,1.326878350E1
1.006982475E1,1.289214923E1,-2.037708462E0,1.635266243E0,1.315423366E1
1.007989275E1,1.198677805E1,-1.904038627E0,1.833759188E0,1.227480688E1
1.008996075E1,9.940767131E0,-1.754373149E0,1.846600989E0,1.026190097E1
1.010002775E1,9.436417884E0,-1.786190042E0,1.651335415E0,9.744914879E0
1.011009575E1,9.168845787E0,-1.682185763E0,1.544127008E0,9.448905240E0
1.012016375E1,8.603028270E0,-1.609563053E0,1.599166703E0,8.897197468E0
1.013023175E1,8.375093864E0,-1.680525300E0,1.809519117E0,8.731593322E0
1.014029875E1,7.903415349E0,-1.781576150E0,2.100154971E0,8.369506477E0
1.015036675E1,6.487866420E0,-2.290305547E0,2.779438877E0,7.420457577E0
1.016043475E1,2.269811348E0,-3.407293306E0,5.242770259E0,6.651941914E0
1.017050275E1,-2.736618080E1,-1.174927526E0,9.127754479E0,2.887220476E1
1.018056975E1,-7.033565188E1,7.660220879E-1,-4.232986522E-1,7.034109679E1
1.019063775E1,-6.569955364E1,-6.894580615E0,-8.484488837E0,6.660295144E1
1.020070575E1,-3.345331940E1,-1.881894490E0,-3.824469631E0,3.372377016E1
1.021077375E1,-5.669710557E0,7.726271027E-1,-2.434210494E0,6.218355987E0
1.022084075E1,-2.626220192E0,8.134318972E-1,-3.365307666E0,4.345572418E0
1.023090875E1,-7.540060013E0,7.739009187E-1,-2.028315495E0,7.846368037E0
1.024097675E1,-5.873811128E0,1.648084509E0,1.759835764E-1,6.103180313E0
1.025104475E1,-4.490371014E0,1.947431838E0,-1.168887645E-1,4.895874344E0
1.026111175E1,-2.657040281E0,1.887387657E0,-5.206074303E-1,3.300473803E0
1.027117975E1,2.054465997E-1,1.492927765E0,-2.499954394E-1,1.527592661E0
1.028124775E1,3.124190127E0,1.227882543E0,-5.128406103E-1,3.395771633E0
1.029131575E1,6.014327322E0,9.459134316E-1,-3.504294813E-1,6.098334705E0
1.030138275E1,8.092541785E0,8.152910194E-1,1.324615809E-1,8.134585304E0
1.031145075E1,9.075176901E0,8.463499671E-1,5.877182633E-1,9.133485468E0
1.032151875E1,9.585772728E0,9.692689651E-1,7.037983578E-1,9.660323662E0
1.033158675E1,9.891608419E0,9.842819837E-1,4.344060230E-1,9.949946570E0
1.034165375E1,1.006733245E1,1.048665091E0,4.346650547E-1,1.013113098E1
1.035172175E1,1.009230825E1,1.083451054E0,3.969943678E-1,1.015805870E1
1.036178975E1,1.009735089E1,9.493846312E-1,3.089505029E-1,1.014658940E1
1.037185775E1,1.018160225E1,8.701463807E-1,1.568959987E-1,1.021992150E1
1.038192475E1,1.035645271E1,9.296309826E-1,5.056555152E-2,1.039821539E1
1.039199275E1,1.060828293E1,7.962635949E-1,2.800337009E-1,1.064181006E1
1.040206075E1,1.087814597E1,4.259304108E-1,2.157797810E-1,1.088861962E1
1.041212875E1,1.100750743E1,-1.578987231E-1,1.659275897E-1,1.100989027E1
1.042219575E1,1.123283807E1,-1.033700604E0,1.217834505E-1,1.128095826E1
1.043226375E1,1.207508271E1,-1.997583406E0,3.053673108E-1,1.224300662E1
1.044233175E1,1.284947742E1,-2.544198375E0,5.379917872E-1,1.310997523E1
1.045239975E1,1.299048069E1,-2.438547813E0,4.657541156E-1,1.322558244E1
1.046246775E1,1.274422403E1,-1.838126912E0,1.823594534E-1,1.287739149E1
1.047253475E1,1.233333902E1,-1.327361223E0,-1.057574018E-1,1.240501204E1
1.048260275E1,1.228268108E1,-9.014395094E-1,-1.684956869E-1,1.231686805E1
1.049267075E1,1.247526147E1,-1.282324798E0,-6.132559776E-3,1.254099450E1
1.050273775E1,1.245288300E1,-2.065583747E0,2.584843540E-1,1.262567802E1
1.051280575E1,1.223862699E1,-2.236154775E0,5.153092682E-1,1.245190437E1
1.052287375E1,1.209128885E1,-2.133587596E0,7.152279103E-1,1.229890292E1
1.053294175E1,1.155646742E1,-2.126574153E0,8.393455875E-1,1.178043963E1
1.054300975E1,9.478770436E0,-1.949491373E0,7.118493891E-1,9.703315678E0
1.055307675E1,8.738084334E0,-1.976157162E0,6.116164915E-1,8.979609662E0
1.056314475E1,8.799681242E0,-2.065476743E0,5.915289303E-1,9.058172587E0
1.057321250E1,8.995990398E0,-2.139256179E0,6.651324749E-1,9.270742227E0
1.058328050E1,9.135976249E0,-1.631336768E0,1.004815943E0,9.334718890E0
1.059334750E1,8.824043081E0,2.792540148E0,1.326614533E0,9.349969139E0
1.060341550E1,-1.464102687E1,1.260249571E1,1.394562687E0,1.936820516E1
1.061348350E1,-6.622453537E1,-6.141844570E0,-2.257799413E1,7.023657992E1
1.062355150E1,-6.836220257E1,-1.408157113E1,-2.299493335E1,7.348774282E1
1.063361850E1,-3.895281985E1,-1.303590244E0,-1.853808852E0,3.901868948E1
1.064368650E1,-2.165826219E0,1.545101301E0,-4.350059474E-1,2.695806265E0
1.065375450E1,3.440156704E0,-1.031667746E-1,-8.343894875E-1,3.541401890E0
1.066382250E1,-5.047123593E-1,-7.950213540E-1,1.047043000E-1,9.475001368E-1
1.067388950E1,-3.270078158E0,-1.028882791E0,6.475218308E-1,3.488738379E0
1.068395750E1,-9.363152272E-1,-9.125930732E-1,6.190119767E-1,1.446612647E0
1.069402550E1,1.309343612E0,-1.665007229E0,9.317105448E-1,2.314025563E0
1.070409350E1,3.034045942E0,-2.291225021E0,1.951882446E0,4.273756189E0
1.071416050E1,4.344625656E0,-2.260632097E0,2.928752207E0,5.706471682E0
1.072422850E1,5.616762850E0,-1.743037444E0,2.868387891E0,6.543229596E0
1.073429650E1,7.038377681E0,-1.089333645E0,2.222520822E0,7.460898537E0
1.074436450E1,8.303367823E0,-7.673467746E-1,2.110311584E0,8.601636662E0
1.075443150E1,9.653111603E0,-7.994269386E-1,2.821851071E0,1.008882999E1
1.076449950E1,1.117299415E1,-1.006401416E0,4.912273352E0,1.224659429E1
1.077456750E1,1.386025635E1,-1.052174005E0,1.194072304E1,1.832470036E1
1.078463550E1,1.470317693E1,-1.015336838E0,1.112413131E1,1.846511896E1
1.079470250E1,1.351879884E1,-2.796696569E-1,3.726984851E0,1.402592433E1
1.080477050E1,1.290218188E1,3.341072711E-1,-1.473732233E-2,1.290651550E1
1.081483850E1,1.304708875E1,2.241720520E-1,-1.147448317E0,1.309936699E1
1.082490650E1,1.292849552E1,8.470459320E-2,-1.251928632E0,1.298924542E1
1.083497350E1,1.274334227E1,1.648582254E-1,-9.333816791E-1,1.277854263E1
1.084504150E1,1.289559909E1,6.967941975E-1,-9.213311523E-1,1.294723326E1
1.085510950E1,1.334900388E1,7.823454675E-1,-5.910131693E-1,1.338496417E1
1.086517750E1,1.344877376E1,6.875246065E-1,1.435280212E-1,1.346710087E1
1.087524450E1,1.320490276E1,6.500104058E-1,1.023038206E0,1.326041393E1
1.088531250E1,1.255534727E1,6.775458214E-1,1.693750094E0,1.268718262E1
1.089538050E1,1.151265306E1,6.877436578E-1,2.068878214E0,1.171727054E1
1.090544850E1,1.012182616E1,3.774485877E-1,1.993818676E0,1.032323327E1
1.091551550E1,9.555468948E0,7.699006923E-2,1.679644417E0,9.702273943E0
1.092558350E1,9.357401535E0,-9.652225457E-2,1.475223419E0,9.473466323E0
1.093565150E1,9.317286127E0,-1.805256204E-1,1.318963744E0,9.411911370E0
1.094571950E1,9.180018647E0,-8.654902428E-2,1.146232023E0,9.251706920E0
1.095578650E1,8.799154993E0,5.685934827E-2,1.021728722E0,8.858458735E0
1.096585450E1,8.585335180E0,7.573028661E-2,1.022647685E0,8.646358975E0
1.097592250E1,8.460678974E0,3.240614623E-2,1.130783679E0,8.535971567E0
1.098599050E1,8.223207175E0,-2.840222877E-2,1.367739755E0,8.336225462E0
1.099605750E1,7.659825608E0,-4.062451381E-1,1.559279629E0,7.827471904E0
1.100612550E1,6.969056600E-1,-1.793759409E0,3.043936508E0,3.601221984E0
1.101619350E1,-5.544996932E1,-1.052743816E1,5.862276911E0,5.674409522E1
1.102626150E1,-7.044658526E1,-4.766623303E0,4.376954327E0,7.074319615E1
1.103632850E1,-6.690879526E1,-3.669367558E0,-1.127555549E1,6.795137447E1
1.104639650E1,-4.261736112E1,-4.299071168E0,-8.179825512E0,4.360769458E1
1.105646450E1,-1.323436805E1,-7.454112375E-1,-2.272119244E0,1.344866765E1
1.106653250E1,-6.907385432E0,-7.357025206E-2,-2.249704528E0,7.264885171E0
1.107659950E1,-8.361261106E0,-1.285671160E-1,-3.494635212E-1,8.369548466E0
1.108666750E1,-9.469010264E0,-5.904717171E-1,1.900723987E0,9.675927030E0
1.109673550E1,-7.884420669E0,-1.040849994E0,1.450088432E0,8.083947950E0
1.110680350E1,-4.257786902E0,-6.721675524E-1,4.365858650E-1,4.332570339E0
1.111687050E1,-1.029238594E-1,-8.454050571E-2,-5.555322647E-2,1.443141674E-1
1.112693850E1,2.993425335E0,2.962692808E-1,4.162351791E-1,3.036712441E0
1.113700650E1,5.606817906E0,6.537342051E-1,1.287173309E0,5.789696932E0
1.114707450E1,7.414273540E0,1.319503734E0,1.645884787E0,7.708532867E0
1.115714250E1,8.552421788E0,2.047643174E0,1.685069318E0,8.954117467E0
1.116720950E1,9.485008830E0,2.401768388E0,1.252210468E0,9.864173303E0
1.117727750E1,1.007562497E1,2.611889544E0,1.051897724E0,1.046167646E1
1.118734550E1,1.019393520E1,2.774568731E0,9.155511066E-1,1.060437552E1
1.119741350E1,1.002460919E1,2.729951260E0,5.497891660E-1,1.040421508E1
1.120748050E1,9.946677496E0,2.495773197E0,1.213893664E-1,1.025573071E1
1.121754850E1,1.016040492E1,2.126318630E0,-3.985345244E-1,1.038816100E1
1.122761650E1,1.042898625E1,1.642278809E0,-7.972801334E-1,1.058756296E1
1.123768450E1,1.066459746E1,1.053227161E0,-9.248008901E-1,1.075630900E1
1.124775150E1,1.090485605E1,3.848893889E-1,-8.921441907E-1,1.094805675E1
1.125781950E1,1.118950786E1,-2.566470127E-1,-9.464636546E-1,1.123239722E1
1.126788750E1,1.193385374E1,-1.317880547E0,-8.699463328E-1,1.203787692E1
1.127795550E1,1.350825046E1,-2.718283433E0,-7.239004274E-1,1.379804070E1
1.128802250E1,1.461564645E1,-3.422080914E0,-7.081668127E-1,1.502761655E1
1.129809050E1,1.452186413E1,-3.322882901E0,-6.671469869E-1,1.491211500E1
1.130815850E1,1.393349156E1,-2.921092646E0,-7.284210560E-1,1.425501900E1
1.131822650E1,1.341550427E1,-2.627525876E0,-7.043661225E-1,1.368852726E1
1.132829350E1,1.298553394E1,-2.557705735E0,-5.540711186E-1,1.324662014E1
1.133836150E1,1.260442178E1,-2.662847151E0,-4.009926939E-1,1.288887111E1
1.134842950E1,1.228689458E1,-2.731877917E0,-2.327321199E-1,1.258908653E1
1.135849750E1,1.181562070E1,-2.618546014E0,-5.926394261E-2,1.210244553E1
1.136856450E1,1.041858288E1,-2.326038759E0,-1.050674486E-1,1.067559669E1
1.137863250E1,9.188371979E0,-2.215565852E0,-2.140719006E-1,9.454138694E0
1.138870050E1,8.872849790E0,-2.220496224E0,-1.687418729E-1,9.148034800E0
1.139876850E1,8.922111998E0,-2.046372281E0,-9.380169131E-2,9.154262437E0
1.140883550E1,9.044029952E0,-1.676445844E0,-9.041264512E-2,9.198539172E0
1.141890350E1,9.116162374E0,-1.410983862E0,-2.088327223E-1,9.227074455E0
1.142897150E1,9.367475703E0,-8.127281848E-1,-1.698874155E-1,9.404200651E0
1.143903950E1,9.301948296E0,3.236678862E0,3.532139254E-1,9.855307820E0
1.144910650E1,-6.261539413E0,1.407455096E1,1.945718750E0,1.552693408E1
1.145917450E1,-5.211518061E1,-1.972696048E0,3.947072879E0,5.230165355E1
1.146924250E1,-7.035389520E1,-1.412969371E1,-4.341573409E0,7.188997200E1
1.147931050E1,-5.226180071E1,-5.144227134E0,-4.918794166E0,5.274422644E1
1.148937750E1,-1.297752092E1,1.463215139E0,-2.123621017E0,1.323128164E1
1.149944550E1,-1.220517974E0,5.900685516E-1,-2.731993985E0,3.049858383E0
1.150951350E1,-4.861459293E0,-2.298570166E-2,-2.206991787E0,5.339019344E0
1.151958150E1,-6.314274867E0,-3.405905177E-1,-1.097528152E0,6.417993225E0
1.152964850E1,-4.668111168E0,-6.119013239E-1,-5.305290589E-1,4.737841933E0
1.153971650E1,-2.845534049E0,-1.029677281E0,3.746369541E-1,3.049205171E0
1.154978450E1,5.544727492E-1,-1.391492314E0,1.029567865E0,1.817608560E0
1.155985250E1,3.299832299E0,-1.454919401E0,1.393582109E0,3.866232632E0
1.156991950E1,5.331148000E0,-9.364514673E-1,1.475743675E0,5.610338648E0
1.157998762E1,7.250233998E0,-5.589326764E-1,1.446443131E0,7.414209095E0
1.159005562E1,8.975697051E0,-3.750918674E-1,1.150492816E0,9.056901522E0
1.160012363E1,9.830009172E0,-4.259870192E-2,7.962036610E-1,9.862293610E0
1.161019062E1,1.010749815E1,2.522865978E-1,5.964697909E-1,1.012822509E1
1.162025863E1,1.047578035E1,1.864431489E-1,7.661045337E-1,1.050541056E1
1.163032663E1,1.086672752E1,1.664644053E-2,1.439734182E0,1.096170054E1
1.164039463E1,1.113688526E1,-2.268702132E-1,1.828391590E0,1.128825492E1
1.165046163E1,1.158114384E1,-5.332929647E-1,2.047756902E0,1.177287571E1
1.166052963E1,1.236074726E1,-9.673773909E-1,2.369160805E0,1.262286872E1
1.167059762E1,1.271563465E1,-1.363779436E0,2.683411224E0,1.306705609E1
1.168066562E1,1.287414682E1,-1.510384043E0,3.087590650E0,1.332509409E1
1.169073262E1,1.274796859E1,-1.276982197E0,3.491939646E0,1.327912004E1
1.170080062E1,1.256250426E1,-1.122789659E0,3.223725525E0,1.301804810E1
1.171086862E1,1.249258677E1,-1.174197794E0,3.133174374E0,1.293291329E1
1.172093663E1,1.223783644E1,-1.275120736E0,3.341501312E0,1.274975313E1
1.173100362E1,1.183887390E1,-1.150283851E0,2.786728016E0,1.221670746E1
1.174107163E1,1.151225896E1,-9.455301467E-1,2.158215483E0,1.175091604E1
1.175113963E1,1.150685730E1,-8.800308064E-1,2.083510141E0,1.172703005E1
1.176120762E1,1.162872614E1,-8.785929760E-1,2.151742616E0,1.185871804E1
1.177127463E1,1.177933522E1,-9.160899275E-1,2.156385159E0,1.201007726E1
1.178134262E1,1.186386490E1,-9.992078787E-1,2.132586114E0,1.209535574E1
1.179141062E1,1.129546175E1,-9.850205601E-1,2.113235338E0,1.153358076E1
1.180147862E1,9.589236619E0,-7.235034746E-1,2.080895412E0,9.839056963E0
1.181154562E1,8.876921207E0,-6.897998312E-1,2.062839210E0,9.139521843E0
1.182161362E1,8.799735621E0,-7.709765799E-1,2.180518664E0,9.098594042E0
1.183168163E1,8.694972813E0,-7.614589208E-1,2.399269288E0,9.052008894E0
1.184174963E1,8.478832825E0,-7.403455022E-1,2.672501489E0,8.920817325E0
1.185181662E1,7.772392695E0,-9.094110185E-1,3.235660862E0,8.467976017E0
1.186188463E1,5.415136821E0,-1.550976583E0,4.410251881E0,7.153988874E0
1.187195263E1,-3.662797042E0,-3.181190540E0,8.249506781E0,9.570288269E0
1.188202062E1,-5.946846594E1,3.428770129E0,8.776697592E0,6.021034235E1
1.189208763E1,-7.011011776E1,-3.581048289E-1,-5.954117957E0,7.036340222E1
1.190215562E1,-5.584834714E1,-3.303883543E0,-8.255052280E0,5.655174102E1
1.191222362E1,-1.989021153E1,-1.910834992E-1,-2.065390350E0,1.999807153E1
1.192229163E1,-5.031609176E0,3.331506667E-1,-1.299230268E0,5.207310203E0
1.193235862E1,-6.825957692E0,2.082006383E-1,-1.924918596E0,7.095234846E0
1.194242662E1,-7.483586435E0,2.216717461E-1,-1.007914968E0,7.554409101E0
1.195249463E1,-5.450071011E0,2.343335809E-1,-8.785657865E-1,5.525401713E0
1.196256263E1,-3.040961444E0,1.781270926E-1,-1.044623203E0,3.220312625E0
1.197262963E1,2.050560057E-1,-5.210000709E-2,-6.148528522E-1,6.502356543E-1
1.198269763E1,2.942263368E0,-1.732410495E-1,-1.188961136E-1,2.949756341E0
1.199276562E1,5.471265998E0,-1.496412121E-1,4.266105151E-1,5.489912627E0
1.200283362E1,7.568172841E0,-2.028821937E-1,8.061065054E-1,7.613685641E0
1.201290063E1,8.744989895E0,-1.460024167E-2,9.254563630E-1,8.793834824E0
1.202296862E1,9.371267037E0,1.987085608E-1,6.157059610E-1,9.393573591E0
1.203303662E1,9.763445054E0,3.942780438E-1,4.068995512E-1,9.779871254E0
1.204310463E1,1.006837560E1,5.459346815E-1,4.155570117E-1,1.009172530E1
1.205317162E1,1.017680519E1,7.748373502E-1,6.714896408E-1,1.022832514E1
1.206323963E1,1.030863652E1,8.343172744E-1,7.607379591E-1,1.037028420E1
1.207330763E1,1.039070102E1,7.962460533E-1,7.226385252E-1,1.044618983E1
1.208337563E1,1.039691895E1,8.279667597E-1,5.879539791E-1,1.044639375E1
1.209344263E1,1.043956035E1,7.936914048E-1,5.107729983E-1,1.048213983E1
1.210351063E1,1.043827864E1,7.124228548E-1,8.352479319E-1,1.049584901E1
1.211357862E1,1.055346879E1,6.317527673E-1,1.023992618E0,1.062183487E1
1.212364662E1,1.049099246E1,4.573307629E-1,1.204188455E0,1.056977503E1
1.213371362E1,1.047417821E1,5.656331836E-1,1.029415179E0,1.053983139E1
1.214378162E1,1.062001829E1,5.128213145E-1,9.390791329E-1,1.067378302E1
1.215384962E1,1.048448802E1,-2.511640055E-1,8.008392604E-1,1.051802814E1
1.216391763E1,1.070901175E1,-9.158319191E-1,5.749181600E-1,1.076346652E1
1.217398462E1,1.089426674E1,-1.542318611E0,3.776541173E-1,1.100937860E1
1.218405263E1,1.113796115E1,-2.007095657E0,3.232703340E-1,1.132197488E1
1.219412063E1,1.151446102E1,-2.365285563E0,3.593687046E-1,1.176037985E1
1.220418862E1,1.170096148E1,-2.538033071E0,1.556914723E-1,1.197406995E1
1.221425563E1,1.151164968E1,-2.379978154E0,-4.075156650E-2,1.175517057E1
1.222432362E1,1.131573755E1,-2.180704313E0,-1.682208860E-1,1.152517618E1
1.223439162E1,1.117398467E1,-2.012305672E0,-1.944012276E-1,1.135539957E1
1.224445962E1,1.114326106E1,-1.952673428E0,-2.113593225E-1,1.131502865E1
1.225452662E1,1.104757255E1,-1.965142761E0,-3.690797603E-1,1.122705951E1
1.226459462E1,9.559974228E0,-2.020105419E0,-6.423271644E-1,9.792166121E0
1.227466263E1,8.466238507E0,-2.163235610E0,-9.696811938E-1,8.791874907E0
1.228473063E1,8.147985084E0,-2.444215519E0,-1.264756254E0,8.600201091E0
1.229479762E1,7.394405871E0,-3.122022564E0,-1.459449824E0,8.158079239E0
1.230486563E1,6.501688653E0,-3.920898695E0,-1.571902306E0,7.753468823E0
1.231493363E1,4.508683909E0,-4.291841379E0,-1.715280712E0,6.456804235E0
1.232500162E1,-6.950482335E0,-2.052128573E0,-3.823467418E0,8.193859864E0
1.233506863E1,-6.377765805E1,4.634337358E0,-1.870056978E1,6.662415522E1
1.234513662E1,-6.960088141E1,-1.331743009E1,-2.145028843E1,7.403885136E1
1.235520462E1,-5.642690808E1,-6.467960744E0,-7.002388653E0,5.722642675E1
1.236527263E1,-1.268824747E1,-4.124516286E-1,-1.719343357E0,1.281085015E1
1.237533962E1,4.885530526E0,-1.812078005E0,-1.290815978E0,5.368262392E0
1.238540762E1,7.050031766E0,-1.775502209E0,9.458982289E-1,7.331444568E0
1.239547563E1,6.890399271E0,-1.039253705E0,2.554877145E0,7.421930180E0
1.240554363E1,7.402847496E0,-7.550310767E-1,2.786668959E0,7.945926432E0
1.241561063E1,7.275061861E0,-1.770981653E-1,2.357645444E0,7.649600047E0
1.242567863E1,7.489145967E0,1.369417906E-3,1.709886070E0,7.681863027E0
1.243574662E1,7.330225078E0,-2.971504928E-1,1.950526477E0,7.591116627E0
1.244581462E1,7.118747660E0,-6.744020659E-1,2.872228342E0,7.705912149E0
1.245588163E1,7.217921115E0,-5.964794388E-1,3.860239972E0,8.207047313E0
1.246594962E1,8.637456676E0,-1.620304388E-1,6.627482142E0,1.088831627E1
1.247601762E1,1.261177875E1,8.522934426E-2,2.483311318E1,2.785224834E1
1.248608563E1,1.816082266E1,-1.750362544E0,3.873033096E1,4.281258909E1
1.249615262E1,1.291138891E1,-6.745578942E-1,5.986817341E0,1.424784102E1
1.250622063E1,1.071688210E1,1.760290020E-1,-1.636930361E0,1.084260527E1
1.251628863E1,1.067742041E1,5.887087816E-1,-1.657290366E0,1.082129826E1
1.252635662E1,1.050580931E1,8.100925523E-1,-1.892022160E0,1.070551386E1
1.253642363E1,1.051347852E1,8.064511988E-1,-1.535486432E0,1.065557660E1
1.254649163E1,1.082073566E1,6.137366188E-1,-1.010084869E0,1.088509368E1
1.255655962E1,1.108998474E1,3.412987982E-1,-4.030544221E-1,1.110255373E1
1.256662762E1,1.121909828E1,-4.099782564E-2,5.514629681E-2,1.121930872E1
1.257669487E1,1.151269166E1,-4.836273728E-1,1.263817557E-1,1.152353839E1
1.258676287E1,1.174086989E1,-9.430725619E-1,2.016587734E-1,1.178041077E1
1.259683088E1,1.191227868E1,-1.455290992E0,6.539596152E-1,1.201864878E1
1.260689888E1,1.205575766E1,-1.709940888E0,1.095437115E0,1.222559500E1
1.261696588E1,1.201833197E1,-1.457424787E0,1.364911018E0,1.218307730E1
1.262703388E1,1.186834855E1,-1.006173521E0,1.463410728E0,1.200048555E1
1.263710187E1,1.163069899E1,-8.831809938E-1,1.375811251E0,1.174504254E1
1.264716987E1,1.023831089E1,-1.055814043E0,1.217553948E0,1.036437122E1
1.265723688E1,9.330894352E0,-1.085157563E0,1.109801531E0,9.459112844E0
1.266730487E1,9.341086049E0,-9.461193998E-1,1.028409385E0,9.445033423E0
1.267737287E1,9.443279006E0,-8.610833426E-1,9.105587538E-1,9.526074751E0
1.268744088E1,9.398543129E0,-8.394332957E-1,9.921520436E-1,9.487972749E0
1.269750787E1,9.219646981E0,-6.919678326E-1,1.224647863E0,9.326332201E0
1.270757587E1,8.927367475E0,-5.677161080E-1,1.703677497E0,9.106190676E0
1.271764388E1,8.486878009E0,-3.780515818E-1,2.250505596E0,8.788332992E0
1.272771188E1,7.773527055E0,1.018359556E0,2.854561565E0,8.343458563E0
1.273777888E1,-1.324366279E0,8.629227889E0,7.443798471E0,1.147290964E1
1.274784688E1,-5.754364207E1,6.657935611E0,1.162022780E1,5.908154148E1
1.275791487E1,-7.020827146E1,-7.961753020E0,5.951926859E-1,7.066077517E1
1.276798287E1,-4.950303759E1,-3.484495848E0,-5.313558406E0,4.990918097E1
1.277804987E1,-1.328323674E1,1.416888892E-1,-3.407971875E0,1.371417976E1
1.278811787E1,-3.294284461E0,-5.649743485E-1,-8.363196534E-1,3.445422570E0
1.279818587E1,-7.785084077E0,-1.396040279E0,6.526690616E-1,7.936147645E0
1.280825388E1,-9.622430093E0,-1.898946141E0,-1.508412800E-1,9.809174809E0
1.281832087E1,-6.600736393E0,-1.667982292E0,-1.243475313E0,6.920846532E0
1.282838888E1,-4.261995728E0,-1.618258447E0,-1.523991390E0,4.806861528E0
1.283845688E1,-9.878590178E-1,-1.461619433E0,-8.236358732E-1,1.946939357E0
1.284852487E1,2.296960555E0,-1.366088501E0,-2.066260197E-1,2.680470089E0
1.285859188E1,4.809744179E0,-7.603330395E-1,1.239632742E-1,4.871048377E0
1.286865988E1,7.156852210E0,-7.477106550E-1,2.715183824E-1,7.200925428E0
1.287872787E1,8.677466249E0,-5.676710844E-1,4.821087778E-1,8.709368509E0
1.288879587E1,9.419122404E0,-4.720833976E-1,4.673211694E-1,9.442516544E0
1.289886287E1,9.897088430E0,-3.268938170E-1,4.366619154E-1,9.912108382E0
1.290893087E1,1.014665461E1,2.659463514E-2,4.305211695E-1,1.015581880E1
1.291899888E1,1.021110028E1,3.245751402E-1,4.872052109E-1,1.022786815E1
1.292906688E1,1.021704924E1,4.818111179E-1,5.579938694E-1,1.024361236E1
1.293913387E1,1.020668680E1,4.996462951E-1,6.618462666E-1,1.024031945E1
1.294920188E1,1.024386457E1,4.966779926E-1,7.277947462E-1,1.028168933E1
1.295926988E1,1.021628559E1,5.513854194E-1,7.150255966E-1,1.025610934E1
1.296933787E1,1.022458981E1,5.336642629E-1,6.736636356E-1,1.026064603E1
1.297940488E1,1.022945469E1,3.506882206E-1,5.629605675E-1,1.025093411E1
1.298947287E1,1.022423430E1,2.408289787E-1,6.836002477E-1,1.024989146E1
1.299954087E1,1.031704715E1,5.809559584E-2,9.075954580E-1,1.035705395E1
1.300960887E1,1.045711019E1,-2.184847212E-1,9.821101085E-1,1.050540001E1
1.301967587E1,1.067868341E1,-6.822139460E-1,1.063571105E0,1.075317993E1
1.302974387E1,1.109533494E1,-1.269502731E0,1.193794445E0,1.123135076E1
1.303981188E1,1.143837705E1,-1.735106281E0,1.321740733E0,1.164448633E1
1.304987988E1,1.154628859E1,-1.971341687E0,1.276550088E0,1.178272245E1
1.305994688E1,1.145082461E1,-1.888333737E0,1.135826464E0,1.166093008E1
1.307001488E1,1.132216013E1,-1.692045923E0,1.090573401E0,1.149972521E1
1.308008287E1,1.117792804E1,-1.553855314E0,1.117695272E0,1.134062539E1
1.309015087E1,1.105037804E1,-1.405542296E0,1.164180490E0,1.120007680E1
1.310021788E1,1.099092706E1,-1.297958352E0,1.240517206E0,1.113660884E1
1.311028587E1,1.095237052E1,-1.270490326E0,1.362251412E0,1.110964872E1
1.312035387E1,1.070549172E1,-1.473725655E0,1.477522398E0,1.090699284E1
1.313042188E1,8.855454909E0,-1.730426462E0,1.505868530E0,9.147737284E0
1.314048887E1,7.994603847E0,-2.018170575E0,1.334345137E0,8.352675025E0
1.315055687E1,7.428931925E0,-2.655120056E0,1.085378881E0,7.963462775E0
1.316062488E1,5.777273598E0,-3.985192340E0,7.065003562E-1,7.053920255E0
1.317069288E1,2.288944023E0,-6.046754810E0,4.540386343E-1,6.481408763E0
1.318075988E1,-1.002858763E1,-7.429430108E0,4.008938760E0,1.310879825E1
1.319082788E1,-6.353416596E1,2.853160572E0,-9.838073652E0,6.435463047E1
1.320089587E1,-6.960039960E1,-3.904839318E0,-2.344814870E1,7.354780127E1
1.321096387E1,-5.995349949E1,-5.990319824E0,-1.654325827E1,6.248188079E1
1.322103087E1,-2.073950323E1,5.478098470E-1,-5.301760479E0,2.141344797E1
1.323109887E1,1.517333751E0,3.521248814E-1,-1.466673913E-1,1.564546250E0
1.324116687E1,2.749007628E0,-9.535068269E-3,1.027032878E0,2.934609069E0
1.325123488E1,1.521453699E0,2.475924531E-1,1.475441959E0,2.133788264E0
1.326130187E1,8.482421261E-1,2.700928313E-1,1.895561480E0,2.094186755E0
1.327136988E1,2.216898140E0,2.001060453E-1,1.260277287E0,2.557924673E0
1.328143788E1,3.626410988E0,3.018788803E-1,9.107085156E-1,3.751183482E0
1.329150587E1,5.855996416E0,1.686743376E-1,6.788606263E0,8.966957123E0
1.330157288E1,7.889439919E0,-6.055932015E-2,1.592780140E1,1.777475140E1
1.331164088E1,9.321159908E0,1.042871669E0,1.235551166E1,1.551226198E1
1.332170887E1,1.036808165E1,1.934381729E0,4.876667901E0,1.161984680E1
1.333177687E1,1.026639389E1,1.695197865E0,9.601433618E-1,1.044961313E1
1.334184387E1,1.020990277E1,1.290688948E0,-3.316730022E-1,1.029650424E1
1.335191187E1,1.020292120E1,9.234639242E-1,-5.232971495E-1,1.025798355E1
1.336197988E1,1.033849240E1,6.789259104E-1,-6.458147362E-2,1.036096213E1
1.337204788E1,1.070599224E1,6.878020569E-1,4.549899397E-1,1.073770727E1
1.338211487E1,1.091544652E1,6.033883627E-1,5.843999684E-1,1.094772002E1
1.339218288E1,1.070670677E1,2.217015669E-2,2.086824489E-1,1.070876322E1
1.340225088E1,1.046425665E1,-9.343140176E-1,-2.536756952E-2,1.050591517E1
1.341231887E1,1.027650139E1,-2.129462385E0,8.847303232E-2,1.049518548E1
1.342238588E1,1.027417069E1,-3.460061503E0,2.603613285E-1,1.084427946E1
1.343245387E1,1.091472849E1,-4.827079127E0,5.549405265E-1,1.194738255E1
1.344252187E1,1.153931637E1,-5.664038174E0,6.223495674E-1,1.286951707E1
1.345258987E1,1.126136079E1,-5.440921873E0,6.814719343E-1,1.252542540E1
1.346265687E1,1.077902864E1,-5.064127881E0,7.733749616E-1,1.193444421E1
1.347272487E1,1.027777374E1,-5.017493412E0,7.863686442E-1,1.146412879E1
1.348279288E1,9.901532314E0,-5.307518817E0,8.821378505E-1,1.126890702E1
1.349286088E1,9.522563158E0,-5.560179344E0,1.089289425E0,1.108067484E1
1.350292788E1,9.166277105E0,-5.742245852E0,1.235405570E0,1.088670062E1
1.351299588E1,8.822879485E0,-5.905251607E0,1.285085853E0,1.069423418E1
1.352306387E1,8.592161804E0,-6.107546557E0,1.404683779E0,1.063487216E1
1.353313187E1,8.441049287E0,-6.273683496E0,1.513108699E0,1.062543720E1
1.354319888E1,8.229184198E0,-6.250609213E0,1.515346867E0,1.044441785E1
1.355326687E1,7.839071419E0,-6.010299760E0,1.541937665E0,9.997615499E0
1.356333487E1,7.431036338E0,-5.713289271E0,1.565302992E0,9.503270427E0
1.357340288E1,7.465606831E0,-5.034428118E0,1.552676661E0,9.137371430E0
1.358346987E1,7.578611875E0,-2.280888898E0,1.376250962E0,8.033173646E0
1.359353788E1,-1.895784259E-1,2.856554764E1,1.875737080E0,2.862769361E1
1.360360588E1,-2.521436334E1,5.924957425E1,-9.466382525E0,6.508370430E1
1.361367388E1,-5.456707718E1,3.580656876E1,-1.504816382E1,6.697853024E1
1.362374088E1,-7.006670803E1,7.819924711E0,1.197272369E0,7.051190153E1
1.363380888E1,-6.229756405E1,3.809517423E0,6.163558205E0,6.271752832E1
1.364387687E1,-3.036541651E1,4.406766940E0,4.791088053E0,3.105531580E1
1.365394487E1,-9.107108545E0,3.702518932E0,3.615024997E0,1.047456339E1
1.366401187E1,1.645289540E-1,1.850310170E0,1.759475137E0,2.558607094E0
1.367407987E1,1.598193142E0,9.875274807E-1,5.451220281E-1,1.956167137E0
1.368414787E1,2.079668666E0,-5.190573335E-3,-1.031510822E0,2.321435607E0
1.369421487E1,3.369793065E0,-1.769317463E0,-6.365843216E-1,3.858915545E0
1.370428287E1,3.496180047E0,-2.157318813E0,9.410508871E-2,4.109276718E0
1.371435088E1,4.177364883E0,-2.263490801E0,-1.994134426E-1,4.755368933E0
1.372441888E1,5.877433478E0,-2.786063188E0,-6.289545822E-1,6.534673385E0
1.373448687E1,7.413291208E0,-3.222136837E0,-8.859297699E-1,8.131661816E0
1.374455388E1,8.334525881E0,-3.279003055E0,-9.629501715E-1,9.007966238E0
1.375462188E1,9.133707529E0,-3.320036476E0,-1.170529105E0,9.788635953E0
1.376468987E1,9.718111591E0,-3.470316350E0,-1.341918158E0,1.040603348E1
1.377475787E1,9.981243896E0,-3.467340117E0,-1.348726510E0,1.065207681E1
1.378482487E1,1.014849531E1,-3.422260424E0,-1.048483681E0,1.076118681E1
1.379489287E1,1.032121973E1,-3.443805074E0,-5.854688394E-1,1.089633625E1
1.380496088E1,1.041919333E1,-3.558796125E0,-1.566697115E-1,1.101131986E1
1.381502888E1,1.068027853E1,-3.674563978E0,3.910816634E-1,1.130149170E1
1.382509587E1,1.099439329E1,-3.967283195E0,9.057459837E-1,1.172332698E1
1.383516388E1,1.115946721E1,-4.374400555E0,1.283471437E0,1.205472469E1
1.384523188E1,1.143842266E1,-4.751571108E0,1.613178971E0,1.249068803E1
1.385529888E1,1.179878773E1,-5.267604554E0,1.970409933E0,1.307063751E1
1.386536688E1,1.190810961E1,-5.611401538E0,2.345181373E0,1.337126686E1
1.387543487E1,1.170152515E1,-5.448009868E0,2.368972524E0,1.312320590E1
1.388550287E1,1.131135214E1,-4.904254772E0,2.286241293E0,1.253895137E1
1.389556987E1,1.096239733E1,-4.511663943E0,2.157308142E0,1.204920102E1
1.390563787E1,1.090905669E1,-4.662131220E0,2.180322636E0,1.206220511E1
1.391570587E1,1.084419469E1,-4.943208046E0,2.119970161E0,1.210479813E1
1.392577388E1,1.075760094E1,-5.081447918E0,2.032861851E0,1.206978120E1
1.393584087E1,1.073155744E1,-4.972501427E0,2.036900961E0,1.200171075E1
1.394590888E1,1.091171132E1,-4.855565008E0,2.082261322E0,1.212343878E1
1.395597688E1,1.101747576E1,-4.764645774E0,2.079238457E0,1.218235831E1
1.396604487E1,1.099476284E1,-4.607324683E0,2.031039712E0,1.209286454E1
1.397611188E1,1.052161316E1,-4.494153871E0,1.972251660E0,1.160997585E1
1.398617988E1,8.335087799E0,-4.017052648E0,1.655773452E0,9.399573731E0
1.399624787E1,7.393311857E0,-3.938494429E0,1.454904052E0,8.502325822E0
1.400631587E1,7.266679292E0,-3.891199518E0,1.600853040E0,8.396951356E0
1.401638287E1,6.695316861E0,-3.257254337E0,2.102064672E0,7.736643301E0
1.402645087E1,5.314733697E0,-5.539731047E-1,2.073787537E0,5.731830006E0
1.403651888E1,-1.127018190E1,1.943574137E1,3.345545831E0,2.271470272E1
1.404658688E1,-5.742804028E1,2.127116482E1,1.811666214E0,6.126764560E1
1.405665387E1,-7.032421941E1,-1.638675755E0,1.813823486E1,7.264417841E1
1.406672188E1,-6.226483367E1,-2.284430849E0,1.295867534E1,6.364004560E1
1.407678988E1,-2.133346340E1,9.898573038E-1,1.125263323E0,2.138603973E1
1.408685787E1,3.190369499E-1,1.845052354E0,-9.016605341E-1,2.078219065E0
1.409692488E1,2.585553977E0,-9.083386391E-2,-9.142951977E-1,2.743952599E0
1.410699287E1,4.178432000E-1,6.192479119E-1,1.324552220E-1,7.586865637E-1
1.411706087E1,-8.301327145E-1,8.216659462E-1,9.229245186E-3,1.168049840E0
1.412712887E1,1.374095678E-3,3.246823635E-1,-7.939905629E-1,8.578120653E-1
1.413719587E1,2.754779415E0,-4.033114804E-1,-9.752109788E-1,2.950001055E0
1.414726387E1,4.477803594E0,-7.090854833E-1,-3.206748281E-1,4.544926797E0
1.415733188E1,5.584744667E0,-6.552340890E-1,2.585094240E-1,5.628990303E0
1.416739988E1,6.892316573E0,-6.613505689E-1,3.927603259E-1,6.935104396E0
1.417746688E1,8.114362425E0,-4.426415339E-1,3.229709566E-1,8.132842020E0
1.418753488E1,9.251785033E0,-2.139990297E-1,8.855140328E-2,9.254683313E0
1.419760287E1,1.020531388E1,-9.995310836E-2,-1.517205551E-1,1.020693103E1
1.420767087E1,1.050235009E1,-1.004782614E-1,-2.418420088E-1,1.050561473E1
1.421773788E1,1.040762988E1,-1.486745211E-1,-2.890015572E-1,1.041270309E1
1.422780587E1,1.039418830E1,-2.913192473E-1,-4.381546730E-1,1.040749714E1
1.423787387E1,1.035194100E1,-4.071009146E-1,-5.989039868E-1,1.037723950E1
1.424794188E1,1.032717219E1,-5.338154865E-1,-7.708998352E-1,1.036965433E1
1.425800887E1,1.042681459E1,-5.924308267E-1,-9.839267653E-1,1.048987839E1
1.426807687E1,1.041330519E1,-6.635187896E-1,-1.003556453E0,1.048257161E1
1.427814488E1,1.027683468E1,-8.257306382E-1,-4.672580194E-1,1.032053740E1
1.428821288E1,1.025791543E1,-9.234216781E-1,-1.136230946E-2,1.029940123E1
1.429827988E1,1.029623457E1,-1.020596116E0,3.111326838E-1,1.035137027E1
1.430834788E1,1.032231432E1,-1.253721389E0,4.742735088E-1,1.040898293E1
1.431841587E1,1.028874546E1,-1.448119967E0,4.307573605E-1,1.039908104E1
1.432848387E1,1.032592323E1,-1.658376047E0,3.161343920E-1,1.046302263E1
1.433855087E1,1.051022045E1,-2.032136212E0,2.914638563E-1,1.070884039E1
1.434861887E1,1.075814005E1,-2.649913110E0,3.621590324E-1,1.108561122E1
1.435868687E1,1.115421641E1,-3.255923510E0,3.509803255E-1,1.162500618E1
1.436875488E1,1.129189962E1,-3.514683268E0,3.138761608E-1,1.183040633E1
1.437882187E1,1.121578174E1,-3.522944799E0,3.385187030E-1,1.176093087E1
1.438888988E1,1.115851879E1,-3.480244922E0,2.653524935E-1,1.169166619E1
1.439895788E1,1.107461241E1,-3.440872111E0,1.518837472E-1,1.159783211E1
1.440902587E1,1.099897049E1,-3.366264563E0,9.336833954E-2,1.150294774E1
1.441909288E1,1.000873867E1,-3.415905670E0,1.686781383E-1,1.057694255E1
1.442916088E1,8.551821279E0,-3.553844410E0,1.943591094E-1,9.262895484E0
1.443922887E1,8.393791505E0,-3.767640834E0,2.254768217E-1,9.203352274E0
1.444929687E1,8.063168882E0,-3.925284399E0,2.152933109E-1,8.970445989E0
1.445936387E1,6.161089511E0,-3.031254189E0,5.737007332E-1,6.890330794E0
1.446943187E1,-1.265418627E1,1.433429013E1,-9.797448367E-1,1.914576202E1
1.447949988E1,-6.124586513E1,1.037952816E1,-4.266187597E0,6.226548769E1
1.448956788E1,-6.997635685E1,-1.024713784E1,-1.201106388E0,7.073285664E1
1.449963487E1,-5.771925968E1,-5.758642030E0,-1.799635861E0,5.803372800E1
1.450970288E1,-1.559805119E1,1.762912423E0,2.392479501E0,1.587863405E1
1.451977088E1,1.546923001E0,1.734859821E0,-1.890970246E0,2.996410826E0
1.452983788E1,6.019329030E0,-6.048089437E-2,-2.953764841E0,6.705274539E0
1.453990588E1,5.115117940E0,-2.935247440E-2,-5.857829811E-1,5.148634267E0
1.454997387E1,3.287840829E0,2.150749174E-1,9.476646727E-1,3.428443214E0
1.456004187E1,3.174113654E0,1.114300781E-1,1.048796799E-1,3.177800167E0
1.457010888E1,3.452438196E0,2.290210932E-1,6.381234549E-2,3.460614421E0
1.458017638E1,4.093327530E0,3.226677784E-1,7.794548965E-1,4.179353383E0
1.459024437E1,5.135139391E0,-1.231014311E-1,1.692613980E0,5.408304043E0
1.460031237E1,6.630902179E0,-3.180113482E-1,1.847545899E0,6.890821488E0
1.461037937E1,7.934795017E0,-1.840118949E-1,1.706288279E0,8.118266565E0
1.462044737E1,8.994028072E0,6.677576920E-2,2.192143368E0,9.257564070E0
1.463051537E1,1.028682406E1,5.128452516E-1,3.630919776E0,1.092086709E1
1.464058338E1,1.163278996E1,1.972879614E-1,6.349454055E0,1.325429332E1
1.465065037E1,1.235114496E1,-3.079707653E-1,7.287618756E0,1.434416310E1
1.466071838E1,1.249839422E1,-3.721550668E-1,6.310653686E0,1.400616676E1
1.467078638E1,1.220599836E1,-3.173166990E-1,4.383405560E0,1.297310025E1
1.468085437E1,1.162734971E1,-1.454258081E-1,1.866492632E0,1.177710510E1
1.469092138E1,1.105501372E1,-1.199103497E-1,6.158708525E-1,1.107280469E1
1.470098937E1,1.081454931E1,-1.502883527E-1,4.565622926E-1,1.082522575E1
1.471105737E1,1.072063367E1,-1.307405260E-1,3.814349270E-1,1.072821383E1
1.472112537E1,1.071953907E1,-5.853090642E-1,5.815406799E-1,1.075124617E1
1.473119237E1,1.085683287E1,-1.265447833E0,8.402074671E-1,1.096257847E1
1.474126037E1,1.117266437E1,-2.239672168E0,8.567375457E-1,1.142709761E1
1.475132838E1,1.216156770E1,-3.375521290E0,7.935513639E-1,1.264624833E1
1.476139638E1,1.346406773E1,-3.918576474E0,8.872202504E-1,1.405074807E1
1.477146338E1,1.355062874E1,-3.685659362E0,1.074110126E0,1.408393897E1
1.478153138E1,1.306378138E1,-3.070489883E0,1.012626727E0,1.345792350E1
1.479159938E1,1.274045375E1,-2.630820489E0,8.687910692E-1,1.303821982E1
1.480166737E1,1.246690930E1,-2.454283985E0,8.135490607E-1,1.273221110E1
1.481173438E1,1.239130481E1,-2.429055296E0,9.419654647E-1,1.266222900E1
1.482180237E1,1.194284091E1,-2.524028697E0,1.098073186E0,1.225593466E1
1.483187037E1,9.923048898E0,-2.140833465E0,8.731554309E-1,1.018884035E1
1.484193838E1,8.871616028E0,-1.946606503E0,8.287668049E-1,9.120400333E0
1.485200537E1,9.009965243E0,-1.842792113E0,9.762580689E-1,9.248158534E0
1.486207337E1,8.908133644E0,-1.664532727E0,1.202981590E0,9.141809390E0
1.487214138E1,7.932453207E0,-1.376331069E0,1.684707960E0,8.225347531E0
1.488220938E1,4.072247148E0,1.535319201E0,3.499213582E0,5.584343970E0
1.489227638E1,-1.736217720E1,1.373190646E1,8.934416878E0,2.387120142E1
1.490234438E1,-6.381609063E1,5.606119748E0,1.201560834E1,6.517896015E1
1.491241237E1,-6.937594604E1,-9.124567162E0,7.129808838E0,7.033572200E1
1.492248037E1,-4.497589402E1,-4.697072427E0,-1.507042797E0,4.524560432E1
1.493254737E1,-1.057227578E1,-1.506827474E-1,-1.057252165E0,1.062607654E1
1.494261537E1,-2.924566185E0,-1.074340799E0,-1.728319564E0,3.562917911E0
1.495268337E1,-5.119752443E0,-1.254848147E0,-5.076249305E-1,5.295676730E0
1.496275138E1,-6.477133271E0,-1.673762557E0,-1.222515456E0,6.800682359E0
1.497281837E1,-3.388049827E0,-2.334266961E0,-2.152600987E0,4.643422755E0
1.498288638E1,-1.315413022E0,-2.111384256E0,-1.534268603E0,2.922710222E0
1.499295438E1,6.831775671E-1,-1.871390552E0,-5.154022390E-1,2.057783675E0
1.500302237E1,2.511142895E0,-1.714961746E0,-9.470925227E-2,3.042351438E0
1.501308938E1,4.414833174E0,-1.115818316E0,3.165203083E-1,4.564645394E0
1.502315738E1,7.139228117E0,-6.292484048E-1,5.866727811E-1,7.190877319E0
1.503322537E1,9.174963144E0,-1.450144565E-1,6.349719518E-1,9.198052363E0
1.504329337E1,1.020578867E1,1.349929136E-1,5.449236614E-1,1.022121751E1
1.505336037E1,1.044491173E1,3.643207115E-1,2.636257925E-1,1.045458794E1
1.506342837E1,1.041129257E1,4.828075200E-1,-1.270250042E-2,1.042248903E1
1.507349638E1,1.038732835E1,4.488422137E-1,-2.483961529E-1,1.039998799E1
1.508356438E1,1.039713296E1,3.644102104E-1,-3.547435570E-1,1.040956346E1
1.509363137E1,1.030407569E1,2.972849787E-1,-4.578755772E-1,1.031852723E1
1.510369938E1,1.017780273E1,3.773810524E-1,-7.100589716E-1,1.020951853E1
1.511376738E1,1.020714172E1,1.298639553E-1,-3.595581178E-1,1.021429825E1
1.512383537E1,1.037503282E1,-3.323213122E-1,6.083479710E-3,1.038035551E1
1.513390238E1,1.046626576E1,-7.963320804E-1,5.614496835E-1,1.051152175E1
1.514397037E1,1.047728191E1,-1.178777626E0,1.175739485E0,1.060873773E1
1.515403837E1,1.061196434E1,-1.472057737E0,1.415863509E0,1.080672987E1
1.516410538E1,1.085119849E1,-1.969442804E0,1.429662938E0,1.112075311E1
1.517417337E1,1.130270528E1,-2.627313329E0,1.400064332E0,1.168820354E1
1.518424137E1,1.189702563E1,-3.306270961E0,1.302676909E0,1.241642516E1
1.519430938E1,1.219789294E1,-3.667278348E0,1.353347418E0,1.280894500E1
1.520437637E1,1.201244382E1,-3.562016187E0,1.310401958E0,1.259777437E1
1.521444438E1,1.166252422E1,-3.212542725E0,1.195049257E0,1.215578235E1
1.522451238E1,1.143879805E1,-3.089055378E0,1.272293315E0,1.191667295E1
1.523458037E1,1.144161056E1,-3.307285453E0,1.199854499E0,1.197030660E1
1.524464738E1,1.142711532E1,-3.627420510E0,1.080562017E0,1.203763923E1
1.525471538E1,1.144151818E1,-3.917812827E0,1.191277876E0,1.215223183E1
1.526478337E1,1.134991570E1,-4.050863588E0,1.479165320E0,1.214158195E1
1.527485137E1,1.018818855E1,-3.896400616E0,1.704077446E0,1.104015415E1
1.528491837E1,8.172142856E0,-3.587247215E0,1.595824581E0,9.066361868E0
1.529498637E1,8.124241295E0,-3.621663341E0,1.633811456E0,9.043731633E0
1.530505437E1,7.787624107E0,-3.701654421E0,1.978882549E0,8.846768383E0
1.531512238E1,5.274639924E0,-4.067003073E0,2.701640503E0,7.187572728E0
1.532518937E1,-2.822410065E0,3.569137511E0,3.378024191E0,5.667079369E0
1.533525738E1,-3.733427080E1,2.066439224E1,1.602967393E0,4.270169068E1
1.534532538E1,-6.925600327E1,-1.142497991E0,5.202647835E0,6.946054157E1
1.535539337E1,-6.847637764E1,-7.768117211E0,9.875972965E0,6.961962928E1
1.536546038E1,-4.034053019E1,-6.722673936E-1,2.815478191E0,4.044424850E1
1.537552837E1,-4.197931879E0,2.702653241E0,-3.340449983E-1,5.003853781E0
1.538559637E1,1.835622842E0,3.953582804E-1,-1.961205831E0,2.715169921E0
1.539566437E1,1.759457595E0,-6.316986805E-1,-1.318646094E0,2.287697920E0
1.540573137E1,5.757665545E-1,2.939284029E-1,-2.711225990E-1,7.010053459E-1
1.541579937E1,8.550354213E-1,8.893498063E-1,-4.560331196E-1,1.315292688E0
1.542586738E1,2.144253502E0,3.500608143E-1,-6.037185842E-1,2.254959375E0
1.543593538E1,3.326396200E0,-7.315802336E-2,-3.625238621E-1,3.346892189E0
1.544600237E1,4.508576320E0,-6.520260324E-2,1.388274811E-1,4.511184422E0
1.545607038E1,5.850650307E0,1.362983045E-1,5.189766419E-1,5.875204081E0
1.546613838E1,7.427474214E0,3.267470884E-1,8.306057543E-1,7.480911895E0
1.547620637E1,9.107448853E0,3.782552111E-1,8.391935599E-1,9.153848778E0
1.548627338E1,1.027446773E1,5.548037016E-1,6.518288898E-1,1.031006184E1
1.549634137E1,1.049362371E1,5.957046828E-1,4.845236778E-1,1.052168075E1
1.550640937E1,1.030372018E1,5.768298706E-1,3.570157850E-1,1.032602743E1
1.551647738E1,1.021162419E1,6.636636543E-1,2.853452933E-1,1.023714511E1
1.552654437E1,1.009780463E1,6.861026368E-1,2.699285245E-1,1.012468551E1
1.553661237E1,9.996601024E0,6.724873951E-1,-2.346253753E-2,1.001922262E1
1.554668038E1,9.923178706E0,7.820311797E-1,-5.429572427E-1,9.968743701E0
1.555674838E1,1.016357645E1,5.934999901E-1,-1.241106606E-1,1.018164682E1
1.556681538E1,1.035246257E1,3.081957004E-1,3.701146444E-1,1.036366010E1
1.557688338E1,1.033462622E1,9.740956955E-2,9.148519257E-1,1.037549718E1
1.558695175E1,1.029782502E1,-3.061606501E-1,1.270085406E0,1.038036856E1
1.559701975E1,1.030669056E1,-6.966913596E-1,1.504120359E0,1.043913920E1
1.560708675E1,1.030092755E1,-9.969742423E-1,1.463316149E0,1.045200269E1
1.561715475E1,1.041016874E1,-1.665889281E0,1.656579344E0,1.067197523E1
1.562722275E1,1.076482108E1,-2.824358065E0,1.738888114E0,1.126419563E1
1.563729075E1,1.142503137E1,-3.947225199E0,1.754410279E0,1.221433109E1
1.564735775E1,1.170382427E1,-4.350772249E0,1.830997256E0,1.261987610E1
1.565742575E1,1.154228909E1,-4.376571919E0,1.962403926E0,1.249919391E1
1.566749375E1,1.124508448E1,-4.256857780E0,2.125678944E0,1.221029377E1
1.567756075E1,1.093840152E1,-4.153265291E0,2.230001604E0,1.191096754E1
1.568762875E1,1.080733385E1,-4.220345426E0,2.168764884E0,1.180310643E1
1.569769675E1,1.046807956E1,-4.226970029E0,2.165263717E0,1.149505687E1
1.570776475E1,9.657344402E0,-4.050635254E0,2.220280315E0,1.070521329E1
1.571783175E1,8.092212002E0,-4.008740831E0,2.166275285E0,9.286907276E0
1.572789975E1,7.766507472E0,-4.135014085E0,2.304706947E0,9.095529336E0
1.573796775E1,7.717914771E0,-3.593372173E0,2.490925562E0,8.870357498E0
1.574803575E1,6.949716935E0,6.810541508E-1,2.282473494E0,7.346569640E0
1.575810275E1,-8.989563138E0,2.727776622E1,-2.136452001E-2,2.872088494E1
1.576817075E1,-5.351263241E1,2.564609367E1,-6.511603777E0,5.969694240E1
1.577823875E1,-7.034367894E1,-3.600327728E0,6.718372432E0,7.075543834E1
1.578830675E1,-6.837902852E1,-2.293243480E0,1.318530874E1,6.967641547E1
1.579837375E1,-4.334617679E1,2.603161113E0,7.538522195E0,4.407376551E1
1.580844175E1,-4.000552098E0,1.184256905E0,-4.288238324E-1,4.194135356E0
1.581850975E1,1.732322422E0,5.799694235E-1,-1.677631952E0,2.480273064E0
1.582857775E1,2.234381899E0,2.205309543E-1,-1.584375587E0,2.747970592E0
1.583864475E1,1.927490201E0,1.651271242E-1,-1.565124214E0,2.488392904E0
1.584871275E1,2.764713249E0,-1.351882837E-1,-1.180172040E0,3.009106390E0
1.585878075E1,4.436079617E0,-5.216210452E-1,-6.845218420E-1,4.518789776E0
1.586884875E1,5.984475532E0,-7.993111637E-1,-1.187265444E-1,6.038786444E0
1.587891575E1,6.931502858E0,-8.020649099E-1,2.735408612E-1,6.983112815E0
1.588898375E1,7.897364066E0,-7.988671408E-1,5.052169375E-1,7.953728185E0
1.589905175E1,8.985439682E0,-8.815776873E-1,4.161872685E-1,9.038170022E0
1.590911975E1,9.984300821E0,-8.257171896E-1,2.173550391E-1,1.002074423E1
1.591918675E1,1.061980195E1,-6.278793523E-1,5.070584815E-2,1.063846779E1
1.592925475E1,1.040621719E1,-4.191064909E-1,3.971136510E-2,1.041472916E1
1.593932275E1,1.024644319E1,-3.908896554E-1,2.345784148E-2,1.025392330E1
1.594939075E1,1.016436232E1,-5.134035876E-1,-5.225070080E-2,1.017745424E1
1.595945775E1,1.010739524E1,-6.178705271E-1,-1.165882268E-1,1.012693415E1
1.596952575E1,1.013005320E1,-6.870733476E-1,-2.654670990E-1,1.015679675E1
1.597959375E1,1.026887311E1,-8.824771352E-1,-2.615681756E-1,1.031004068E1
1.598966175E1,1.041039912E1,-1.305313565E0,1.319061867E-1,1.049274285E1
1.599972875E1,1.041971724E1,-1.570332621E0,4.864333785E-1,1.054860509E1
1.600979675E1,1.050944043E1,-1.735959097E0,8.671619618E-1,1.068708856E1
1.601986475E1,1.064556595E1,-1.984791014E0,1.138958087E0,1.088874167E1
1.602993275E1,1.097733696E1,-2.386719555E0,1.300849947E0,1.130887119E1
1.603999975E1,1.170197889E1,-2.824100787E0,1.058726102E0,1.208440136E1
1.605006775E1,1.225769476E1,-2.999569882E0,7.366836834E-1,1.264085452E1
1.606013575E1,1.225193993E1,-3.216075613E0,6.345000815E-1,1.268289260E1
1.607020275E1,1.182757708E1,-3.163788056E0,3.618958712E-1,1.224875925E1
1.608027075E1,1.145262555E1,-2.934036043E0,-2.821046750E-2,1.182252068E1
1.609033875E1,1.112011428E1,-2.740996358E0,-3.447202599E-1,1.145813399E1
1.610040675E1,1.083272129E1,-2.623486911E0,-5.301921862E-1,1.115847829E1
1.611047375E1,1.057827034E1,-2.570223747E0,-6.252866238E-1,1.090398262E1
1.612054175E1,1.041437523E1,-2.582427763E0,-6.091998007E-1,1.074705862E1
1.613060975E1,1.029883425E1,-2.565426691E0,-4.705768991E-1,1.062397494E1
1.614067775E1,9.331545732E0,-2.695384567E0,-2.131251633E-1,9.715362374E0
1.615074475E1,9.024136555E0,-2.797949408E0,3.077331126E-2,9.447989651E0
1.616081275E1,8.690897303E0,-3.040904726E0,1.038447958E-1,9.208125826E0
1.617088075E1,7.592407211E0,-3.749644566E0,7.794225175E-2,8.468208584E0
1.618094875E1,4.402489702E0,-4.126400844E0,5.049696003E-1,6.055088257E0
1.619101575E1,-1.299847500E1,7.033054960E0,2.100626841E0,1.492772078E1
1.620108375E1,-6.366641594E1,1.456927335E1,4.438073518E0,6.546275843E1
1.621115175E1,-6.973750043E1,-5.091853623E0,5.290398754E0,7.012299380E1
1.622121975E1,-5.262085250E1,-5.079960387E0,2.930839663E0,5.294667068E1
1.623128675E1,-1.176777176E1,1.622253850E0,3.595831512E-1,1.188450503E1
1.624135475E1,2.196646893E0,6.387058376E-1,-2.436668079E0,3.342237880E0
1.625142275E1,5.028410749E0,1.340578269E0,-2.511852162E0,5.778534939E0
1.626149075E1,5.288317146E0,1.712999128E0,-1.003878561E0,5.648755298E0
1.627155775E1,4.836634939E0,1.323521064E0,-1.447595179E-1,5.016542720E0
1.628162575E1,4.842051215E0,6.293921001E-1,-2.876117472E-2,4.882870221E0
1.629169375E1,5.317427509E0,3.596768528E-2,2.776111811E-1,5.324790790E0
1.630176175E1,6.050198820E0,-6.839930344E-2,8.118619198E-1,6.104809907E0
1.631182875E1,7.361018270E0,-1.867615297E-1,1.262466484E0,7.470829369E0
1.632189675E1,8.550496300E0,-5.965826422E-2,1.453995541E0,8.673445055E0
1.633196475E1,9.464762846E0,2.342973099E-1,1.428792872E0,9.574867103E0
1.634203275E1,9.962441590E0,5.394725946E-1,1.487141068E0,1.008726235E1
1.635209975E1,1.008355965E1,7.747551969E-1,1.842600324E0,1.027976637E1
1.636216775E1,1.027310533E1,9.113341677E-1,2.068633801E0,1.051886253E1
1.637223575E1,1.039199559E1,8.695227751E-1,2.310533112E0,1.068120806E1
1.638230375E1,1.042503821E1,7.014626876E-1,2.116382164E0,1.066079477E1
1.639237075E1,1.033218209E1,7.468318185E-1,1.583124282E0,1.047940966E1
1.640243875E1,1.050420600E1,7.850112862E-1,1.296510143E0,1.061298850E1
1.641250675E1,1.080878045E1,5.708134512E-1,1.170412599E0,1.088693843E1
1.642257475E1,1.094903761E1,2.520988291E-1,1.086376415E0,1.100568908E1
1.643264175E1,1.089401063E1,-2.019798587E-1,1.077807906E0,1.094906085E1
1.644270975E1,1.086813904E1,-8.371733469E-1,1.168258485E0,1.096276121E1
1.645277775E1,1.093399389E1,-1.649485064E0,1.291170466E0,1.113284081E1
1.646284575E1,1.179015139E1,-2.691551133E0,1.381783597E0,1.217215853E1
1.647291275E1,1.278868860E1,-3.367486923E0,1.475417401E0,1.330666678E1
1.648298075E1,1.284106796E1,-3.413712964E0,1.629679667E0,1.338664701E1
1.649304875E1,1.239661174E1,-3.096540691E0,1.601769884E0,1.287750805E1
1.650311575E1,1.203044857E1,-2.875187618E0,1.602057567E0,1.247256930E1
1.651318375E1,1.180673995E1,-2.864981303E0,1.707876967E0,1.226882512E1
1.652325175E1,1.169117090E1,-2.902063468E0,1.923707199E0,1.219861052E1
1.653331975E1,1.160936835E1,-2.915703268E0,2.106256102E0,1.215380902E1
1.654338675E1,1.148741648E1,-2.920877761E0,2.241209547E0,1.206297163E1
1.655345475E1,9.697042319E0,-2.516535490E0,2.214591852E0,1.026011684E1
1.656352275E1,8.496330618E0,-2.244534127E0,2.328534497E0,9.091074761E0
1.657359075E1,8.560869845E0,-2.252978676E0,2.621564054E0,9.232388830E0
1.658365750E1,8.169343793E0,-2.180950335E0,2.813132873E0,8.911141281E0
1.659372550E1,6.858771681E0,-7.599118938E-1,2.923982048E0,7.494657169E0
1.660379350E1,-1.950567992E0,9.912756629E0,5.283130081E0,1.140082992E1
1.661386150E1,-3.668767867E1,1.370694938E1,4.725903293E0,3.944870580E1
1.662392850E1,-6.942517960E1,9.284372735E-1,4.778050516E0,6.959559846E1
1.663399650E1,-6.353664050E1,-2.727651842E0,1.117218139E0,6.360497580E1
1.664406450E1,-2.536406141E1,8.426217824E-1,-1.000165214E0,2.539775489E1
1.665413250E1,-4.529483040E0,1.278329688E0,-2.090850881E0,5.149951535E0
1.666419950E1,-4.365760417E0,1.802015385E-1,-1.307485952E0,4.560905187E0
1.667426750E1,-6.830127926E0,-1.248164378E-1,-4.848932949E-1,6.848455894E0
1.668433550E1,-4.158847336E0,-4.811697515E-1,-6.835273037E-1,4.242021342E0
1.669440350E1,-1.756342784E0,-6.949553213E-1,-1.028974957E0,2.150928250E0
1.670447050E1,-1.554301018E-1,-7.780372390E-1,-7.504971457E-1,1.092129309E0
1.671453850E1,1.496042869E0,-8.175167620E-1,-3.303110395E-3,1.704842759E0
1.672460650E1,3.431223328E0,-8.071347383E-1,3.278147900E-1,3.540087930E0
1.673467450E1,5.606509758E0,-8.549632081E-1,4.828431880E-1,5.691840765E0
1.674474150E1,7.556460283E0,-6.289417914E-1,7.125627494E-1,7.615996682E0
1.675480950E1,9.129061332E0,-4.205396435E-1,7.943921936E-1,9.173204094E0
1.676487750E1,1.021056468E1,-2.935705715E-1,7.624126017E-1,1.024319714E1
