"Time (s)","Linear Acceleration x (m/s^2)","Linear Acceleration y (m/s^2)","Linear Acceleration z (m/s^2)","Absolute acceleration (m/s^2)"
5.457083462E-4,-6.322798938E0,-2.393744838E1,1.979387748E0,2.483741527E1
1.061270834E-2,1.674749421E0,-1.994009997E1,1.086758823E0,2.003979584E1
2.068070835E-2,7.473163773E0,-1.800171407E1,-1.429022083E0,1.954359205E1
3.074770834E-2,1.068787523E1,-1.570709357E1,-2.667817869E0,1.918490859E1
4.081570834E-2,1.036457332E1,-1.163366236E1,-2.578674728E0,1.579291118E1
5.088270834E-2,5.634594519E0,-8.400884178E0,-2.350474273E0,1.038500071E1
6.095070834E-2,1.756972090E-1,-6.516552275E0,-8.971008023E-1,6.580358115E0
7.101770834E-2,-4.181667849E0,-4.333655695E0,-5.859947965E-2,6.022487159E0
8.108570834E-2,-6.983222065E0,-1.091855257E0,-3.246339047E-1,7.075515916E0
9.115270834E-2,-8.495779810E0,1.995367604E0,4.358210492E-1,8.737831907E0
1.012207083E-1,-8.034768956E0,4.085585232E0,1.791005516E0,9.190060915E0
1.112877083E-1,-6.358888537E0,5.324075208E0,2.967376574E0,8.808323563E0
1.213557083E-1,-4.862193704E0,6.282252005E0,3.349018493E0,8.621110296E0
1.314227083E-1,-4.093807002E0,7.383544083E0,2.551909683E0,8.819763150E0
1.414907083E-1,-3.223833991E0,8.762141533E0,4.671644640E-1,9.348073196E0
1.515577083E-1,-1.744091113E0,9.550788252E0,-1.962603900E0,9.905111010E0
1.616257083E-1,-1.347441584E0,1.218393681E1,-1.998993462E0,1.242014049E1
1.716927083E-1,-5.834649986E0,2.319062329E1,-8.872915864E-1,2.392980224E1
1.817607083E-1,-4.689559339E0,1.632295858E1,-3.584097612E-1,1.698703626E1
1.918277083E-1,-3.364974375E0,1.287426611E1,2.805224915E-1,1.330971349E1
2.018957083E-1,-3.325332884E0,1.474988683E1,5.649451125E-1,1.513063658E1
2.119627083E-1,-2.627217727E0,1.580131911E1,7.576447821E-1,1.603614618E1
2.220307083E-1,-1.351062180E0,1.532482951E1,1.375207819E0,1.544561313E1
2.320977083E-1,1.400028080E-1,1.357581036E1,2.198408659E0,1.375337153E1
2.421657083E-1,7.029641794E-1,1.247902824E1,2.084042383E0,1.267136682E1
2.522327083E-1,1.300065981E0,1.202340735E1,2.055475227E0,1.226692603E1
2.623007083E-1,1.478451667E0,1.177513925E1,2.401209394E0,1.210807707E1
2.723677083E-1,1.465100135E0,1.118888923E1,2.756855761E0,1.161628229E1
2.824357083E-1,9.294425561E-1,1.097254108E1,2.717057272E0,1.134208629E1
2.925027083E-1,8.611989713E-1,1.109804571E1,2.880378191E0,1.149803726E1
3.025707083E-1,9.993796407E-1,1.093893479E1,3.012258632E0,1.139002880E1
3.126377083E-1,1.048405474E0,1.067990664E1,3.084442509E0,1.116572190E1
3.227057083E-1,6.772495137E-1,1.052775274E1,2.588562369E0,1.086245367E1
3.327727083E-1,7.689467190E-1,1.016504761E1,9.790402472E-1,1.024099565E1
3.428407083E-1,3.334738715E-1,9.688355695E0,1.615349457E0,9.827756344E0
3.529077083E-1,1.720598754E-1,9.272897574E0,1.947058493E0,9.476669816E0
3.629757083E-1,-1.038211146E-1,8.836224586E0,1.767261289E0,9.011817587E0
3.730427083E-1,-5.810710023E-1,8.298947913E0,1.432917498E0,8.441767145E0
3.831107083E-1,-1.062752056E0,6.522336926E0,1.155913258E0,6.708685145E0
3.931777083E-1,-1.930171442E0,-2.500103352E0,1.685626557E0,3.580141821E0
4.032457083E-1,3.044378850E0,-3.382350429E1,5.762449737E0,3.444566027E1
4.133127083E-1,1.737907097E1,-6.812857122E1,1.234453410E1,7.138572579E1
4.233807083E-1,2.266471302E1,-6.867042100E1,1.412016977E1,7.367967923E1
4.334477083E-1,2.095362125E1,-6.800417054E1,9.759722716E0,7.182529945E1
4.435162500E-1,1.439425449E1,-5.245660187E1,1.448889168E0,5.441496965E1
4.535832500E-1,7.768892552E0,-2.401224363E1,-4.204169981E0,2.558551506E1
4.636512500E-1,3.305879197E0,-7.624866275E0,-1.231049628E1,1.485313912E1
4.737182500E-1,3.223491052E-1,1.981631910E0,-1.907286083E1,1.917823751E1
4.837862500E-1,-9.196220112E-1,6.429963198E0,-2.230525894E1,2.323176076E1
4.938532500E-1,6.034515857E-1,6.283648905E0,-1.584050130E1,1.705197581E1
5.039212500E-1,2.403163533E0,5.410965418E0,-9.598549479E0,1.127767236E1
5.139882500E-1,3.771991163E0,5.369181215E0,-6.133257349E0,8.981807722E0
5.240562500E-1,4.442318889E0,6.053270947E0,-2.356368997E0,7.869482900E0
5.341232500E-1,4.118329639E0,6.934914708E0,-5.886771335E-1,8.087040361E0
5.441912500E-1,3.165651564E0,7.919141436E0,7.589949042E-1,8.562138995E0
5.542582500E-1,2.004511480E0,9.119126912E0,2.533924232E0,9.674570478E0
5.643262500E-1,6.262119457E-1,1.098322043E1,4.044878086E0,1.172110537E1
5.743932500E-1,-4.000662757E-1,1.255546889E1,3.884912299E0,1.314885530E1
5.844612500E-1,-9.039964968E-1,1.334219773E1,2.924254528E0,1.368878060E1
5.945282500E-1,4.690159848E-1,1.302071313E1,4.826285952E0,1.389431476E1
6.045962500E-1,2.598804937E0,1.335990309E1,7.800217255E0,1.568707070E1
6.146632500E-1,2.549552085E0,1.428957881E1,7.645989926E0,1.640589651E1
6.247302500E-1,3.666510827E-1,1.757941646E1,5.465055671E0,1.841296146E1
6.347982500E-1,-1.232950617E0,1.979670753E1,4.130483662E0,2.026056988E1
6.448652500E-1,-1.290142525E0,1.977818823E1,5.256927538E0,2.050552327E1
6.549332500E-1,-1.539732680E0,1.987946201E1,5.233610011E0,2.061442360E1
6.650002500E-1,-1.199417639E0,1.991622930E1,3.758632321E0,2.030325366E1
6.750682500E-1,-8.638068295E-1,1.864526330E1,1.528211911E0,1.872771843E1
6.851352500E-1,-2.125481601E0,1.727435670E1,-1.524725801E0,1.747128673E1
6.952032500E-1,-3.443286134E0,1.512650833E1,-2.270689015E0,1.567875959E1
7.052702500E-1,-3.547531464E0,1.231726853E1,-1.408513559E0,1.289511512E1
7.153382500E-1,-3.108426034E0,1.016148549E1,-9.084164071E-1,1.066505134E1
7.254052500E-1,-2.794423537E0,8.661327934E0,-3.890468323E-1,9.109267913E0
7.354732500E-1,-2.652591135E0,7.733953099E0,-3.283211589E-2,8.176267377E0
7.455402500E-1,-2.561458771E0,7.156608381E0,-4.066633236E-1,7.612062113E0
7.556082500E-1,-2.298750242E0,6.719550061E0,-8.625987947E-1,7.154067541E0
7.656752500E-1,-2.456269700E0,6.805121723E0,-5.860178930E-1,7.258537007E0
7.757432500E-1,-2.582611073E0,6.959764205E0,-4.338055505E-1,7.436153912E0
7.858102500E-1,-2.415639737E0,7.058069349E0,-4.106500649E-1,7.471297863E0
7.958782500E-1,-2.141883479E0,6.964851868E0,-7.825913429E-3,7.286761120E0
8.059452500E-1,-2.152738250E0,5.693536792E0,5.766371318E-1,6.114176441E0
8.160132500E-1,-1.923754561E0,-1.380428213E-1,2.899311476E0,3.482225505E0
8.260802500E-1,5.053690601E0,-3.070084788E1,8.932148743E0,3.237074498E1
8.361482500E-1,2.319045021E1,-6.803005733E1,1.672451845E1,7.379427619E1
8.462152500E-1,3.098525177E1,-6.882494654E1,1.606988757E1,7.716994480E1
8.562832500E-1,2.480836543E1,-6.841213779E1,9.711141710E0,7.341649587E1
8.663502500E-1,1.420072686E1,-5.673640354E1,7.545146213E-1,5.849144743E1
8.764182500E-1,7.213445656E0,-2.925598452E1,-4.265659886E0,3.043258587E1
8.864852500E-1,1.238955415E0,-1.060015062E1,-9.893984728E0,1.455297693E1
8.965532500E-1,-2.699936917E0,5.741965771E-1,-1.609337116E1,1.632837887E1
9.066202500E-1,-3.359590259E0,6.269120913E0,-1.957158505E1,2.082392051E1
9.166882500E-1,-1.916158882E0,7.627420923E0,-1.725521057E1,1.896289816E1
9.267552500E-1,1.546486214E-2,6.751175312E0,-1.099328349E1,1.290080963E1
9.368232500E-1,1.296076865E0,6.278028561E0,-7.647629485E0,9.978962601E0
9.468902500E-1,2.006854313E0,6.303837002E0,-5.296487460E0,8.474585807E0
9.569582500E-1,2.083861412E0,6.748079796E0,-2.769638359E0,7.586168727E0
9.670252500E-1,2.076637470E0,7.538091840E0,-2.034433436E-1,7.821549780E0
9.770932500E-1,8.186999461E-1,8.601467648E0,7.709512907E-1,8.674668939E0
9.871602500E-1,-3.179502448E-1,9.765950586E0,1.753424438E0,9.927204061E0
9.972282500E-1,-1.220268737E0,1.078105529E1,2.918003855E0,1.123543303E1
1.007295250E0,-1.502628296E0,1.083460526E1,4.199067993E0,1.171660083E1
1.017363250E0,-9.973152081E-1,1.149230709E1,4.398020675E0,1.234545851E1
1.027430250E0,9.737982184E-2,1.239548673E1,4.495501946E0,1.318586789E1
1.037498250E0,1.094441699E0,1.374409557E1,6.127620049E0,1.508793203E1
1.047565250E0,-1.698830301E-1,1.742592003E1,7.457406696E0,1.895532811E1
1.057633250E0,-1.487300405E0,1.910062224E1,7.634749238E0,2.062365701E1
1.067700250E0,-2.085867299E0,1.952964648E1,8.229536201E0,2.129514499E1
1.077768250E0,-2.290023857E0,2.034513192E1,7.852903007E0,2.192798869E1
1.087835250E0,-1.747144821E0,2.077114836E1,5.580432930E0,2.157856230E1
1.097903250E0,-1.207627788E0,2.035845188E1,2.644281657E0,2.056494963E1
1.107970250E0,-2.396743729E0,1.851587845E1,-2.128504173E-1,1.867156771E1
1.118038250E0,-3.960824068E0,1.588742638E1,-3.235597712E0,1.669034262E1
1.128105250E0,-4.216866041E0,1.263714514E1,-3.590091008E0,1.379739649E1
1.138173250E0,-3.301012267E0,1.035315956E1,-2.044304706E0,1.105729517E1
1.148240250E0,-2.794129714E0,8.898060645E0,-7.070324528E-1,9.353210091E0
1.158308250E0,-2.561627755E0,7.982271484E0,-1.569964977E-1,8.384702899E0
1.168375250E0,-2.488460084E0,7.296799470E0,-3.489290126E-1,7.717348479E0
1.178443250E0,-2.529100864E0,6.709400464E0,-4.902129821E-1,7.186982297E0
1.188510250E0,-2.837771870E0,6.611645544E0,-3.702455124E-2,7.195010549E0
1.198578250E0,-2.902947859E0,6.768623988E0,8.297549844E-2,7.365341940E0
1.208645250E0,-2.836579038E0,7.093740873E0,5.953691622E-2,7.640084087E0
1.218713250E0,-2.754944014E0,7.482880091E0,-1.150159196E-1,7.974737591E0
1.228780250E0,-2.682785864E0,7.126568896E0,4.222022992E-1,7.626505032E0
1.238848250E0,-2.314627333E0,4.474280062E0,1.714780775E0,5.321386555E0
1.248915250E0,-6.464026737E-1,-8.816841066E0,7.326667632E0,1.148192412E1
1.258983250E0,1.260809150E1,-5.243538350E1,1.739719734E1,5.666653235E1
1.269050250E0,2.973225427E1,-7.003906707E1,1.964320643E1,7.858328970E1
1.279118250E0,3.209184435E1,-6.825739707E1,1.378812744E1,7.667510149E1
1.289185250E0,2.266157423E1,-6.729331284E1,6.378296031E0,7.129249301E1
1.299253250E0,1.248060231E1,-4.586197173E1,-1.654160497E0,4.755861785E1
1.309320250E0,5.206873033E0,-2.006009186E1,-7.345140156E0,2.198794888E1
1.319388250E0,3.298035742E-1,-4.497458425E0,-1.516554434E1,1.582180893E1
1.329455250E0,-1.762321562E0,5.439908550E0,-2.335626087E1,2.404606630E1
1.339523250E0,-6.707548651E-1,9.743941666E0,-2.601528687E1,2.778829722E1
1.349590250E0,1.356032752E0,8.196539193E0,-1.311872884E1,1.552813981E1
1.359658250E0,2.213423139E0,7.359157101E0,-8.759907897E0,1.165300054E1
1.369725250E0,2.870300808E0,7.468530439E0,-6.477446097E0,1.029441021E1
1.379793250E0,3.070766749E0,8.101529540E0,-3.982807553E0,9.535572627E0
1.389860250E0,2.252398925E0,9.026626884E0,-2.252617611E0,9.572229621E0
1.399928250E0,7.084123226E-1,1.028017461E1,-6.404181216E-1,1.032443574E1
1.409995250E0,-6.422655494E-1,1.165872002E1,3.648282133E-1,1.168209558E1
1.420063250E0,-1.220188045E0,1.181118968E1,7.955680686E-1,1.190067179E1
1.430130250E0,-9.214382295E-1,1.187244628E1,1.418405879E0,1.199232689E1
1.440198250E0,-4.247110471E-1,1.213745378E1,2.082812129E0,1.232218610E1
1.450264708E0,-5.385828676E-1,1.255686053E1,1.507483531E0,1.265848824E1
1.460332708E0,-1.578404702E0,1.395696229E1,1.724742676E0,1.415142731E1
1.470399708E0,-2.262135124E0,1.810904439E1,3.142503022E0,1.851837113E1
1.480466708E0,4.494494471E-1,1.874641663E1,5.300700964E0,1.948659980E1
1.490534708E0,1.839384063E0,2.016390800E1,6.673557032E0,2.131907322E1
1.500601708E0,1.114588354E0,2.301889758E1,5.576253340E0,2.371089527E1
1.510669708E0,1.507160765E0,2.321653113E1,5.167840530E0,2.383244484E1
1.520736708E0,6.471685128E-1,2.135311706E1,4.020109280E0,2.173788660E1
1.530804708E0,-2.059934167E0,1.903561991E1,1.453729054E0,1.920186143E1
1.540871708E0,-3.383143428E0,1.587443971E1,5.358096794E-1,1.623978410E1
1.550939708E0,-3.397127629E0,1.260860371E1,5.590441390E-1,1.307019105E1
1.561006708E0,-3.052775159E0,1.015065060E1,3.871219655E-1,1.060683775E1
1.571074708E0,-2.656668983E0,8.492996535E0,-8.334036469E-2,8.899203664E0
1.581141708E0,-2.407592945E0,7.626904614E0,-6.174928701E-1,8.021687804E0
1.591209708E0,-2.251274651E0,7.263426486E0,-1.276331402E0,7.710682442E0
1.601276708E0,-2.279363798E0,6.873908953E0,-1.663526421E0,7.430574929E0
1.611344708E0,-2.484722836E0,6.586227697E0,-1.198527766E0,7.140638043E0
1.621411708E0,-2.599328848E0,6.613355269E0,-1.093781914E0,7.189529696E0
1.631479708E0,-2.750962352E0,6.010829517E0,-2.350774016E-1,6.614614632E0
1.641546708E0,-2.117267578E0,5.100456047E0,1.834640509E0,5.819225007E0
1.651614708E0,-9.947176556E-1,3.875552076E0,4.023153341E0,5.674075247E0
1.661681708E0,3.317232151E-1,1.405953648E0,6.156573706E0,6.323776226E0
1.671749708E0,3.636852946E0,-8.481313214E0,9.906970224E0,1.353910751E1
1.681816708E0,2.272471714E1,-5.305720448E1,1.985038264E1,6.103701669E1
1.691884708E0,4.025189575E1,-7.007587646E1,1.771143373E1,8.273172583E1
1.701951708E0,3.857899098E1,-6.839409562E1,7.711365890E0,7.890219278E1
1.712019708E0,2.234836228E1,-6.439066611E1,9.105651127E-1,6.816477321E1
1.722086708E0,8.874160736E0,-3.576137446E1,-4.574816503E0,3.712890489E1
1.732154708E0,-9.873979649E-1,-1.306858078E1,-1.381019951E1,1.903902227E1
1.742221708E0,-5.980626894E0,-2.262618104E0,-1.963588338E1,2.065079308E1
1.752289708E0,-6.507224797E0,3.805159786E0,-1.777663486E1,1.930885710E1
1.762356708E0,-5.484059706E0,6.042140772E0,-1.347058738E1,1.574925713E1
1.772424708E0,-4.295087168E0,6.806118674E0,-9.580029008E0,1.251191356E1
1.782491708E0,-3.859959306E0,7.504117763E0,-7.098067812E0,1.102695044E1
1.792559708E0,-3.686865643E0,7.372802163E0,-4.286689689E0,9.291226964E0
1.802626708E0,-3.545390214E0,7.218908125E0,-1.804325620E0,8.242452137E0
1.812694708E0,-3.264612473E0,7.580828555E0,1.066077222E0,8.322450169E0
1.822761708E0,-2.994370245E0,8.477651687E0,3.796267340E0,9.759532623E0
1.832829708E0,-3.332459763E0,9.482103349E0,4.395626825E0,1.096982713E1
1.842896708E0,-4.097352753E0,1.053450042E1,3.943688511E0,1.197149439E1
1.852964708E0,-4.848051043E0,1.125938092E1,4.036408979E0,1.290619444E1
1.863031708E0,-4.720955671E0,1.112120537E1,3.965078795E0,1.271575720E1
1.873099708E0,-4.900803453E0,1.104049976E1,4.637760025E0,1.293906208E1
1.883166708E0,-5.649486793E0,1.186455487E1,5.038536372E0,1.407377747E1
1.893234708E0,-5.773573480E0,1.294374155E1,4.729656036E0,1.494136012E1
1.903301708E0,-5.875841281E0,1.635694026E1,4.012548831E0,1.783747609E1
1.913369708E0,-5.746478652E0,1.817828712E1,3.223200445E0,1.933548967E1
1.923436708E0,-4.991016051E0,1.760358067E1,1.650948476E0,1.837176977E1
1.933504708E0,-4.758064148E0,1.617662850E1,-3.855829418E-1,1.686627280E1
1.943571708E0,-4.594225458E0,1.485449585E1,-1.691962600E0,1.564051444E1
1.953639708E0,-4.652417533E0,1.422809767E1,-2.774086336E0,1.522429990E1
1.963706708E0,-4.904472581E0,1.336745302E1,-3.689342816E0,1.470897352E1
1.973774708E0,-4.976107990E0,1.169963650E1,-4.265116387E0,1.341023351E1
1.983841708E0,-4.066519216E0,9.505733117E0,-4.444264550E0,1.125375617E1
1.993909708E0,-3.318246643E0,8.230216232E0,-4.414457198E0,9.911339585E0
2.003976708E0,-3.041577156E0,7.534230924E0,-3.926504713E0,9.024038257E0
2.014044708E0,-3.018533572E0,7.435103661E0,-3.163804429E0,8.625657647E0
2.024111708E0,-2.985068787E0,7.313968064E0,-2.462463071E0,8.274568803E0
2.034179708E0,-2.871291326E0,7.271823673E0,-1.136881156E0,7.900394431E0
2.044246708E0,-2.873482278E0,8.328413787E0,1.697260762E0,8.972183163E0
2.054314708E0,-3.183265424E0,9.460014907E0,4.984896939E0,1.115680323E1
2.064381708E0,-3.960995977E0,8.718693797E0,6.547033226E0,1.160037735E1
2.074449708E0,-3.629963464E0,6.812783915E0,5.424124576E0,9.434605813E0
2.084516708E0,-3.577784373E0,6.309726902E0,4.241238697E0,8.402457991E0
2.094584708E0,-3.336246712E0,4.961371252E0,4.157682570E0,7.282312214E0
2.104651708E0,-1.200937403E0,-5.010355716E0,7.853997606E0,9.393146089E0
2.114719708E0,1.455400043E1,-4.104030624E1,1.363485672E1,4.562932152E1
2.124786708E0,4.828644251E1,-6.969609279E1,1.236472336E1,8.568554292E1
2.134854708E0,5.852846755E1,-6.874834801E1,7.134449773E0,9.056940566E1
2.144921708E0,4.097303052E1,-6.606746512E1,4.422978930E0,7.786695012E1
2.154989708E0,2.231148506E1,-4.098604408E1,1.357845974E0,4.668513597E1
2.165056708E0,1.092090899E1,-1.770583911E1,-4.914849050E0,2.137565749E1
2.175124708E0,3.339498349E0,-4.735263516E0,-1.643014973E1,1.742196286E1
2.185191708E0,-1.205798779E0,1.804525595E0,-2.596796185E1,2.605849776E1
2.195259708E0,-2.795417856E0,5.397206334E0,-3.608987572E1,3.659813283E1
2.205326708E0,-1.569525705E0,4.324762664E0,-1.612307151E1,1.676664600E1
2.215394708E0,-1.384530912E0,4.096764523E0,-9.315526700E0,1.027031855E1
2.225461708E0,-1.453668097E0,4.524102432E0,-7.071283472E0,8.519607015E0
2.235529708E0,-1.466798020E0,5.089606538E0,-4.614345435E0,7.024797146E0
2.245596708E0,-1.674627945E0,5.741490977E0,-2.899423158E0,6.646484186E0
2.255663708E0,-2.022992482E0,6.463039727E0,-1.178802184E0,6.874078534E0
2.265731708E0,-2.995868302E0,7.571403428E0,7.027493674E-1,8.172835091E0
2.275798708E0,-3.952262575E0,9.112368116E0,1.706522314E0,1.007808764E1
2.285866708E0,-4.521421484E0,1.060994354E1,1.669051455E0,1.165332085E1
2.295933708E0,-4.444409853E0,1.056070765E1,2.070178635E0,1.164332274E1
2.306001708E0,-4.026824515E0,1.047967693E1,2.581676688E0,1.151972217E1
2.316068708E0,-4.420949070E0,1.249695464E1,2.835657517E0,1.355579652E1
2.326136708E0,-6.232176450E0,1.687046378E1,5.072986997E0,1.868656653E1
2.336203708E0,-7.133135319E0,1.951238784E1,7.583591949E0,2.211618786E1
2.346271708E0,-6.202477273E0,1.990898343E1,9.738939958E0,2.301489294E1
2.356338708E0,-6.035746257E0,1.994958416E1,1.077105070E1,2.346128032E1
2.366406708E0,-6.785558109E0,1.964855546E1,9.758926910E0,2.296401936E1
2.376473708E0,-7.428280545E0,1.897549767E1,5.940182873E0,2.122580119E1
2.386541708E0,-7.846785650E0,1.690760764E1,2.272231511E0,1.877770692E1
2.396608708E0,-7.622482365E0,1.476578190E1,-1.191791006E-1,1.661760380E1
2.406676708E0,-7.013148699E0,1.242234650E1,-2.135584420E0,1.442427357E1
2.416743708E0,-6.092195277E0,1.011153389E1,-3.236487658E0,1.224062144E1
2.426811708E0,-5.355813310E0,8.494013366E0,-3.388936849E0,1.059801360E1
2.436878708E0,-5.069456449E0,7.553624384E0,-3.096352703E0,9.609580120E0
2.446946958E0,-4.949572155E0,7.095977433E0,-2.808531114E0,9.096098464E0
2.457013958E0,-4.873778792E0,6.731733320E0,-2.602399805E0,8.708756395E0
2.467081958E0,-4.871376756E0,6.241364765E0,-2.466690608E0,8.292738280E0
2.477148958E0,-4.858232215E0,5.349053929E0,-1.695451634E0,7.422220317E0
2.487216958E0,-4.767897996E0,4.628851792E0,-9.039689418E-1,6.706435719E0
2.497283958E0,-4.668590055E0,4.769859737E0,-8.624654051E-1,6.729869358E0
2.507351958E0,-4.581216865E0,4.706660691E0,-1.026948093E0,6.647918863E0
2.517418958E0,-4.416542315E0,3.842617049E0,-1.064145959E0,5.950122556E0
2.527486958E0,-3.860565662E0,-2.739239269E-1,1.570619866E-1,3.873457115E0
2.537553958E0,5.143992076E0,-2.379309700E1,6.985045227E0,2.532514514E1
2.547621958E0,3.328932137E1,-6.316925760E1,1.576407352E1,7.312345751E1
2.557688958E0,5.186105594E1,-7.019545436E1,1.244337192E1,8.815786092E1
2.567756958E0,4.835711430E1,-6.864743443E1,6.724667544E0,8.423836365E1
2.577823958E0,3.107251328E1,-5.351947131E1,1.452385072E0,6.190270037E1
2.587891958E0,1.727758202E1,-2.735447233E1,-9.699937275E-1,3.236854777E1
2.597958958E0,8.210301200E0,-1.154627923E1,-3.634491255E0,1.462652168E1
2.608026958E0,3.172598641E0,-3.825657785E-1,-6.353966936E0,7.112287574E0
2.618093958E0,8.893039057E-1,6.538876945E0,-9.178563859E0,1.130459233E1
2.628161958E0,5.712636137E-1,1.075124034E1,-1.096547530E1,1.536740575E1
2.638228958E0,1.272865173E0,1.171974507E1,-1.072325322E1,1.593614665E1
2.648296958E0,2.729725850E0,1.075106375E1,-9.384569453E0,1.452951888E1
2.658363958E0,3.392857407E0,9.699879388E0,-7.658591845E0,1.281612931E1
2.668431958E0,2.981236230E0,9.134243719E0,-6.054503540E0,1.135690058E1
2.678498958E0,2.066068043E0,8.993349795E0,-4.879278098E0,1.043821500E1
2.688566958E0,8.879470593E-1,9.368136438E0,-4.278916401E0,1.033728958E1
2.698633958E0,-7.312033805E-1,1.040668965E1,-3.984146273E0,1.116724090E1
2.708701958E0,-2.492453440E0,1.145540765E1,-3.731176136E0,1.230285999E1
2.718768958E0,-3.689070336E0,1.214425527E1,-3.135202188E0,1.307370141E1
2.728836958E0,-3.904873816E0,1.198369774E1,-2.577383078E0,1.286467857E1
2.738903958E0,-3.619730836E0,1.120098945E1,-1.790627786E0,1.190676127E1
2.748971958E0,-3.827242673E0,1.203062048E1,-9.563338277E-1,1.266089215E1
2.759038958E0,-4.103889356E0,1.335601353E1,-3.036249319E-1,1.397559277E1
2.769106958E0,-5.280867208E0,1.728399876E1,-1.034390721E-3,1.807274668E1
2.779173958E0,-6.999673791E0,1.990267545E1,1.151081704E0,2.112905375E1
2.789241958E0,-8.175141308E0,1.958551312E1,4.042440382E0,2.160478151E1
2.799308958E0,-9.164619420E0,1.855133363E1,5.922942942E0,2.152262720E1
2.809376958E0,-9.760136699E0,1.650038298E1,6.765478186E0,2.032964835E1
2.819443958E0,-9.047780941E0,1.408163545E1,4.883018562E0,1.743555755E1
2.829511958E0,-8.248325644E0,1.228181452E1,3.279766994E0,1.515370303E1
2.839578958E0,-7.418803378E0,1.056298572E1,2.072505242E0,1.307327766E1
2.849645958E0,-6.702697801E0,9.116246574E0,9.077726287E-1,1.135148275E1
2.859713958E0,-6.054428111E0,8.084477305E0,4.834770262E-2,1.010035695E1
2.869780958E0,-5.729728133E0,7.684162889E0,-5.771968200E-1,9.602567362E0
2.879848958E0,-5.744126317E0,7.707371072E0,-9.129796473E-1,9.655676456E0
2.889915958E0,-5.801127314E0,7.716735388E0,-1.003128948E0,9.706047128E0
2.899983958E0,-5.684369527E0,7.474339063E0,-1.410697494E0,9.495676320E0
2.910050958E0,-5.129099218E0,6.737627898E0,-2.561975080E0,8.846864121E0
2.920118958E0,-4.989581729E0,6.385282284E0,-2.272603979E0,8.416203688E0
2.930185958E0,-5.123467180E0,5.726860659E0,-1.343266380E0,7.800718782E0
2.940253958E0,-4.787402553E0,4.766913325E0,-8.012353362E-1,6.803283319E0
2.950320958E0,-3.429159846E0,2.846546786E0,-2.635012650E-1,4.464459516E0
2.960388958E0,2.720779025E0,-5.612977948E0,1.261946667E0,6.364013618E0
2.970455958E0,2.602593114E1,-3.198847728E1,7.533276658E0,4.192090203E1
2.980523958E0,6.156229773E1,-6.816011344E1,1.161547518E1,9.257773398E1
2.990590958E0,7.183961656E1,-7.223497722E1,6.173752241E0,1.020634002E2
3.000658958E0,5.414581570E1,-6.540502237E1,1.805403847E0,8.492847456E1
3.010725958E0,2.672666614E1,-3.847336688E1,-1.017076970E0,4.685668669E1
3.020793958E0,1.127916673E1,-1.429929103E1,-1.729468980E0,1.829427203E1
3.030860958E0,3.702710720E0,-2.058593547E0,-4.341226377E0,6.065815735E0
3.040928958E0,-6.777256233E-1,5.053432154E0,-8.588485075E0,9.987920927E0
3.050995958E0,-2.496134262E0,1.037137948E1,-1.609004176E1,1.930506779E1
3.061063958E0,-7.424431908E-1,1.158212500E1,-1.861607868E1,2.193753010E1
3.071130958E0,1.923980702E0,7.360928807E0,-4.498944202E0,8.838861555E0
3.081198958E0,2.173196635E0,5.738446332E0,-1.889409624E0,6.420468724E0
3.091265958E0,1.096999637E0,5.354311745E0,-1.267797391E0,5.610648153E0
3.101333958E0,-7.289472324E-1,5.459813057E0,-1.136957754E0,5.624375132E0
3.111400958E0,-2.231758838E0,5.726917377E0,-7.542592442E-1,6.192514607E0
3.121468958E0,-3.651543490E0,6.068602347E0,-5.225218087E-1,7.101741571E0
3.131535958E0,-5.283245856E0,6.530320714E0,-4.778952742E-1,8.413451093E0
3.141603958E0,-6.760085299E0,6.933845837E0,-1.794200581E-1,9.685513043E0
3.151670958E0,-7.977839295E0,7.037753198E0,7.432673559E-2,1.063867540E1
3.161738958E0,-8.473337612E0,6.754577807E0,7.145187892E-2,1.083636826E1
3.171805958E0,-8.365962267E0,7.197017904E0,-3.222950550E-1,1.104039245E1
3.181873958E0,-8.245459923E0,7.970204585E0,2.656272670E-2,1.146788891E1
3.191940958E0,-8.642572989E0,8.369993922E0,1.377835557E0,1.210988427E1
3.202008958E0,-9.615563707E0,9.232269366E0,2.521597717E0,1.356658830E1
3.212075958E0,-1.076151156E1,9.337626836E0,3.130294036E0,1.458767105E1
3.222143958E0,-1.196553044E1,8.115949359E0,4.162925184E0,1.504568040E1
3.232210958E0,-1.328167320E1,7.662157477E0,5.163750987E0,1.617948777E1
3.242278958E0,-1.583667956E1,8.569168798E0,4.993441476E0,1.868597151E1
3.252345958E0,-1.885589288E1,8.703155991E0,4.485524257E0,2.124640083E1
3.262413958E0,-2.106239116E1,7.009823973E0,3.213171301E0,2.242958812E1
3.272480958E0,-2.183222154E1,4.707684246E0,3.120237994E0,2.255092178E1
3.282548958E0,-2.119538725E1,2.822622611E0,2.519834489E0,2.153047154E1
3.292615958E0,-1.923918956E1,1.150881144E0,9.453415740E-1,1.929675136E1
3.302683958E0,-1.594629498E1,1.898380423E-1,5.994740903E-1,1.595868827E1
3.312750958E0,-1.311687878E1,4.064268038E-2,2.754940505E-1,1.311983451E1
3.322818958E0,-1.082676297E1,8.923172683E-2,-1.245059323E0,1.089848299E1
3.332885958E0,-9.456341686E0,3.788788167E-1,-1.616301384E0,9.600957109E0
3.342953958E0,-9.132733968E0,8.222237706E-1,-7.425203741E-1,9.199685764E0
3.353020958E0,-9.069303957E0,1.312536484E0,4.695489585E-1,9.175810728E0
3.363088958E0,-8.951610616E0,1.696437474E0,1.505179728E0,9.234435486E0
3.373155958E0,-8.439312079E0,1.832596323E0,2.663143605E0,9.037296693E0
3.383223958E0,-6.539657548E0,1.495343834E0,6.995908184E0,9.692569595E0
3.393290958E0,-4.333250483E0,1.841966778E0,9.628374957E0,1.071799914E1
3.403358958E0,-4.558557150E0,3.170092232E0,6.534892067E0,8.575240077E0
3.413425958E0,3.298392598E1,-5.253924993E0,1.085838355E1,3.512047258E1
3.423492958E0,7.094414121E1,-2.750081878E1,1.998502062E1,7.866871840E1
3.433560958E0,6.860905798E1,-2.839530011E1,1.847630567E1,7.651712080E1
3.443628500E0,6.801724491E1,1.820834356E0,2.932297958E0,6.810476793E1
3.453696500E0,4.453297913E1,1.388191795E1,-8.309605633E0,4.738083391E1
3.463763500E0,1.150328115E1,4.579849494E0,-1.738048015E1,2.133967171E1
3.473831500E0,-6.010216729E0,-2.189519430E0,-3.552552351E1,3.609680763E1
3.483898500E0,-4.988890588E0,-4.216402649E0,-1.909947735E1,2.018556702E1
3.493966500E0,-1.553163149E0,-3.458491234E0,-5.131200122E0,6.379866149E0
3.504033500E0,-2.011310037E0,-1.703807013E0,6.812564644E-1,2.722579067E0
3.514101500E0,-3.953108375E0,2.366476348E-1,2.220193923E0,4.540080284E0
3.524168500E0,-6.553914229E0,1.856380165E0,1.061703504E0,6.893994007E0
3.534236500E0,-8.938405849E0,3.069815699E0,-1.076920298E0,9.512025277E0
3.544303500E0,-1.062472296E1,3.691742513E0,-2.517104716E0,1.152603648E1
3.554371500E0,-1.121032161E1,3.616448794E0,-2.787153693E0,1.210447183E1
3.564438500E0,-1.149191650E1,3.438057846E0,-3.222897267E0,1.242060600E1
3.574506500E0,-1.223658982E1,3.415651608E0,-4.090518528E0,1.334665307E1
3.584573500E0,-1.429841863E1,3.641648247E0,-5.354021723E0,1.569623923E1
3.594641500E0,-1.500937924E1,3.614931149E0,-3.421337441E0,1.581311931E1
3.604708500E0,-1.515384172E1,3.563401977E0,-1.879494793E0,1.568021853E1
3.614776500E0,-1.493435946E1,3.450743088E0,-2.578910078E-1,1.533001071E1
3.624843500E0,-1.459499876E1,3.513875476E0,1.153347939E0,1.505627846E1
3.634911500E0,-1.420442113E1,3.525044535E0,1.560442933E0,1.471823701E1
3.644978500E0,-1.418538493E1,3.549356088E0,1.702628506E0,1.472148152E1
3.655046500E0,-1.388946904E1,3.559902418E0,1.521112221E0,1.441887783E1
3.665113500E0,-1.447268320E1,4.183684554E0,-8.628151417E-3,1.506525306E1
3.675181500E0,-1.571452421E1,4.213598616E0,6.343012762E-1,1.628198460E1
3.685248500E0,-1.659590076E1,3.540579417E0,1.908594339E0,1.707636837E1
3.695316500E0,-1.677148679E1,3.159423695E0,2.355424526E0,1.722825447E1
3.705383500E0,-1.596086273E1,2.505260304E0,1.994038532E0,1.627887152E1
3.715451500E0,-1.405026747E1,1.418170674E0,1.094294788E0,1.416399327E1
3.725518500E0,-1.174902091E1,7.946130721E-1,4.013340982E-1,1.178269797E1
3.735586500E0,-1.044465679E1,6.547886042E-1,2.203589000E-2,1.046518462E1
3.745653500E0,-9.675486558E0,4.930826859E-1,-8.273727556E-1,9.723307891E0
3.755721500E0,-8.968216124E0,2.168265970E-1,-2.086947280E0,9.210388871E0
3.765788500E0,-8.890587319E0,9.114113510E-2,-2.228124794E0,9.165990927E0
3.775856500E0,-8.553536267E0,1.363055404E-1,-9.603712571E-1,8.608360751E0
3.785923500E0,-7.474784036E0,2.752649859E-3,6.070707929E-1,7.499395903E0
3.795991500E0,-7.524849651E0,2.703906007E-1,2.182233506E0,7.839554606E0
3.806058500E0,-7.654166672E0,3.949721814E-1,4.352017121E0,8.813757626E0
3.816126500E0,-6.995567876E0,3.966389302E-1,7.276926538E0,1.010192814E1
3.826193500E0,-5.650088471E0,1.208994136E0,8.524522383E0,1.029818666E1
3.836261500E0,-2.534069828E0,2.454587456E0,7.357773650E0,8.159861675E0
3.846328500E0,3.093846469E1,1.478160914E0,1.244519391E1,3.338047946E1
3.856396500E0,6.880682017E1,-5.046347083E0,1.993679045E1,7.181448137E1
3.866463500E0,6.906609039E1,-5.245438929E0,2.417925882E1,7.336399681E1
3.876531500E0,6.857871327E1,8.802666246E0,1.682806562E1,7.115975435E1
3.886598500E0,5.443558499E1,8.413575559E0,7.039634832E0,5.552997052E1
3.896666500E0,2.093207543E1,2.150695964E0,-6.913763575E0,2.214898196E1
3.906733500E0,-1.348373894E1,-9.476157315E0,-6.008903795E1,6.230811548E1
3.916800500E0,-8.439752374E0,-9.290855543E0,-2.858867221E1,3.122277367E1
3.926868500E0,-3.431584101E0,-6.185843114E0,-5.872144087E0,9.193611948E0
3.936935500E0,-3.165627006E0,-4.145371258E0,3.691920269E0,6.390271706E0
3.947003500E0,-4.734775858E0,-2.167689873E0,3.569158853E0,6.313151093E0
3.957070500E0,-7.435657393E0,-7.992085451E-1,1.824005594E0,7.697709501E0
3.967138500E0,-9.746158345E0,-9.698330753E-2,2.993713018E-1,9.751237431E0
3.977205500E0,-1.131122116E1,-1.418084282E-1,-8.639951098E-1,1.134505713E1
3.987273500E0,-1.237187802E1,-6.028935421E-1,-8.153247871E-1,1.241336380E1
3.997340500E0,-1.284374364E1,-1.142553832E0,1.861045951E-1,1.289580610E1
4.007408500E0,-1.325269206E1,-1.647472014E0,1.046436278E0,1.339563510E1
4.017475500E0,-1.375016966E1,-1.933503770E0,1.527252529E0,1.396918404E1
4.027543500E0,-1.389557822E1,-2.058744990E0,1.461779355E0,1.412311310E1
4.037610500E0,-1.387525095E1,-2.071689848E0,1.842020280E0,1.414947089E1
4.047678500E0,-1.317774245E1,-1.822470700E0,2.365540209E0,1.351184946E1
4.057745500E0,-1.236434446E1,-1.311284595E0,2.704755900E0,1.272447193E1
4.067813500E0,-1.195596557E1,-7.925488588E-1,2.456681929E0,1.223145668E1
4.077880500E0,-1.166491456E1,-4.203739114E-1,1.843914924E0,1.181723183E1
4.087948500E0,-1.238724684E1,-2.779801770E-1,1.155504830E-1,1.239090429E1
4.098015500E0,-1.263459108E1,-2.044920418E-1,-1.090973496E-2,1.263625054E1
4.108083500E0,-1.513726954E1,-8.890954524E-2,1.062826170E0,1.517479600E1
4.118150500E0,-2.045378722E1,1.690482670E-1,1.650961339E0,2.052100540E1
4.128218500E0,-1.738736116E1,3.525701469E-1,1.228467264E0,1.743426986E1
4.138285500E0,-1.579705415E1,2.498322290E-1,1.339515245E-1,1.579959743E1
4.148353500E0,-1.479630436E1,6.290233601E-2,-9.876390895E-1,1.482936312E1
4.158420500E0,-1.414636179E1,1.522679641E-1,-9.369975241E-1,1.417817695E1
4.168488500E0,-1.261107124E1,1.632785270E-1,-8.095774126E-1,1.263808503E1
4.178555500E0,-1.134363579E1,4.081160278E-1,-7.948436717E-1,1.137877006E1
4.188623500E0,-1.079718191E1,3.618101729E-1,-5.106654827E-1,1.081530504E1
4.198690500E0,-9.951115533E0,1.957715043E-1,-5.076026380E-1,9.965976484E0
4.208758500E0,-9.424716436E0,1.716096764E-1,-2.552890699E-2,9.426313251E0
4.218825500E0,-9.036861851E0,3.173851480E-1,4.242996955E-1,9.052382873E0
4.228893500E0,-8.948018087E0,4.257711473E-1,8.471118593E-1,8.998105759E0
4.238960500E0,-8.655889438E0,7.447975722E-1,2.067797649E0,8.930561713E0
4.249028500E0,-7.089033279E0,1.311744187E0,6.004760692E0,9.382548514E0
4.259095500E0,-6.039628224E0,2.324116779E0,6.775448273E0,9.369382434E0
4.269163500E0,-5.587324458E0,2.666454591E0,5.770815933E0,8.463479853E0
4.279230500E0,2.393494811E1,-6.086036405E-1,9.144755259E0,2.562964472E1
4.289298500E0,6.969723885E1,-9.298151114E0,1.606772761E1,7.212719728E1
4.299365500E0,6.878694899E1,-1.102798321E1,1.330419550E1,7.092434267E1
4.309433500E0,6.861216402E1,-2.791523318E0,3.583091891E0,6.876234581E1
4.319500500E0,6.053955422E1,6.268665415E-1,-3.435570148E0,6.064019896E1
4.329568500E0,2.168468927E1,9.321154645E-1,-1.074626786E1,2.421934890E1
4.339635500E0,-1.348442891E1,1.569317252E0,-3.778144012E1,4.014635472E1
4.349703500E0,-1.746764460E1,4.054003251E-1,-3.160728793E1,3.611514374E1
4.359770500E0,-1.038845452E1,7.661533579E-2,-1.204052215E1,1.590283091E1
4.369838500E0,-8.332699211E0,3.747606227E-1,-2.106609712E0,8.603030056E0
4.379905500E0,-7.264373735E0,1.488997413E0,2.546077670E0,7.840328473E0
4.389973500E0,-7.219410986E0,2.354012423E0,1.566081695E0,7.753314217E0
4.400040500E0,-7.907028928E0,2.598490942E0,2.843360639E-1,8.327911422E0
4.410108500E0,-9.184781789E0,2.588357132E0,-1.796879483E0,9.710230946E0
4.420175500E0,-1.024769099E1,2.228849849E0,-3.317791438E0,1.099957646E1
4.430242500E0,-1.058829013E1,1.877747645E0,-3.249411759E0,1.123372160E1
4.440310500E0,-1.080010318E1,1.717642256E0,-2.802197702E0,1.128914680E1
4.450377208E0,-1.119250631E1,1.659557185E0,-2.687837274E0,1.162973761E1
4.460445208E0,-1.256985187E1,1.985178977E0,-4.210477957E0,1.340411267E1
4.470512208E0,-1.368589238E1,2.155338215E0,-3.966713092E0,1.441124373E1
4.480580208E0,-1.388174604E1,2.019103206E0,-2.018747111E0,1.417233188E1
4.490647208E0,-1.430694621E1,2.005150873E0,-4.739191675E-1,1.445454735E1
4.500715208E0,-1.480199137E1,2.303362818E0,-6.057146774E-1,1.499237536E1
4.510782208E0,-1.543551730E1,2.632752117E0,-1.978888981E0,1.578298386E1
4.520850208E0,-1.627818294E1,2.857725493E0,-1.976799771E0,1.664492632E1
4.530917208E0,-1.655045970E1,3.050786521E0,-1.234836051E0,1.687453214E1
4.540985208E0,-1.559460835E1,3.181821162E0,-4.632982850E-2,1.591596500E1
4.551052208E0,-1.492958346E1,3.218118338E0,1.404649719E0,1.533694196E1
4.561120208E0,-1.501164796E1,3.115566654E0,2.317777812E0,1.550575455E1
4.571187208E0,-1.482264490E1,3.120557837E0,2.059715627E0,1.528695887E1
4.581255208E0,-1.465441466E1,2.825467866E0,1.527601461E0,1.500228996E1
4.591322208E0,-1.423889163E1,2.229518770E0,1.232643346E0,1.446499909E1
4.601390208E0,-1.276299359E1,1.385822562E0,7.089865923E-1,1.285757254E1
4.611457208E0,-1.110424610E1,7.774558065E-1,2.039035012E-1,1.113329671E1
4.621525208E0,-1.008600963E1,4.319747508E-1,-1.117841452E-1,1.009587481E1
4.631592208E0,-9.444138547E0,2.561229560E-1,-6.152639115E-1,9.467623860E0
4.641660208E0,-8.781771221E0,2.956630708E-1,-6.408543239E-1,8.810086077E0
4.651727208E0,-8.602920097E0,4.933836713E-1,4.667645144E-1,8.629688914E0
4.661795208E0,-8.538177386E0,6.370553148E-1,2.056911303E0,8.805520805E0
4.671862208E0,-8.095769448E0,6.254954425E-1,4.227318231E0,9.154394952E0
4.681930208E0,-7.089760088E0,8.857965995E-1,5.551834783E0,9.048325988E0
4.691997208E0,-5.770582044E0,1.851095451E0,6.168425428E0,8.647291122E0
4.702065208E0,7.894408883E0,3.292909781E0,7.868962970E0,1.162262985E1
4.712132208E0,5.559069075E1,9.328247318E-1,1.924593490E1,5.883537261E1
4.722200208E0,7.026408196E1,-2.502063923E0,2.577833898E1,7.488540778E1
4.732267208E0,6.841918719E1,6.821629583E0,2.093913419E1,7.187605406E1
4.742335208E0,6.693145906E1,1.058053088E1,7.990002673E0,6.823201586E1
4.752402208E0,4.214844717E1,4.168568624E0,-1.711344658E0,4.238864545E1
4.762470208E0,5.358297207E0,-2.368249809E0,-3.734736856E1,3.780404601E1
4.772537208E0,-7.877934937E0,-7.092035825E0,-3.559354534E1,3.713838043E1
4.782605208E0,-4.239550606E0,-6.853745999E0,-1.281927889E1,1.514204527E1
4.792672208E0,-5.316391382E0,-6.441134888E0,-5.883078965E0,1.021581392E1
4.802740208E0,-5.766943907E0,-4.697250474E0,3.534893292E-1,7.446258037E0
4.812807208E0,-5.972724382E0,-2.619442685E0,1.726798265E0,6.746610169E0
4.822875208E0,-7.473833279E0,-9.442191278E-1,2.973762318E-1,7.539109116E0
4.832942208E0,-9.037230810E0,-4.089447610E-2,-1.538293388E0,9.167309290E0
4.843010208E0,-1.013250435E1,1.076639413E-1,-2.342160409E0,1.040023804E1
4.853077208E0,-1.103384446E1,-7.915459882E-2,-2.482251510E0,1.130988777E1
4.863145208E0,-1.138336762E1,-4.040607280E-1,-2.083253302E0,1.157947614E1
4.873212208E0,-1.188580366E1,-7.595550674E-1,-1.324830548E0,1.198350652E1
4.883280208E0,-1.301368829E1,-1.274124371E0,-6.935037500E-1,1.309428972E1
4.893347208E0,-1.387645431E1,-1.711580886E0,-3.802356631E-1,1.398678207E1
4.903415208E0,-1.452601097E1,-2.058663421E0,-1.215747231E-1,1.467166897E1
4.913482208E0,-1.495438501E1,-2.079833265E0,-3.174719426E-1,1.510165970E1
4.923549208E0,-1.471309381E1,-1.998305245E0,4.021232530E-2,1.484823122E1
4.933617208E0,-1.401863170E1,-1.758689564E0,5.018219344E-1,1.413742724E1
4.943684208E0,-1.334919217E1,-1.374739457E0,5.981152705E-1,1.343311512E1
4.953752208E0,-1.296951842E1,-9.645727739E-1,-8.353039920E-1,1.303213495E1
4.963819208E0,-1.368257000E1,-8.080281928E-1,-3.123390228E0,1.405778068E1
4.973887208E0,-1.360329345E1,-4.456197401E-1,-2.815550112E0,1.389875865E1
4.983954208E0,-1.362515385E1,-9.186202370E-2,-2.364677160E0,1.382913425E1
4.994022208E0,-1.414338088E1,2.766215399E-2,-1.727971509E0,1.424857443E1
5.004089208E0,-1.400288164E1,1.444009374E-1,-1.126215762E0,1.404884009E1
5.014157208E0,-1.280244242E1,1.549900988E0,-7.679382205E-1,1.291876364E1
5.024224208E0,-1.263503780E1,2.061317472E0,-5.314218557E-1,1.281310342E1
5.034292208E0,-1.327409988E1,2.066595754E0,-7.134643900E-1,1.345293935E1
5.044359208E0,-1.298677823E1,1.853905331E0,-8.203339505E-1,1.314406032E1
5.054427208E0,-1.253061355E1,1.602083294E0,-2.549619913E-1,1.263518707E1
5.064494208E0,-1.233766479E1,1.371074714E0,3.780856419E-1,1.241937064E1
5.074562208E0,-1.127668517E1,1.099514305E0,8.297631705E-1,1.136050470E1
5.084629208E0,-9.864739294E0,6.096217138E-1,7.533260286E-1,9.912225788E0
5.094697208E0,-9.265996690E0,5.163167435E-1,6.289078045E-1,9.301655910E0
5.104764208E0,-8.950281544E0,6.668773571E-1,1.224806907E0,9.058278925E0
5.114832208E0,-8.128327330E0,8.624844816E-1,4.005359094E0,9.102553825E0
5.124899208E0,-6.977378942E0,1.467565467E0,6.780130724E0,9.839092333E0
5.134967208E0,-5.182571420E0,1.827388500E0,7.694777924E0,9.455580498E0
5.145034208E0,8.591319805E0,3.259384551E-1,1.018126545E1,1.332573368E1
5.155102208E0,6.266416108E1,-7.231601846E0,1.446997828E1,6.471841639E1
5.165169208E0,6.990495066E1,-9.978403319E0,1.582561897E1,7.236519104E1
5.175237208E0,6.830401108E1,1.063482447E-1,1.121785048E1,6.921914048E1
5.185304208E0,6.614876013E1,6.913953025E0,2.618463861E0,6.656063076E1
5.195372208E0,3.793281518E1,5.048841505E0,-2.404864488E0,3.834283038E1
5.205439208E0,1.142323744E-1,3.313056947E0,-1.998633040E1,2.025938790E1
5.215507208E0,-2.424592877E1,-6.848025084E-2,-4.950198041E1,5.512091995E1
5.225574208E0,-1.390724809E1,-1.576199133E0,-2.523913682E1,2.886017984E1
5.235642208E0,-5.326797087E0,-1.424615037E0,-8.728355736E0,1.032417014E1
5.245709208E0,-1.755617144E0,-8.163160363E-1,1.013623604E0,2.185405280E0
5.255777208E0,-1.325356797E0,8.615411796E-1,4.931722945E0,5.178871986E0
5.265844208E0,-4.358910989E0,2.096456022E0,3.359695216E0,5.889209183E0
5.275912208E0,-7.188954009E0,2.336532757E0,1.393297935E-1,7.560413868E0
5.285979208E0,-9.391820585E0,1.879898251E0,-2.093876231E0,9.804316856E0
5.296047208E0,-1.039560333E1,1.154328370E0,-3.682535487E0,1.108882817E1
5.306114208E0,-1.082268513E1,4.913389000E-1,-4.298744309E0,1.165551929E1
5.316182208E0,-1.188756367E1,-1.085874724E-1,-4.372964187E0,1.266683769E1
5.326249208E0,-1.324307806E1,-6.275617754E-1,-3.190290561E0,1.363638164E1
5.336317208E0,-1.410238488E1,-1.195737182E0,-2.126724719E0,1.431188334E1
5.346384208E0,-1.437296010E1,-1.606779486E0,-1.596914648E0,1.455039033E1
5.356452208E0,-1.394939014E1,-1.642739277E0,-1.192879356E0,1.409634842E1
5.366519208E0,-1.361953116E1,-1.562558748E0,-1.071679000E0,1.375069870E1
5.376587208E0,-1.384487701E1,-1.579633202E0,-1.864231952E0,1.405884850E1
5.386654208E0,-1.445761960E1,-1.610258871E0,-3.031447440E0,1.485952125E1
5.396722208E0,-1.491087354E1,-1.607915600E0,-3.272769046E0,1.535026252E1
5.406789208E0,-1.502894169E1,-1.412712445E0,-2.137128085E0,1.524572599E1
5.416856208E0,-1.669017191E1,-1.077148340E0,-8.259975636E-1,1.674527870E1
5.426924208E0,-1.720883748E1,-6.643328682E-1,-9.984296143E-1,1.725057353E1
5.436992208E0,-1.558475111E1,8.081729114E-3,8.330797112E-1,1.560700337E1
5.447058833E0,-1.503637467E1,4.726842356E-1,1.422893032E0,1.511094365E1
5.457125833E0,-1.412322903E1,5.430662933E-1,1.113553104E0,1.417746521E1
5.467193833E0,-1.280009652E1,5.268674594E-1,1.099730287E0,1.285805066E1
5.477260833E0,-1.157909848E1,3.278358400E-1,8.495630121E-1,1.161485064E1
5.487328833E0,-9.913888650E0,-1.820074511E-1,-1.721102200E0,1.006382172E1
5.497395833E0,-9.096107594E0,-5.757381955E-1,-2.152243137E0,9.364977221E0
5.507463833E0,-9.388962466E0,-5.080572590E-1,-1.688634950E0,9.553126523E0
5.517530833E0,-9.711554523E0,1.807894760E-1,-1.420551222E0,9.816564667E0
5.527598833E0,-8.818864787E0,4.920589846E-1,-8.918195240E-1,8.877490650E0
5.537665833E0,-8.485844806E0,4.574142319E-1,3.225393590E-1,8.504282538E0
5.547733833E0,-8.412709587E0,3.451350833E-1,2.445229426E0,8.767664898E0
5.557800833E0,-7.562867662E0,4.620446054E-1,5.815216765E0,9.551293029E0
5.567868833E0,-6.207691235E0,9.846591291E-1,7.200884083E0,9.558123019E0
5.577935833E0,-4.675708455E0,1.731236594E0,7.628830687E0,9.113642924E0
5.588003833E0,2.185312065E0,3.274262718E0,6.385874022E0,7.501717950E0
5.598070833E0,5.113247884E1,4.469311098E0,1.303707832E1,5.295725205E1
5.608138833E0,7.051002053E1,6.134457198E-1,1.692921076E1,7.251646357E1
5.618205833E0,6.834088128E1,2.372188785E0,1.395137702E1,6.979071754E1
5.628273833E0,6.771565956E1,5.158028902E0,3.310726539E0,6.799247548E1
5.638340833E0,4.207865480E1,2.462202870E0,-2.806385478E0,4.224395143E1
5.648408833E0,9.323145622E-1,-1.385326133E0,-3.272988785E1,3.277245638E1
5.658475833E0,-1.731895692E1,-5.772626231E0,-4.355382779E1,4.722505053E1
5.668543833E0,-9.535342247E0,-4.827300737E0,-1.350954153E1,1.722594835E1
5.678610833E0,-7.620365088E0,-3.886838956E0,-3.083846093E0,9.093271572E0
5.688678833E0,-6.397457941E0,-2.413230684E0,3.621805721E0,7.737481963E0
5.698745833E0,-6.791490110E0,-8.680178480E-1,3.544828881E0,7.709967879E0
5.708813833E0,-7.846054748E0,2.832191726E-1,1.141138514E0,7.933661533E0
5.718880833E0,-9.350864348E0,9.078069811E-1,-1.506263510E0,9.514809894E0
5.728948833E0,-1.052724052E1,1.093403015E0,-2.866052513E0,1.096506179E1
5.739015833E0,-1.074510661E1,9.524258412E-1,-3.125225377E0,1.123082653E1
5.749083833E0,-1.115806154E1,7.901336664E-1,-2.778237859E0,1.152585155E1
5.759150833E0,-1.156589313E1,6.397149939E-1,-2.141814336E0,1.177991884E1
5.769218833E0,-1.234018377E1,4.286085087E-1,-1.310751622E0,1.241700087E1
5.779285833E0,-1.299382529E1,2.651215285E-1,-1.018338214E0,1.303636444E1
5.789353833E0,-1.392238887E1,2.118416995E-1,-1.868121666E0,1.404876035E1
5.799420833E0,-1.526123402E1,3.577960959E-1,-3.766144824E0,1.572313991E1
5.809488833E0,-1.490857558E1,3.163829718E-1,-3.312939710E0,1.527551288E1
5.819555833E0,-1.451114969E1,3.090689821E-1,-2.679003008E0,1.475960860E1
5.829623833E0,-1.461293919E1,5.642193268E-1,-2.711370270E0,1.487305833E1
5.839690833E0,-1.465781657E1,9.012591228E-1,-2.644367611E0,1.492168002E1
5.849758833E0,-1.525226322E1,1.263942614E0,-1.912515482E0,1.542357935E1
5.859825833E0,-1.674102982E1,2.334352476E0,-1.312620977E0,1.695388612E1
5.869893833E0,-1.624254884E1,2.998757704E0,-1.794399971E0,1.661423521E1
5.879960833E0,-1.691951958E1,3.279229927E0,-1.186779540E0,1.727518271E1
5.890027833E0,-1.659462723E1,3.143526285E0,-3.185469532E-1,1.689274645E1
5.900095833E0,-1.601117334E1,2.308672528E0,-2.151383597E-1,1.617819289E1
5.910162833E0,-1.491008183E1,1.207285214E0,-1.505014928E-1,1.495963664E1
5.920230833E0,-1.250608799E1,3.683839782E-1,1.517597954E-1,1.251243280E1
5.930297833E0,-1.104758424E1,-2.686792303E-1,2.795974803E-1,1.105438740E1
5.940365833E0,-1.017537496E1,-6.263856080E-1,1.108140739E-1,1.019523881E1
5.950432833E0,-8.870692753E0,-8.725124565E-1,-1.051611210E0,8.975319161E0
5.960500833E0,-8.164264317E0,-6.685978273E-1,-1.007885731E0,8.253367103E0
5.970567833E0,-8.423532783E0,-3.475853956E-1,9.668932414E-1,8.485965042E0
5.980635833E0,-8.456581246E0,-1.410933137E-1,2.648703321E0,8.862804464E0
5.990702833E0,-7.690178504E0,2.879932049E-1,4.945727026E0,9.147786690E0
6.000770833E0,-6.720179222E0,9.803304353E-1,6.361014000E0,9.305071501E0
6.010837833E0,-5.615792212E0,1.649639576E0,7.211936490E0,9.288189320E0
6.020905833E0,5.383621498E0,1.805697084E0,8.273958668E0,1.003505428E1
6.030972833E0,6.034967408E1,-2.536420701E0,1.940275021E1,6.344275615E1
6.041040833E0,7.008845032E1,-5.495412076E0,1.962939764E1,7.299249053E1
6.051107833E0,6.831904076E1,1.449304028E0,7.060613472E0,6.869821013E1
6.061175833E0,6.626992847E1,7.338722252E0,-3.098531960E0,6.674699367E1
6.071242833E0,3.670381699E1,5.152496266E0,-8.168961385E0,3.795326507E1
6.081310833E0,-2.426860544E0,2.548850127E0,-3.603269696E1,3.620416467E1
6.091377833E0,-1.183621108E1,-5.068828092E-1,-3.129468409E1,3.346206920E1
6.101445833E0,-7.538116398E0,-1.743553753E0,-1.344424333E1,1.551163619E1
6.111512833E0,-7.226479100E0,-2.011273785E0,-6.197592509E0,9.730229973E0
6.121580833E0,-6.635440203E0,-1.286828324E0,2.462875884E0,7.193799514E0
6.131647833E0,-7.112715088E0,-2.654168129E-2,2.886568931E0,7.676177471E0
6.141715833E0,-7.378437125E0,9.291664213E-1,1.020251423E0,7.506370469E0
6.151782833E0,-8.398883845E0,1.439953745E0,-1.468065112E0,8.646960842E0
6.161850833E0,-9.722090621E0,1.494599922E0,-3.536707098E0,1.045280690E1
6.171917833E0,-1.047225214E1,1.311090906E0,-4.507118610E0,1.147611181E1
6.181985833E0,-1.051794345E1,8.565339895E-1,-4.617947027E0,1.151895046E1
6.192052833E0,-1.098355372E1,3.910676301E-1,-4.608171360E0,1.191749259E1
6.202120833E0,-1.242936433E1,1.988340201E-1,-5.144210762E0,1.345330952E1
6.212187833E0,-1.362453638E1,1.563878757E-1,-6.032385278E0,1.490107784E1
6.222255833E0,-1.414364751E1,-2.763423353E-1,-4.626900869E0,1.488379460E1
6.232322833E0,-1.443375360E1,-6.469903189E-1,-3.235969595E0,1.480619258E1
6.242390833E0,-1.467247905E1,-9.983375207E-1,-2.226477048E0,1.487398801E1
6.252457833E0,-1.500082360E1,-1.203274536E0,-1.690311347E0,1.514363664E1
6.262525833E0,-1.558497213E1,-1.276141075E0,-1.757574938E0,1.573559538E1
6.272592833E0,-1.624153259E1,-1.341541598E0,-1.799076574E0,1.639584677E1
6.282660833E0,-1.597243203E1,-1.512271816E0,-1.091513706E0,1.608095001E1
6.292727833E0,-1.570901497E1,-1.567462808E0,-1.029514582E0,1.582055597E1
6.302795833E0,-1.513695379E1,-1.430033213E0,-1.072545412E0,1.524213629E1
6.312862833E0,-1.464092747E1,-1.357123404E0,-6.624766695E-1,1.471860783E1
6.322930833E0,-1.450241629E1,-1.426067193E0,-3.238129556E-1,1.457595968E1
6.332997833E0,-1.448400341E1,-1.550013693E0,-1.792428875E-1,1.456780784E1
6.343064833E0,-1.378887589E1,-1.765823167E0,-1.744107485E-2,1.390149394E1
6.353132833E0,-1.202269399E1,-2.036779485E0,3.242719620E-1,1.219831110E1
6.363199833E0,-1.001552963E1,-2.288776500E0,9.039210677E-1,1.031340899E1
6.373267833E0,-9.170201172E0,-2.299456878E0,1.114175248E0,9.519531393E0
6.383334833E0,-8.634202116E0,-2.189970981E0,7.132100362E-1,8.936111438E0
6.393402833E0,-8.350597538E0,-2.098572276E0,1.086488682E0,8.678533430E0
6.403469833E0,-8.375168708E0,-2.016352676E0,1.521175371E0,8.747748482E0
6.413537833E0,-8.236676821E0,-1.834421385E0,1.989650781E0,8.669870650E0
6.423604833E0,-7.756022830E0,-1.343405690E0,2.670294750E0,8.312105812E0
6.433672833E0,-6.927488160E0,9.267295942E-2,4.051480762E0,8.025782008E0
6.443739833E0,-3.428204995E0,4.773482087E0,6.261754591E0,8.587682532E0
6.453807875E0,2.621452957E1,1.428386140E1,1.356314997E1,3.279007921E1
6.463874875E0,6.851354254E1,1.373054757E1,2.547809147E1,7.437584684E1
6.473942875E0,6.900833861E1,3.240487738E0,2.660723793E1,7.403105206E1
6.484009875E0,6.877131588E1,7.726130694E-1,1.226451612E1,6.986064109E1
6.494077875E0,5.345574134E1,2.563193932E0,-4.207764557E-1,5.351881256E1
6.504144875E0,3.080504994E0,-5.268748050E-1,-4.414444335E1,4.425493177E1
6.514212875E0,-1.076216761E1,-3.769223091E0,-3.225235510E1,3.420885418E1
6.524279875E0,-7.164460022E0,-4.269287791E0,-8.773480453E0,1.210496860E1
6.534347875E0,-7.022514769E0,-3.649279156E0,-1.018093508E0,7.979314910E0
6.544414875E0,-6.326831177E0,-2.177243200E0,2.848108285E0,7.271925571E0
6.554482875E0,-6.007366211E0,-7.104977321E-1,2.588013023E0,6.579594762E0
6.564549875E0,-7.432471830E0,4.688505086E-1,1.001250311E0,7.514250494E0
6.574617875E0,-9.201235853E0,8.628183576E-1,-3.730482656E-1,9.249127621E0
6.584684875E0,-1.045507419E1,8.375762931E-1,-1.132396634E0,1.054952285E1
6.594752875E0,-1.103421283E1,5.171056060E-1,-1.298150433E0,1.112233993E1
6.604819875E0,-1.121029237E1,2.850713512E-1,-1.039558344E0,1.126199815E1
6.614887875E0,-1.150897400E1,4.241398472E-2,-5.217279030E-1,1.152087156E1
6.624954875E0,-1.197726814E1,-1.804509223E-1,1.164870608E-1,1.197919379E1
6.635022875E0,-1.223699211E1,-2.537749700E-1,5.957790886E-1,1.225411483E1
6.645089875E0,-1.234620874E1,-3.002641717E-1,9.659775674E-1,1.238758013E1
6.655157875E0,-1.234369444E1,-2.106561765E-1,1.267879252E0,1.241042651E1
6.665224875E0,-1.257095466E1,-2.977570318E-2,1.392330805E0,1.264786040E1
6.675292875E0,-1.281146935E1,1.140006054E-1,1.705112404E0,1.292494299E1
6.685359875E0,-1.376299377E1,2.154780098E-1,8.593910122E-1,1.379148220E1
6.695427875E0,-1.380654851E1,6.104558191E-1,6.807585740E-1,1.383679408E1
6.705494875E0,-1.529167580E1,7.136389294E-1,1.759590912E0,1.540911384E1
6.715562875E0,-1.920648608E1,1.631099810E0,1.773990265E0,1.935708231E1
6.725629875E0,-1.991902427E1,2.035095634E0,2.541284122E0,2.018334133E1
6.735697875E0,-1.896273554E1,1.525628026E0,3.641620181E0,1.936941603E1
6.745764875E0,-1.856128208E1,1.352154002E0,3.147545661E0,1.887475978E1
6.755832875E0,-1.729504882E1,7.850546287E-1,3.003518214E0,1.757145828E1
6.765899875E0,-1.582075643E1,-1.782216713E-2,2.731648414E0,1.605486078E1
6.775967875E0,-1.333725215E1,-6.537115471E-1,8.071170504E-1,1.337763326E1
6.786034875E0,-1.060933075E1,-1.267400803E-1,-1.824180279E0,1.076576034E1
6.796102875E0,-9.189348464E0,3.951007470E-1,-3.881301059E0,9.983222310E0
6.806169875E0,-8.675622037E0,6.207230182E-1,-4.356717113E0,9.727933943E0
6.816237875E0,-8.780218200E0,7.105426826E-1,-3.403290009E0,9.443489050E0
6.826304875E0,-9.070211445E0,9.665350994E-1,-1.735303917E0,9.285160496E0
6.836372875E0,-9.235820380E0,1.252172315E0,-1.076039890E-1,9.320938376E0
6.846439875E0,-9.015907769E0,1.221512878E0,1.157224789E0,9.171578698E0
6.856507875E0,-8.305876279E0,1.057623463E0,1.979473118E0,8.603746973E0
6.866574875E0,-6.608797950E0,9.245472671E-1,5.348554577E0,8.552077762E0
6.876641875E0,-4.113810911E0,9.504105252E-1,1.095092041E1,1.173666811E1
6.886709875E0,-4.680777406E0,2.502312723E0,8.526182992E0,1.004325856E1
6.896776875E0,2.718299806E0,1.094387539E0,9.593965262E0,1.003150075E1
6.906844875E0,5.847069238E1,-1.229632030E1,1.847771368E1,6.254156428E1
6.916911875E0,7.046560040E1,-2.656139108E1,1.893809537E1,7.765024014E1
6.926979875E0,6.835814226E1,-1.120720504E1,8.968610226E0,6.984893004E1
6.937046875E0,6.492706628E1,8.643205073E0,-1.723958126E0,6.552252255E1
6.947114875E0,3.434969288E1,8.137026232E0,-1.051148228E1,3.683210362E1
6.957181875E0,-1.955872001E0,1.710406765E0,-4.184496264E1,4.192555098E1
6.967249875E0,-6.691712052E0,-2.427756630E0,-2.859208932E1,2.946490428E1
6.977316875E0,-4.102162673E0,-2.638945488E0,-1.295403616E1,1.384192273E1
6.987384875E0,-5.151430904E0,-1.939502575E0,-4.041973774E0,6.829089440E0
6.997451875E0,-5.864207076E0,-5.430962603E-1,3.150746427E0,6.679152733E0
7.007519875E0,-6.800908805E0,1.082281464E0,2.849080385E0,7.452580276E0
7.017586875E0,-8.135068585E0,2.329890904E0,8.808906394E-1,8.507861119E0
7.027654875E0,-9.897226424E0,2.917735760E0,-1.792408410E0,1.047286975E1
7.037721875E0,-1.117420453E1,3.181761228E0,-3.932881102E0,1.226596939E1
7.047789875E0,-1.148975069E1,3.400003290E0,-4.952035003E0,1.296522441E1
7.057856875E0,-1.213025469E1,3.490667292E0,-5.753013500E0,1.387173390E1
7.067924875E0,-1.336671861E1,3.475157845E0,-5.377691252E0,1.482111506E1
7.077991875E0,-1.432191859E1,3.671656743E0,-5.211658394E0,1.567672793E1
7.088059875E0,-1.494568903E1,3.556871514E0,-5.145907624E0,1.620201595E1
7.098126875E0,-1.529441463E1,3.184691852E0,-4.694924160E0,1.631268506E1
7.108194875E0,-1.541946786E1,2.783886854E0,-3.833090765E0,1.613079663E1
7.118261875E0,-1.572344005E1,2.382975144E0,-3.654571763E0,1.631750692E1
7.128329875E0,-1.634296424E1,2.114323067E0,-3.902630532E0,1.693497468E1
7.138396875E0,-1.670086295E1,1.814996204E0,-3.182006811E0,1.709790051E1
7.148464875E0,-1.703825081E1,1.178337988E0,-1.463291445E0,1.714151956E1
7.158531875E0,-1.733803755E1,7.422277209E-1,5.952407062E-2,1.735401946E1
7.168599875E0,-1.678352504E1,5.994902433E-1,1.103598804E0,1.683044954E1
7.178666875E0,-1.534549942E1,8.651092967E-1,1.886327557E0,1.548518641E1
7.188734875E0,-1.430368814E1,1.160991346E0,2.627531723E0,1.458928779E1
7.198801875E0,-1.353037282E1,9.914986172E-1,2.847410420E0,1.386224384E1
7.208869875E0,-1.199380173E1,5.119811062E-1,2.442776665E0,1.225073722E1
7.218936875E0,-1.057282074E1,3.244883821E-1,2.002947350E0,1.076576189E1
7.229004875E0,-9.811807959E0,4.664709111E-1,1.655416918E0,9.961404304E0
7.239071875E0,-9.361904476E0,6.707580080E-1,1.363481812E0,9.484421668E0
7.249139875E0,-9.004232633E0,9.225997788E-1,1.230395091E0,9.134619190E0
7.259206875E0,-8.460797673E0,1.303129191E0,9.281378961E-1,8.610730684E0
7.269274875E0,-8.094081942E0,1.448060910E0,9.905697870E-1,8.282045121E0
7.279341875E0,-7.797249209E0,1.476793835E0,1.590471894E0,8.093677539E0
7.289409875E0,-7.524027532E0,1.507254613E0,2.875477055E0,8.194582056E0
7.299476875E0,-6.711429448E0,1.963886633E0,3.998135444E0,8.055136434E0
7.309544875E0,3.675489593E-1,2.978571653E0,6.567117827E0,7.220389040E0
7.319611875E0,3.818102948E1,6.172064296E-1,1.582678257E1,4.133592871E1
7.329679875E0,7.008922215E1,-6.382655715E0,2.808877737E1,7.577741596E1
7.339746875E0,6.913766499E1,-3.761671412E0,3.423915244E1,7.724303497E1
7.349814875E0,6.646099209E1,1.189639881E1,2.018450423E1,7.046986580E1
7.359881875E0,4.616092349E1,9.792280598E0,7.082738752E0,4.771671411E1
7.369949875E0,2.390925545E1,-5.673790160E-1,-1.148025598E1,2.652867679E1
7.380016875E0,5.080959091E0,-9.859148186E0,-4.340175808E1,4.479655737E1
7.390084875E0,2.237460458E0,-9.291477687E0,-1.650956428E1,1.907625486E1
7.400151875E0,1.165684540E0,-7.076008607E0,-2.035968331E0,7.454789420E0
7.410219875E0,-1.081198121E0,-4.665425541E0,3.799377474E0,6.113137824E0
7.420286875E0,-3.719479950E0,-2.866106600E0,2.982004554E0,5.562503870E0
7.430354875E0,-5.921878749E0,-1.450134917E0,6.384566000E-1,6.130184828E0
7.440421875E0,-7.734984548E0,-4.006170103E-1,-1.054176384E0,7.816761976E0
7.450490208E0,-9.132203625E0,5.552282095E-2,-2.202723320E0,9.394265052E0
7.460557208E0,-1.017733729E1,3.223628461E-1,-3.175205914E0,1.066602291E1
7.470625208E0,-1.064129397E1,1.380398977E-1,-3.318753304E0,1.114765966E1
7.480692208E0,-1.097306265E1,-1.629654086E-1,-3.040535182E0,1.138769142E1
7.490760208E0,-1.146970176E1,-4.014066768E-1,-2.550395839E0,1.175668766E1
7.500827208E0,-1.236656641E1,-6.558210763E-1,-2.373501485E0,1.260934476E1
7.510895208E0,-1.413050998E1,-8.870050728E-1,-3.481354139E0,1.458005203E1
7.520962208E0,-1.506079615E1,-1.132275304E0,-3.416042494E0,1.548479817E1
7.531029208E0,-1.523443272E1,-1.284231575E0,-2.395577356E0,1.547501154E1
7.541097208E0,-1.501501596E1,-1.344780663E0,-8.013581277E-1,1.509640070E1
7.551165208E0,-1.417220999E1,-1.363628870E0,-2.261469857E-1,1.423945793E1
7.561232208E0,-1.434163189E1,-1.344912225E0,-2.028803737E0,1.454672605E1
7.571299208E0,-1.487211235E1,-1.115433861E0,-3.050958429E0,1.522275486E1
7.581367208E0,-1.581873680E1,-7.593033448E-1,-1.489845990E0,1.590687325E1
7.591434208E0,-1.926784208E1,-2.943824574E-1,-9.136414790E-1,1.929173762E1
7.601502208E0,-1.740541502E1,2.811552151E-1,-1.372350869E0,1.746169714E1
7.611569208E0,-1.601157914E1,1.050290324E0,-5.626109040E-1,1.605584963E1
7.621637208E0,-1.545537678E1,9.888904667E-1,2.161224095E-1,1.548848878E1
7.631704208E0,-1.678448282E1,5.809653139E-1,1.027291471E0,1.682592380E1
7.641772208E0,-1.633239364E1,-1.699341202E-1,1.191573672E0,1.637668488E1
7.651839208E0,-1.382155013E1,-6.675330493E-1,7.377508003E-1,1.385731303E1
7.661907208E0,-1.200809934E1,-7.616173804E-1,3.562322581E-1,1.203750025E1
7.671974208E0,-1.055372490E1,-7.969798788E-1,2.442942945E-1,1.058659369E1
7.682042208E0,-9.307996071E0,-5.541848104E-1,-2.125276510E-1,9.326900861E0
7.692109208E0,-8.745782778E0,-1.268082735E-1,1.560399663E-1,8.748093804E0
7.702177208E0,-8.735398123E0,3.208069021E-1,7.338746079E-1,8.772039066E0
7.712244208E0,-8.646851982E0,6.667021599E-1,1.724776590E0,8.842363669E0
7.722312208E0,-7.830318137E0,8.904137072E-1,4.034965886E0,8.853681065E0
7.732379208E0,-6.442887883E0,1.216050409E0,6.927120370E0,9.538059524E0
7.742447208E0,-5.169407583E0,1.612166525E0,8.707455449E0,1.025385957E1
7.752514208E0,6.237926602E-2,2.070656353E0,8.262848958E0,8.518578626E0
7.762582208E0,4.868051678E1,-1.578003876E0,1.576639135E1,5.119435425E1
7.772649208E0,7.066056529E1,-1.005637360E1,1.678447931E1,7.331960776E1
7.782717208E0,6.836942505E1,-9.768380688E0,7.279161928E0,6.944627953E1
7.792784208E0,6.837691884E1,-1.400985854E0,-5.001179681E0,6.857388417E1
7.802852208E0,4.339101791E1,1.076305756E-1,-1.488287941E1,4.587256391E1
7.812919208E0,4.394383707E0,8.954759341E-1,-2.644829892E1,2.682582712E1
7.822987208E0,-1.192494024E1,1.386702275E0,-3.407429137E1,3.612733695E1
7.833054208E0,-8.539755549E0,5.331728044E-1,-1.292993862E1,1.550467706E1
7.843122208E0,-7.266805592E0,2.184516113E-1,-3.383879885E0,8.019029099E0
7.853189208E0,-7.066889289E0,5.378827366E-1,2.855158273E0,7.640822654E0
7.863257208E0,-6.905383345E0,1.150165738E0,3.505511618E0,7.829164200E0
7.873324208E0,-7.584652049E0,1.649557715E0,1.364559454E0,7.880990411E0
7.883392208E0,-9.034860933E0,1.989954398E0,-1.434342172E0,9.361942537E0
7.893459208E0,-1.027354738E1,2.099288852E0,-3.441517351E0,1.103616016E1
7.903527208E0,-1.060173171E1,2.137846708E0,-4.057952460E0,1.155136710E1
7.913594208E0,-1.099306480E1,2.044280732E0,-3.813418978E0,1.181392068E1
7.923662208E0,-1.199587164E1,1.989971647E0,-3.137837821E0,1.255814277E1
7.933729208E0,-1.336654553E1,2.391353619E0,-3.855302876E0,1.411546924E1
7.943797208E0,-1.512588151E1,3.298208528E0,-6.233065227E0,1.668896560E1
7.953864208E0,-1.531272343E1,3.342554396E0,-4.342773843E0,1.626382038E1
7.963932208E0,-1.540263958E1,3.289575114E0,-2.318896970E0,1.591979565E1
7.973999208E0,-1.483196302E1,3.235468781E0,-1.450272034E0,1.524987457E1
7.984067208E0,-1.424045167E1,3.394583798E0,-7.718332701E-1,1.465978818E1
7.994134208E0,-1.456778582E1,3.931470754E0,-1.483491967E-1,1.508969362E1
8.004202208E0,-1.465563556E1,3.906007884E0,-2.382202435E-1,1.516909029E1
8.014269208E0,-1.451853005E1,3.948904812E0,1.804573725E-1,1.504706379E1
8.024337208E0,-1.409581728E1,4.004794545E0,4.741589034E-1,1.466135297E1
8.034404208E0,-1.366764205E1,3.850484186E0,6.203240919E-1,1.421321462E1
8.044472208E0,-1.372487460E1,3.454401983E0,8.055229533E-1,1.417582248E1
8.054539208E0,-1.367329865E1,2.804243643E0,1.058508586E0,1.399797553E1
8.064607208E0,-1.323319978E1,2.000963535E0,1.207357646E0,1.343797395E1
8.074674208E0,-1.238316314E1,1.235258513E0,1.318009186E0,1.251422156E1
8.084742208E0,-1.130112419E1,7.520819604E-1,1.049262384E0,1.137462029E1
8.094809208E0,-1.058023968E1,5.474043426E-1,5.699164152E-1,1.060970914E1
8.104877208E0,-9.600890120E0,4.432739468E-1,-3.059502965E-1,9.615986089E0
8.114944208E0,-8.443733159E0,6.298916716E-1,-9.911732197E-1,8.525011292E0
8.125012208E0,-7.941034580E0,7.642662422E-1,-1.205281446E-1,7.978637737E0
8.135079208E0,-7.762872258E0,6.957482037E-1,9.522623384E-1,7.851945926E0
8.145147208E0,-7.798456659E0,7.774691820E-1,2.156050259E0,8.128280095E0
8.155214208E0,-7.764431126E0,7.921071017E-1,4.063723662E0,8.799299652E0
8.165282208E0,-7.604651281E0,7.994678691E-1,5.262269554E0,9.282313873E0
8.175349208E0,-6.623276240E0,1.063053042E0,5.831191943E0,8.888232074E0
8.185417208E0,-5.255842879E0,2.259318520E0,6.940139195E0,8.994105659E0
8.195484208E0,1.420276169E1,3.193330529E0,9.131142356E0,1.718410778E1
8.205552208E0,6.519829757E1,-2.772439760E0,1.860644949E1,6.785797219E1
8.215619208E0,6.963331241E1,-7.416259840E0,2.182195383E1,7.334846130E1
8.225687208E0,6.853293191E1,1.329311854E0,1.022611944E1,6.930442515E1
8.235754208E0,6.437730639E1,5.195710698E0,3.822573379E-1,6.458776284E1
8.245822208E0,3.304097375E1,1.837643055E0,-6.208040314E0,3.366931308E1
8.255889208E0,-2.730158544E-1,-1.621305723E0,-3.045732071E1,3.050166478E1
8.265957208E0,-1.459538936E1,-5.416293985E0,-3.871574332E1,4.172853235E1
8.276024208E0,-9.471222265E0,-4.906494548E0,-1.660906518E1,1.973927015E1
8.286092208E0,-7.245807656E0,-3.546532760E0,-5.919011859E0,1.000571460E1
8.296159208E0,-5.633473023E0,-1.159148669E0,8.430109146E-1,5.812943432E0
8.306227208E0,-5.631841065E0,9.910901892E-1,2.541600164E0,6.257765172E0
8.316294208E0,-7.708977302E0,1.877528667E0,1.283424367E0,8.037451278E0
8.326362208E0,-9.165347398E0,2.029305867E0,-8.917974508E-1,9.429579944E0
8.336429208E0,-1.047426241E1,1.737258349E0,-2.220808758E0,1.084713009E1
8.346497208E0,-1.095142795E1,1.302056812E0,-2.560107479E0,1.132180535E1
8.356564208E0,-1.113401778E1,1.023762238E0,-2.338446843E0,1.142290571E1
8.366632208E0,-1.140822413E1,7.945895371E-1,-2.213774557E0,1.164816501E1
8.376699208E0,-1.225726791E1,6.498428831E-1,-2.502628180E0,1.252701322E1
8.386767208E0,-1.405413131E1,7.377725811E-1,-4.034507757E0,1.464036093E1
8.396834208E0,-1.528546839E1,7.771943629E-1,-3.861791239E0,1.578489806E1
8.406902208E0,-1.532079961E1,4.848872285E-1,-1.791424177E0,1.543279679E1
8.416969208E0,-1.548856324E1,3.196824825E-1,-1.357100454E0,1.555118998E1
8.427037208E0,-1.583470788E1,4.875630605E-1,-1.607454547E0,1.592355493E1
8.437104208E0,-1.546990127E1,1.035292362E0,-7.120301411E-1,1.552084606E1
8.447172208E0,-1.425657829E1,1.511742205E0,6.247161549E-2,1.433664158E1
8.457238750E0,-1.311467321E1,1.887256972E0,3.586360484E-1,1.325462229E1
8.467306750E0,-1.373245025E1,2.986567136E0,7.567501581E-1,1.407382123E1
8.477373750E0,-1.361884587E1,3.574687103E0,1.437935944E-1,1.408091003E1
8.487440750E0,-1.473315677E1,3.761379928E0,7.097923386E-1,1.522227620E1
8.497508750E0,-1.552816877E1,3.406403652E0,1.652273455E0,1.598304160E1
8.507575750E0,-1.583777299E1,2.983644698E0,1.229111627E0,1.616316505E1
8.517643750E0,-1.539874884E1,2.334067863E0,4.625510108E-1,1.558150481E1
8.527710750E0,-1.302526928E1,1.602905998E0,-4.635579014E-1,1.313171099E1
8.537778750E0,-1.056413177E1,1.145270887E0,-2.224905317E0,1.085646025E1
8.547845750E0,-8.154829835E0,9.378805999E-1,-5.936802013E0,1.013047323E1
8.557913750E0,-6.688099642E0,7.195081452E-1,-6.761317892E0,9.537493824E0
8.567980750E0,-6.982133313E0,8.184757054E-1,-3.862589384E0,8.021202206E0
8.578048750E0,-7.385934425E0,7.927513918E-1,-1.388331310E0,7.556979947E0
8.588115750E0,-7.596734735E0,7.011790976E-1,1.451698755E0,7.765916562E0
8.598183750E0,-7.413558426E0,9.598567021E-1,5.128402230E0,9.065466499E0
8.608250750E0,-6.999158651E0,1.486812747E0,8.485282888E0,1.109949817E1
8.618318750E0,-6.013621563E0,1.781267125E0,9.942873298E0,1.175573419E1
8.628385750E0,-4.245262751E0,1.794030427E0,1.048311860E1,1.145148797E1
8.638453750E0,1.036657541E1,-4.305005215E-2,1.206663114E1,1.590821568E1
8.648520750E0,6.530242946E1,-1.305385398E1,1.954837979E1,6.940424735E1
8.658588750E0,6.971688081E1,-1.844214974E1,1.135108631E1,7.300276377E1
8.668655750E0,6.841117417E1,-3.780742398E-1,3.794750572E0,6.851738336E1
8.678723750E0,5.797997066E1,1.152829320E1,1.839372515E0,5.914356966E1
8.688790750E0,2.873370654E1,6.258726318E0,-2.905155183E0,2.955059176E1
8.698858750E0,3.176271862E-1,-4.324229398E-1,-3.027452739E1,3.027928145E1
8.708925750E0,-1.696063954E1,-3.781976453E0,-4.948671216E1,5.244903546E1
8.718993750E0,-5.421095719E0,-2.718126436E0,-1.603899440E1,1.714718144E1
8.729060750E0,-1.647675789E0,-2.249577497E0,-4.500537861E0,5.294362611E0
8.739128750E0,-9.546199358E-1,-1.736925350E0,4.524400348E0,4.939474405E0
8.749195750E0,-4.088695951E0,-5.106993234E-1,4.858829216E0,6.370751111E0
8.759263750E0,-7.437488156E0,4.091994072E-1,1.427562034E0,7.584300072E0
8.769330750E0,-9.657906319E0,7.366795903E-1,-6.900842983E-1,9.710513253E0
8.779398750E0,-1.118228772E1,8.092689720E-1,-1.473243991E0,1.130791416E1
8.789465750E0,-1.151918324E1,6.208614510E-1,-1.158014748E0,1.159387983E1
8.799533750E0,-1.179035020E1,3.326709392E-1,-6.087697014E-1,1.181074207E1
8.809600750E0,-1.240979838E1,1.161286265E-2,1.390023494E-1,1.241058227E1
8.819668750E0,-1.304243086E1,-4.447392225E-1,9.717158787E-1,1.308613875E1
8.829735750E0,-1.301105587E1,-6.532807535E-1,1.285738549E0,1.309074002E1
8.839803750E0,-1.268458477E1,-6.159111983E-1,1.324908316E0,1.276845407E1
8.849870750E0,-1.247890311E1,-4.432923290E-1,8.610639006E-1,1.251642769E1
8.859938750E0,-1.316602580E1,-4.937304843E-2,-1.121314698E0,1.321378143E1
8.870005750E0,-1.422572020E1,1.755630154E-1,-2.694877614E0,1.447978946E1
8.880073750E0,-1.495825236E1,-1.676352143E-1,-2.428239902E0,1.515499139E1
8.890140750E0,-1.652128911E1,-6.258436442E-1,-1.927665617E0,1.664513650E1
8.900208750E0,-2.326916309E1,-7.428462102E-1,-2.618669683E0,2.342782965E1
8.910275750E0,-2.390705222E1,-1.206771463E0,-2.179913331E0,2.403654437E1
8.920343750E0,-2.094169527E1,-1.460048871E0,-1.168330990E0,2.102501702E1
8.930410750E0,-1.697697433E1,-1.257300762E0,-3.515696883E-2,1.702350429E1
8.940478750E0,-1.482429148E1,-1.069803945E0,1.369885797E-2,1.486284919E1
8.950545750E0,-1.358476362E1,-1.219393263E0,5.777025676E-1,1.365161026E1
8.960613750E0,-1.308316256E1,-9.845559257E-1,1.639718898E0,1.322222262E1
8.970680750E0,-1.280442579E1,-6.275132436E-1,2.120437793E0,1.299397357E1
8.980748750E0,-1.165429602E1,-7.112114578E-1,1.610627831E0,1.178654145E1
8.990815750E0,-1.031955444E1,-7.769891256E-1,6.378704166E-1,1.036840367E1
9.000883750E0,-8.996892623E0,-6.002468364E-1,-1.815584580E-1,9.018721451E0
9.010950750E0,-8.368653740E0,-2.952259183E-1,1.370575655E-1,8.374981107E0
9.021018750E0,-8.372166163E0,1.148820366E-1,9.220171038E-1,8.423566921E0
9.031085750E0,-8.378678792E0,3.220377409E-1,2.375557659E0,8.714886160E0
9.041153750E0,-7.686711105E0,3.426836747E-1,5.325535258E0,9.357579040E0
9.051220750E0,-6.276390756E0,6.923191041E-1,7.986147603E0,1.018091058E1
9.061288750E0,-3.674611341E0,2.072177213E0,1.054948450E1,1.136170366E1
9.071355750E0,2.895573351E0,4.087474175E0,9.522947904E0,1.076003378E1
9.081423750E0,5.182537389E1,2.372730530E0,1.766969279E1,5.480617915E1
9.091490750E0,7.060445073E1,-5.768545459E0,2.451004516E1,7.496003530E1
9.101558750E0,6.844750175E1,-1.804426192E0,2.057170685E1,7.149483599E1
9.111625750E0,6.788459732E1,6.752989118E0,6.956750550E0,6.857344816E1
9.121693750E0,4.420656416E1,4.587494144E0,-9.585785007E-1,4.445429440E1
9.131760750E0,5.654203157E0,-1.746049637E0,-3.745628114E1,3.792086100E1
9.141828750E0,-6.044974333E0,-5.789149293E0,-2.850369111E1,2.970717710E1
9.151895750E0,-5.992150002E0,-5.905785457E0,-1.126894112E1,1.406318589E1
9.161963750E0,-7.824732876E0,-5.353615342E0,-6.904194607E0,1.172840761E1
9.172030750E0,-7.651474029E0,-3.812754734E0,-2.100057615E0,8.802976512E0
9.182098750E0,-7.356979598E0,-1.547906502E0,-4.808364236E-1,7.533416689E0
9.192165750E0,-7.710825022E0,4.644444855E-1,-8.134868610E-1,7.767515181E0
9.202233750E0,-8.717615570E0,1.589623755E0,-1.994003448E0,9.082938658E0
9.212300750E0,-9.794436466E0,1.927831094E0,-3.386544169E0,1.054116691E1
9.222368750E0,-1.033949929E1,1.754487024E0,-4.048694564E0,1.124168128E1
9.232435750E0,-1.055290278E1,1.431539017E0,-4.307036538E0,1.148754216E1
9.242503750E0,-1.074733791E1,1.323810939E0,-4.955503571E0,1.190860038E1
9.252570750E0,-1.152829787E1,1.546317229E0,-6.692638251E0,1.341954379E1
9.262638750E0,-1.303021369E1,1.811487290E0,-7.337396103E0,1.506337733E1
9.272705750E0,-1.386505224E1,1.478461461E0,-5.528123739E0,1.499952246E1
9.282773750E0,-1.409415668E1,1.090937536E0,-3.352757787E0,1.452846798E1
9.292840750E0,-1.394189284E1,8.295880464E-1,-2.107739394E0,1.412470027E1
9.302908750E0,-1.384724045E1,7.684683437E-1,-1.789729362E0,1.398355259E1
9.312975750E0,-1.380829332E1,9.794730143E-1,-1.910083625E0,1.397414581E1
9.323043750E0,-1.361193797E1,1.156651250E0,-1.638595063E0,1.375891315E1
9.333110750E0,-1.360197315E1,1.156022967E0,-1.124604342E0,1.369725511E1
9.343178750E0,-1.330071992E1,1.083782810E0,-2.949908602E-1,1.334806185E1
9.353245750E0,-1.292394990E1,9.211501810E-1,6.219753456E-1,1.297165571E1
9.363313750E0,-1.412374593E1,8.815428963E-1,8.631425858E-1,1.417752912E1
9.373380750E0,-1.407025794E1,1.154205579E0,4.273648059E-1,1.412398632E1
9.383448750E0,-1.405287299E1,1.649401010E0,3.958062867E-1,1.415487286E1
9.393515750E0,-1.389300544E1,2.083854103E0,5.230908159E-1,1.405815322E1
9.403583750E0,-1.320471331E1,2.028390047E0,1.282731764E0,1.342103650E1
9.413650750E0,-1.239508795E1,1.458527426E0,1.583243566E0,1.258062669E1
9.423718750E0,-1.108191675E1,7.737173161E-1,-1.794241329E-1,1.111034250E1
9.433785750E0,-9.505493966E0,3.058609072E-1,-1.495271037E0,9.627242695E0
9.443853750E0,-8.746737628E0,2.228584385E-1,-9.222333777E-1,8.798045204E0
9.453921083E0,-7.741106583E0,4.234957399E-1,-4.790744383E-2,7.752830121E0
9.463989083E0,-6.799085058E0,7.204263774E-1,1.542908303E0,7.009075390E0
9.474056083E0,-6.386312563E0,1.127792536E0,3.828000180E0,7.530636729E0
9.484124083E0,-6.095180866E0,1.159573615E0,6.794348813E0,9.201033450E0
9.494191083E0,-5.415364863E0,1.313087584E0,7.799801518E0,9.585785274E0
9.504259083E0,-4.005325180E0,1.940593519E0,7.868466541E0,9.039983336E0
9.514326083E0,-1.848992500E0,2.607831869E0,5.961291322E0,6.764359137E0
9.524394083E0,3.910688931E1,-9.639581584E-1,1.056708696E1,4.052087528E1
9.534461083E0,7.078015254E1,-9.104545711E0,1.932176861E1,7.393276330E1
9.544529083E0,6.861025081E1,-8.506317662E0,2.038247692E1,7.207752300E1
9.554596083E0,6.762312387E1,-4.191669511E0,8.976703942E0,6.834499388E1
9.564664083E0,4.152304301E1,-4.710336835E0,-5.378750768E0,4.213408755E1
9.574731083E0,8.043635089E0,-3.587239613E0,-1.407399898E1,1.660258416E1
9.584799083E0,-1.000745696E1,-3.076022519E0,-2.366072539E1,2.587355862E1
9.594866083E0,-1.059677561E1,-2.431534808E0,-1.122354333E1,1.562600204E1
9.604934083E0,-9.311713731E0,-2.024059599E0,-4.720203135E0,1.063415006E1
9.615001083E0,-8.401206944E0,-1.180360686E0,-1.143018686E0,8.560375061E0
9.625069083E0,-8.643789795E0,-2.262795713E-1,-4.201272686E-1,8.656951622E0
9.635136083E0,-9.585810735E0,5.784852174E-1,-3.387128305E-1,9.609221560E0
9.645204083E0,-1.029078029E1,1.232912025E0,1.810417834E-1,1.036595423E1
9.655271083E0,-1.098168378E1,1.672282042E0,8.478165950E-1,1.114058791E1
9.665339083E0,-1.144031365E1,1.859591163E0,1.255408895E0,1.165825490E1
9.675406083E0,-1.148066880E1,2.111269943E0,1.549347256E0,1.177555492E1
9.685474083E0,-1.130080844E1,2.580912457E0,1.573203165E0,1.169804893E1
9.695541083E0,-1.098205099E1,3.227718004E0,1.562055595E0,1.155264581E1
9.705609083E0,-1.088793888E1,3.382820077E0,1.656593962E0,1.152106715E1
9.715676083E0,-1.091013842E1,3.165994796E0,1.827017494E0,1.150619991E1
9.725744083E0,-1.109843865E1,2.879640565E0,2.069769915E0,1.165124962E1
9.735811083E0,-1.136932027E1,2.711726366E0,1.827896916E0,1.183030475E1
9.745879083E0,-1.165823704E1,2.482772790E0,1.040780997E0,1.196502723E1
9.755946083E0,-1.182849860E1,2.287812002E0,-3.126296441E-1,1.205177167E1
9.766014083E0,-1.263374206E1,2.157677101E0,-2.726505203E0,1.310346670E1
9.776081083E0,-1.443879274E1,2.036654501E0,-6.057445275E0,1.578984929E1
9.786149083E0,-1.720844805E1,1.907344204E0,-9.891789683E0,1.994031468E1
9.796216083E0,-1.718297290E1,1.571556736E0,-8.176003772E0,1.909375254E1
9.806284083E0,-1.605464388E1,1.117705797E0,-5.763370673E0,1.709436451E1
9.816351083E0,-1.491083612E1,5.309360252E-1,-4.064663894E0,1.546403632E1
9.826419083E0,-1.264680006E1,-3.069934398E-1,-2.695126120E0,1.293443086E1
9.836486083E0,-9.120615613E0,-3.508960160E-1,-1.538284324E0,9.256083181E0
9.846554083E0,-7.480097986E0,-2.098728689E-1,-9.446698020E-1,7.542434192E0
9.856621083E0,-6.835043680E0,-3.904153001E-1,-7.217523066E-1,6.884124680E0
9.866689083E0,-7.056575385E0,-3.828227271E-1,-4.755786804E-1,7.082936149E0
9.876756083E0,-7.024729110E0,-3.334719346E-1,-3.385918663E-1,7.040785968E0
9.886824083E0,-7.148034024E0,2.656857848E-2,2.801880491E-1,7.153572649E0
9.896891083E0,-7.514309460E0,6.460041860E-1,1.550319064E0,7.699717999E0
9.906959083E0,-7.535849433E0,1.200055936E0,3.473912680E0,8.384344353E0
9.917026083E0,-7.380760224E0,1.658789592E0,6.068922189E0,9.698403009E0
9.927094083E0,-6.702147578E0,2.028030151E0,8.427615309E0,1.095702461E1
9.937161083E0,-4.938848362E0,2.789776754E0,9.332815163E0,1.092137887E1
9.947229083E0,-4.362841487E-2,3.079819993E0,8.847368794E0,9.368197757E0
9.957296083E0,4.779700717E1,-5.713208579E0,1.375308391E1,5.006337947E1
9.967364083E0,7.079564532E1,-1.692920140E1,1.573467489E1,7.447282223E1
9.977431083E0,6.850989388E1,-1.237223119E1,6.541636831E0,6.992475010E1
9.987499083E0,6.681265300E1,-3.054733099E0,-1.710081660E0,6.690430759E1
9.997566083E0,4.168016471E1,-1.750178649E0,-5.654903069E0,4.209842259E1
1.000763408E1,1.403395140E1,-1.157494638E0,-7.105811865E0,1.577289283E1
1.001770108E1,-6.516865686E0,1.005777225E0,-2.486361694E1,2.572315248E1
1.002776908E1,-8.269490810E0,1.321843205E0,-1.336981880E1,1.577605155E1
1.003783608E1,-6.094994924E0,1.160189327E0,-4.041600721E0,7.404697076E0
1.004790408E1,-5.854156882E0,1.347398753E0,-1.148233818E0,6.115969024E0
1.005797108E1,-5.939692292E0,1.683297319E0,-9.532028630E-1,6.246761568E0
1.006803908E1,-6.598475275E0,2.070866852E0,-2.005015802E0,7.200587048E0
1.007810608E1,-7.736862089E0,2.401036609E0,-2.744666947E0,8.553198725E0
1.008817408E1,-9.013772365E0,2.737192159E0,-2.841074377E0,9.839309772E0
1.009824108E1,-1.012484216E1,2.789076550E0,-2.935336756E0,1.090447516E1
1.010830908E1,-1.044919890E1,2.448757928E0,-2.746805274E0,1.107822695E1
1.011837608E1,-1.043910427E1,2.301565530E0,-2.142237967E0,1.090235229E1
1.012844408E1,-1.044672904E1,2.446616093E0,-1.373424710E0,1.081694843E1
1.013851108E1,-1.085909106E1,2.602123817E0,-6.216783071E-1,1.118380038E1
1.014857908E1,-1.136543070E1,2.670495602E0,-3.492614999E-2,1.167500671E1
1.015864608E1,-1.158993922E1,2.633109674E0,-1.113527669E-1,1.188580486E1
1.016871408E1,-1.183067728E1,2.513282976E0,-5.387495863E-1,1.210668275E1
1.017878108E1,-1.274368609E1,2.363994205E0,-2.778123838E0,1.325548851E1
1.018884908E1,-1.530404149E1,2.313857839E0,-6.637265704E0,1.684104866E1
1.019891608E1,-1.690299184E1,1.986007089E0,-7.360149958E0,1.854257708E1
1.020898408E1,-1.843152301E1,1.662772423E0,-7.593287217E0,2.000359626E1
1.021905108E1,-1.833104914E1,1.041479155E0,-5.260256943E0,1.909927602E1
1.022911908E1,-1.749289053E1,1.929554487E-1,-2.811384555E0,1.771841794E1
1.023918608E1,-1.630552920E1,-5.713439398E-1,-1.065917300E0,1.635031792E1
1.024925408E1,-1.471014915E1,-1.134318321E0,-1.076180041E-2,1.475382262E1
1.025932108E1,-1.280378845E1,-1.318704712E0,2.505601343E-1,1.287395670E1
1.026938908E1,-1.125007332E1,-1.178177117E0,7.038106370E-1,1.133347257E1
1.027945608E1,-1.039886841E1,-8.949347743E-1,1.234264778E0,1.051003245E1
1.028952408E1,-9.689553205E0,-6.295735100E-1,1.723187901E0,9.861702726E0
1.029959108E1,-8.965162708E0,-2.908764487E-1,1.901192933E0,9.169148600E0
1.030965908E1,-8.104246742E0,1.132942252E-1,1.736235963E0,8.288918274E0
1.031972608E1,-7.766300481E0,4.749500316E-1,1.760624115E0,7.977518284E0
1.032979408E1,-7.636710395E0,7.801132929E-1,2.389213246E0,8.039668049E0
1.033986108E1,-7.277284972E0,7.931321186E-1,3.406738697E0,8.074267996E0
1.034992908E1,-6.775262332E0,5.812524122E-1,3.808458200E0,7.793996914E0
1.035999608E1,-6.696369944E0,4.555057007E-1,3.950588810E0,7.788196699E0
1.037006308E1,-6.931767152E0,6.123616460E-1,4.972242980E0,8.552636020E0
1.038013108E1,-6.432597953E0,1.276558859E0,6.556246684E0,9.273202765E0
1.039019808E1,-1.608604694E0,3.188130015E0,7.983333338E0,8.745592790E0
1.040026608E1,3.700831659E1,5.871499724E0,1.406941828E1,4.002547359E1
1.041033308E1,7.024640466E1,2.078063605E0,2.352153359E1,7.410896207E1
1.042040108E1,6.895475940E1,1.242055901E0,2.106036100E1,7.210991855E1
1.043046908E1,6.831415249E1,4.797843049E0,1.475102353E1,7.005309003E1
1.044053608E1,4.723113703E1,1.816754754E0,6.872181101E0,4.776303776E1
1.045060396E1,1.565820968E1,-1.079530203E0,-7.978781281E0,1.760698346E1
1.046067096E1,-8.713488021E0,-8.212406783E0,-4.778247801E1,4.925985895E1
1.047073796E1,-6.752585660E0,-7.505650903E0,-2.066759651E1,2.300177720E1
1.048080596E1,-3.867626760E0,-5.494423311E0,-6.409404387E0,9.285886543E0
1.049087296E1,-2.983211419E0,-4.171127950E0,-6.576842916E-1,5.170145779E0
1.050094096E1,-3.533402252E0,-2.850360925E0,8.815537137E-1,4.624567637E0
1.051100796E1,-6.111340815E0,-1.499964889E0,-5.110311529E-1,6.313440747E0
1.052107596E1,-7.869774563E0,-4.784551451E-1,-1.775454408E0,8.081739253E0
1.053114396E1,-8.849223531E0,7.414035559E-2,-2.098543478E0,9.094951271E0
1.054121096E1,-9.935303493E0,3.607123216E-1,-2.147301363E0,1.017109984E1
1.055127796E1,-1.108855568E1,4.350685491E-1,-1.862382332E0,1.125228065E1
1.056134596E1,-1.171666827E1,2.409438765E-1,-1.011408094E0,1.176270868E1
1.057141296E1,-1.245895475E1,-7.664384097E-2,3.102497542E-1,1.246305270E1
1.058148096E1,-1.293372761E1,-3.025495559E-1,1.020360181E0,1.297744124E1
1.059154796E1,-1.311089474E1,-3.721489638E-1,1.066470155E0,1.315946102E1
1.060161596E1,-1.298918027E1,-2.860276268E-1,8.006386279E-1,1.301697500E1
1.061168396E1,-1.240657305E1,1.022948451E-2,1.905168309E-1,1.240803998E1
1.062175096E1,-1.199013085E1,4.148810736E-1,-8.861170270E-2,1.199763377E1
1.063181796E1,-1.203997719E1,1.028363192E0,-2.175286430E0,1.227804759E1
1.064188596E1,-1.421662076E1,1.518010566E0,-5.904844056E0,1.546880232E1
1.065195296E1,-1.464344528E1,1.701935904E0,-4.870810161E0,1.552584514E1
1.066202096E1,-1.482366466E1,1.906475016E0,-3.377564015E0,1.532265054E1
1.067208796E1,-1.897824118E1,2.438515799E0,-2.289915830E0,1.927079947E1
1.068215596E1,-1.948394933E1,2.617545263E0,-1.570580251E0,1.972162637E1
1.069222296E1,-1.833244311E1,2.789231794E0,2.896102524E-1,1.854567763E1
1.070229096E1,-1.689821935E1,2.636821487E0,1.593557469E0,1.717678870E1
1.071235796E1,-1.645324156E1,1.940021954E0,1.732905974E0,1.665760505E1
1.072242596E1,-1.463213326E1,9.768820399E-1,1.804623828E0,1.477532705E1
1.073249296E1,-1.215056090E1,3.010500374E-1,1.524346316E0,1.224950583E1
1.074256096E1,-1.008485188E1,-2.475301802E-1,1.091344210E0,1.014675026E1
1.075262796E1,-9.096229801E0,-4.202887979E-1,6.481404662E-1,9.128971756E0
1.076269596E1,-8.684340236E0,-4.119152927E-1,1.050554691E0,8.757345756E0
1.077276296E1,-8.448626693E0,-2.798512495E-1,1.932214751E0,8.671278082E0
1.078283096E1,-8.217647057E0,4.431488712E-2,2.954110411E0,8.732608733E0
1.079289796E1,-7.857602999E0,4.332617229E-1,4.494750579E0,9.062694047E0
1.080296596E1,-7.345027304E0,8.455760881E-1,5.771326395E0,9.379372760E0
1.081303296E1,-6.412644914E0,1.150009032E0,6.584727302E0,9.263000011E0
1.082310096E1,-4.962493333E0,1.544245268E0,7.085708553E0,8.787394336E0
1.083316796E1,9.834154848E0,2.683907068E-1,8.684718550E0,1.312276539E1
1.084323596E1,6.442812103E1,-9.016274389E0,1.549891983E1,6.687669624E1
1.085330296E1,6.982267799E1,-1.253008964E1,1.184135663E1,7.191958868E1
1.086337096E1,6.848332881E1,-4.719439781E-1,7.381225078E0,6.888157620E1
1.087343796E1,6.401820315E1,6.044885455E0,2.153407903E0,6.433900947E1
1.088350596E1,3.391411040E1,3.504693593E0,-3.310392956E0,3.425505018E1
1.089357296E1,3.477157885E-1,1.582200715E0,-2.674305940E1,2.679207889E1
1.090364096E1,-1.663138868E1,-8.661866462E-1,-4.206574415E1,4.524246014E1
1.091370796E1,-7.666012546E0,-1.325351242E0,-1.414043856E1,1.613927839E1
1.092377596E1,-6.334313859E0,-1.222270970E0,-5.865915048E0,8.719314064E0
1.093384296E1,-5.277758244E0,-6.396560101E-1,1.170968084E0,5.443809158E0
1.094391096E1,-4.872367274E0,3.883818577E-1,3.759077879E0,6.166155190E0
1.095397796E1,-6.129840821E0,1.313905610E0,2.185898249E0,6.639235468E0
1.096404596E1,-8.026266519E0,1.617674164E0,4.599489999E-1,8.200571750E0
1.097411296E1,-9.845476227E0,1.646617443E0,-3.655188060E-1,9.988911609E0
1.098418096E1,-1.135272002E1,1.323333076E0,-2.573093560E-1,1.143248313E1
1.099424796E1,-1.165405745E1,1.023630383E0,1.593679091E-1,1.170001164E1
1.100431596E1,-1.196513634E1,9.053233031E-1,6.671740302E-1,1.201787082E1
1.101438296E1,-1.235162677E1,9.188818268E-1,1.255862493E0,1.244926577E1
1.102445096E1,-1.243192892E1,1.038697342E0,1.272298577E0,1.253995584E1
1.103451796E1,-1.236936020E1,1.059590978E0,1.074259230E0,1.246105284E1
1.104458596E1,-1.218485365E1,1.231132133E0,1.119826582E0,1.229798180E1
1.105465296E1,-1.216941233E1,1.445284067E0,1.226768063E0,1.231618457E1
1.106472096E1,-1.326499109E1,2.062031125E0,-2.286728732E-1,1.342625235E1
1.107478796E1,-1.489543104E1,2.297514579E0,-1.001238544E0,1.510479784E1
1.108485596E1,-1.636670744E1,1.526432018E0,-5.611864492E-1,1.644731095E1
1.109492296E1,-1.618897899E1,1.022545286E0,4.407876742E-1,1.622722814E1
1.110499096E1,-1.807522761E1,1.041397294E0,8.282206750E-1,1.812413614E1
1.111505796E1,-1.942511581E1,9.215015987E-1,1.253315592E-1,1.944736479E1
1.112512596E1,-1.855148215E1,7.120777228E-1,-3.768694210E-1,1.856896807E1
1.113519296E1,-1.795200806E1,3.778675042E-1,4.571364161E-1,1.796180255E1
1.114526096E1,-1.647020667E1,-2.989614303E-1,1.083559154E0,1.650851859E1
1.115532796E1,-1.413416449E1,-5.865233847E-1,1.239955873E0,1.420056711E1
1.116539596E1,-1.220307826E1,-7.157217076E-1,1.242963681E0,1.228708001E1
1.117546296E1,-1.058678272E1,-1.534438318E0,6.256965137E-1,1.071568782E1
1.118553096E1,-8.975935618E0,-2.040345849E0,-5.145549774E-3,9.204914876E0
1.119559796E1,-8.171950482E0,-1.914320225E0,9.414017200E-4,8.393175650E0
1.120566596E1,-7.714836212E0,-1.762270691E0,2.672668719E-1,7.918063359E0
1.121573296E1,-7.262520168E0,-1.840405572E0,1.207287480E0,7.588730784E0
1.122580096E1,-7.075779980E0,-1.629351492E0,2.470142804E0,7.669618901E0
1.123586796E1,-7.324261503E0,-1.156949970E0,3.564912313E0,8.227511142E0
1.124593596E1,-7.455274217E0,-8.396987593E-1,5.032054149E0,9.033702265E0
1.125600296E1,-6.699123983E0,-4.950925567E-1,6.996074245E0,9.698888267E0
1.126607096E1,-4.929622040E0,1.379470147E0,9.115992805E0,1.045492402E1
1.127613796E1,-3.305185425E-1,3.926171130E0,1.029267362E1,1.102103409E1
1.128620596E1,3.332940521E1,7.862533371E0,1.437622636E1,3.713952836E1
1.129627296E1,6.978782859E1,8.056872016E0,2.307329072E1,7.394343075E1
1.130634096E1,6.885567482E1,9.438556795E0,2.959583639E1,7.553875722E1
1.131640796E1,6.875006475E1,1.641620529E1,2.242562739E1,7.415505353E1
1.132647596E1,5.120159760E1,1.100979603E1,8.214686612E0,5.301226539E1
1.133654296E1,8.664929819E0,-1.177351490E-1,-4.324628295E1,4.410596172E1
1.134661096E1,-1.049966038E1,-9.334873382E0,-5.470974456E1,5.648485531E1
1.135667796E1,-5.593196232E0,-7.316601065E0,-1.198648803E1,1.511596476E1
1.136674596E1,-4.623185840E0,-5.055999082E0,2.877571820E0,7.430840707E0
1.137681296E1,-3.385051374E0,-3.084798605E0,8.335492426E0,9.510782787E0
1.138688096E1,-5.210781312E0,-1.182500840E0,6.991263741E0,8.799336271E0
1.139694796E1,-8.874709790E0,-2.688061514E-1,3.302843031E0,9.473199179E0
1.140701596E1,-1.094940481E1,-1.156652346E-3,1.393505218E0,1.103772277E1
1.141708296E1,-1.271064464E1,-3.441723758E-1,1.124600249E0,1.276493899E1
1.142715096E1,-1.302591949E1,-9.027232656E-1,2.170271273E0,1.323629727E1
1.143721796E1,-1.333001213E1,-1.384384147E0,2.757187298E0,1.368239104E1
1.144728596E1,-1.322960842E1,-1.423549382E0,2.257708197E0,1.349615790E1
1.145735271E1,-1.314780119E1,-1.455384255E0,2.641191988E0,1.348920734E1
1.146742071E1,-1.318142736E1,-1.539902249E0,3.524258376E0,1.373104961E1
1.147748771E1,-1.351304284E1,-1.748496113E0,4.683888710E0,1.440827467E1
1.148755571E1,-1.361072994E1,-1.840727169E0,5.663068120E0,1.485633153E1
1.149762271E1,-1.333021444E1,-1.750323075E0,6.000810313E0,1.472304222E1
1.150769071E1,-1.495489722E1,-2.819124807E0,4.572920251E0,1.589050079E1
1.151775771E1,-1.576107741E1,-3.326079866E0,2.962286281E0,1.637832434E1
1.152782571E1,-1.431076444E1,-2.322206640E0,3.428103546E0,1.489773528E1
1.153789271E1,-1.524229723E1,-1.281096590E0,3.063262725E0,1.559975679E1
1.154796071E1,-1.563536812E1,-9.269640675E-1,3.516695588E0,1.605276133E1
1.155802771E1,-1.679319400E1,-3.411432257E-1,3.937196932E0,1.725193505E1
1.156809571E1,-1.791726741E1,-1.496330991E-1,3.955625309E0,1.834932787E1
1.157816271E1,-1.850503889E1,-6.913777024E-1,2.670535655E0,1.870952239E1
1.158823071E1,-1.661875051E1,-1.879892696E0,-1.996316607E0,1.684346000E1
1.159829771E1,-1.188785603E1,-5.273983866E-1,-6.265070547E0,1.344806228E1
1.160836571E1,-9.818458582E0,-2.300272711E-2,-9.721295400E0,1.381688251E1
1.161843271E1,-1.000008830E1,1.380367548E-1,-9.570368239E0,1.384242639E1
1.162850071E1,-1.156971136E1,3.247356462E-1,-7.181514012E0,1.362122674E1
1.163856771E1,-1.321593997E1,4.146322015E-1,-3.569952028E0,1.369589525E1
1.164863571E1,-1.380675901E1,5.580887039E-1,3.688471142E-1,1.382295575E1
1.165870271E1,-1.292508543E1,5.745427322E-1,3.083882346E0,1.330031064E1
1.166877071E1,-1.080461021E1,3.947551766E-1,4.258619546E0,1.162029578E1
1.167883771E1,-8.829297974E0,-2.250762874E-1,4.414471232E0,9.873941376E0
1.168890571E1,-7.449126454E0,-1.044318563E0,4.650636764E0,8.843557457E0
1.169897271E1,-5.765307856E0,-1.583429215E0,5.336192393E0,8.013798850E0
1.170904071E1,-1.872885978E0,-1.626332575E0,1.096309315E1,1.124019888E1
1.171910771E1,-6.422909117E-1,1.168694102E0,1.413299973E1,1.419577630E1
1.172917571E1,-1.560409019E0,3.888898346E0,1.089846387E1,1.167625460E1
1.173924271E1,3.239334316E1,8.228976622E-1,1.544929685E1,3.589828151E1
1.174931071E1,7.022958807E1,-4.418599074E0,2.325628050E1,7.411189946E1
1.175937771E1,6.850128210E1,-1.509879428E0,1.837676735E1,7.093948804E1
1.176944571E1,6.859528194E1,6.392277893E0,-2.091558394E0,6.892422316E1
1.177951271E1,5.255560225E1,7.222839793E0,-1.191654949E1,5.437154489E1
1.178958071E1,-1.573584550E0,4.907822451E0,-3.990897760E1,4.024039492E1
1.179964771E1,-1.931810826E1,3.490983626E-1,-4.536568345E1,4.930878635E1
1.180971571E1,-7.477594793E0,-1.865863033E0,-1.502211682E1,1.688371589E1
1.181978271E1,-5.056061062E0,-1.677675221E0,-1.408511220E0,5.510195230E0
1.182985071E1,-4.476037150E0,-5.858872077E-1,4.831256670E0,6.612050620E0
1.183991771E1,-6.164294370E0,1.050237772E0,4.706394935E0,7.826345107E0
1.184998571E1,-8.798578457E0,1.898446204E0,2.109942918E0,9.245049485E0
1.186005271E1,-1.034004191E1,1.737561819E0,-1.487806773E0,1.059004990E1
1.187012071E1,-1.130228896E1,1.331904509E0,-3.697794381E0,1.196617686E1
1.188018771E1,-1.212517580E1,9.678118390E-1,-4.896937859E0,1.311245775E1
1.189025571E1,-1.298294246E1,7.521293959E-1,-6.735979568E0,1.464567903E1
1.190032271E1,-1.416814734E1,4.791562262E-1,-8.000307806E0,1.627792723E1
1.191039071E1,-1.477154258E1,1.389883069E-1,-7.806057454E0,1.670785207E1
1.192045771E1,-1.497001696E1,-1.800629778E-1,-6.619366207E0,1.636917345E1
1.193052571E1,-1.493795433E1,-4.762872899E-1,-4.735826603E0,1.567792661E1
1.194059271E1,-1.461170660E1,-7.943536019E-1,-2.881179260E0,1.491422681E1
1.195066071E1,-1.395241432E1,-1.030009037E0,-1.733385007E0,1.409735463E1
1.196072771E1,-1.357667575E1,-9.964699200E-1,-1.808657822E0,1.373281908E1
1.197079571E1,-1.359445012E1,-8.987866277E-1,-2.697498336E0,1.388860643E1
1.198086271E1,-1.359232875E1,-9.275070546E-1,-2.318652556E0,1.381983429E1
1.199093071E1,-1.290577207E1,-7.998064960E-1,-1.117024012E0,1.297868968E1
1.200099771E1,-1.220904709E1,-7.365325329E-1,-2.120282257E-1,1.223308085E1
1.201106571E1,-1.193035242E1,-5.973232652E-1,2.206248204E-1,1.194733357E1
1.202113271E1,-1.173791237E1,-4.930052103E-1,3.619275192E-1,1.175383480E1
1.203120071E1,-1.204402463E1,-5.700118710E-1,4.438049106E-1,1.206567055E1
1.204126771E1,-1.346643469E1,-7.932383917E-1,4.175790155E-1,1.349623883E1
1.205133571E1,-1.312628929E1,-1.076845454E0,4.025281727E-1,1.317653579E1
1.206140271E1,-1.249378428E1,-1.310967676E0,1.538893604E-1,1.256331818E1
1.207147071E1,-1.176185321E1,-1.298191072E0,-2.888243866E-1,1.183680322E1
1.208153771E1,-1.069525909E1,-1.232963627E0,-1.248388728E0,1.083823052E1
1.209160571E1,-9.673023126E0,-1.206006647E0,-1.695824686E0,9.894324120E0
1.210167271E1,-9.214424833E0,-1.148964427E0,-1.197218574E0,9.362642606E0
1.211174071E1,-8.505531796E0,-1.047406039E0,1.302410276E-1,8.570769701E0
1.212180771E1,-7.061037980E0,-8.769136557E-1,2.363933394E0,7.497694046E0
1.213187571E1,-6.740111210E0,-7.781731868E-1,4.981227812E0,8.417082817E0
1.214194271E1,-6.424553939E0,-7.712828279E-1,6.943230618E0,9.490954743E0
1.215201071E1,-6.225906481E0,-2.980821370E-1,9.838936701E0,1.164712153E1
1.216207771E1,-4.102919887E0,8.150429513E-1,1.069734421E1,1.148614033E1
1.217214571E1,-1.356461061E0,2.799105987E0,9.944050927E0,1.041917126E1
1.218221271E1,5.367410678E0,7.626407601E0,6.196341789E0,1.119668888E1
1.219228071E1,5.268483039E1,1.299578060E1,1.335280224E1,5.588272537E1
1.220234771E1,7.053463029E1,9.869857362E-1,1.836484955E1,7.289290714E1
1.221241571E1,6.863379404E1,-9.979923595E0,1.259599244E1,7.049010984E1
1.222248271E1,6.410426481E1,-5.725064979E0,-6.807806765E0,6.471846235E1
1.223255071E1,2.082461764E1,-1.867962622E0,-2.964013958E1,3.627246694E1
1.224261771E1,-1.167962732E1,-2.597357166E0,-3.764692376E1,3.950254203E1
1.225268571E1,-9.105300586E0,-1.807988023E0,-1.010902076E1,1.372470838E1
1.226275271E1,-8.929884117E0,-1.531888055E0,-7.012097955E-2,9.060597569E0
1.227282071E1,-7.190767230E0,-1.253795063E0,4.032859134E0,8.339249859E0
1.228288771E1,-6.526898924E0,-5.538125620E-1,3.397892152E0,7.379213304E0
1.229295571E1,-8.268932401E0,2.437020081E-1,1.917858083E0,8.491926362E0
1.230302271E1,-9.788546566E0,4.095366454E-1,7.115166825E-1,9.822913016E0
1.231309071E1,-1.108273887E1,2.975595421E-1,1.928756708E-1,1.108841033E1
1.232315771E1,-1.156008217E1,4.932719895E-1,1.003616095E0,1.161404591E1
1.233322571E1,-1.181854197E1,4.016023027E-1,3.089823117E0,1.222236579E1
1.234329271E1,-1.179085423E1,2.844477457E-1,3.588292989E0,1.232805745E1
1.235336071E1,-1.151098193E1,5.663546569E-1,2.837100610E0,1.186897647E1
1.236342771E1,-1.162034124E1,8.008831877E-1,2.911803467E0,1.200634598E1
1.237349571E1,-1.185704471E1,8.911083564E-1,3.268990576E0,1.233166180E1
1.238356271E1,-1.206094180E1,8.711354372E-1,3.492215635E0,1.258653106E1
1.239363071E1,-1.250568336E1,6.203156134E-1,3.734727734E0,1.306618150E1
1.240369771E1,-1.305707346E1,3.855022502E-1,3.954805237E0,1.364830626E1
1.241376571E1,-1.311062927E1,3.046983346E-1,3.880367843E0,1.367620911E1
1.242383271E1,-1.299466496E1,3.564635886E-1,3.443380859E0,1.344787178E1
1.243390071E1,-1.293008363E1,4.403311528E-1,2.224008354E0,1.312734426E1
1.244396771E1,-1.345375091E1,4.258382441E-1,-1.212796726E0,1.351501489E1
1.245403621E1,-1.614266319E1,-9.044707060E-2,-4.575591259E0,1.677884951E1
1.246410321E1,-1.946330281E1,4.184630048E-1,-5.160835565E0,2.014024556E1
1.247417121E1,-1.933022603E1,1.214616672E0,-3.978418633E0,1.977272735E1
1.248423821E1,-1.842321061E1,1.242698218E0,-2.893955426E0,1.869047795E1
1.249430621E1,-1.743027387E1,9.395417938E-1,-2.190321375E0,1.759246128E1
1.250437321E1,-1.468146739E1,8.537964693E-1,-1.560184486E0,1.478880079E1
1.251444121E1,-1.204951166E1,9.720961670E-1,-1.801086262E0,1.222209532E1
1.252450821E1,-1.047595576E1,5.699845718E-1,-2.313691778E0,1.074354230E1
1.253457621E1,-9.272834424E0,1.632609853E-1,-3.172381124E0,9.801842399E0
1.254464321E1,-8.463721865E0,-2.246950124E-1,-3.586330664E0,9.194935742E0
1.255471121E1,-8.414809906E0,-3.916926974E-1,-2.281778845E0,8.727483236E0
1.256477821E1,-8.559613863E0,-5.143529561E-1,-5.966259847E-1,8.595784491E0
1.257484621E1,-8.693063112E0,-6.037261856E-1,8.060124383E-1,8.751199211E0
1.258491321E1,-8.968897324E0,-3.012602448E-1,2.652491148E0,9.357755406E0
1.259498121E1,-8.672178027E0,1.176579566E-1,4.546829390E0,9.792557002E0
1.260504821E1,-7.276061150E0,6.251971614E-1,8.299829088E0,1.105527477E1
1.261511621E1,-5.196330503E0,1.594888296E0,1.015243517E1,1.151596541E1
1.262518321E1,-3.471158642E0,2.864950898E0,8.487521787E0,9.607024100E0
1.263525121E1,2.202870202E1,1.765708561E0,1.140513212E1,2.486882542E1
1.264531821E1,6.902006111E1,-4.655339094E0,1.683307084E1,7.119545836E1
1.265538621E1,6.892010179E1,-7.486728728E0,1.188823961E1,7.033748487E1
1.266545321E1,6.861138751E1,-7.742836189E-1,3.774921495E0,6.871951719E1
1.267552121E1,5.894784857E1,2.033015194E0,-6.657580685E0,5.935743746E1
1.268558821E1,1.224688443E1,3.560219045E0,-2.996599321E1,3.256719341E1
1.269565621E1,-1.470809327E1,3.186268262E0,-4.485653598E1,4.731373091E1
1.270572321E1,-8.879627298E0,1.350898604E0,-1.360827410E1,1.630514741E1
1.271579121E1,-7.810304872E0,6.283969040E-1,-1.101573037E0,7.912598057E0
1.272585821E1,-6.941718528E0,7.469847232E-1,4.179721895E0,8.137291775E0
1.273592621E1,-6.953121768E0,1.057478891E0,3.926988863E0,8.055147761E0
1.274599321E1,-8.244737207E0,1.273811983E0,1.044602445E0,8.407703780E0
1.275606121E1,-9.835045964E0,1.409475280E0,-1.196689547E0,1.000733808E1
1.276612821E1,-1.113522231E1,1.247758983E0,-1.635847456E0,1.132369530E1
1.277619621E1,-1.142176511E1,1.029331418E0,-1.098044096E0,1.152050096E1
1.278626321E1,-1.161949807E1,8.292834064E-1,-1.329762089E-1,1.164981240E1
1.279633121E1,-1.172177756E1,8.767949572E-1,6.194364846E-1,1.177083430E1
1.280639821E1,-1.159538883E1,1.040461885E0,8.592933637E-1,1.167364502E1
1.281646621E1,-1.146643550E1,1.165361628E0,9.052466315E-1,1.156099833E1
1.282653321E1,-1.151424819E1,1.145843330E0,1.300667514E0,1.164399434E1
1.283660121E1,-1.156742744E1,1.210731197E0,1.469621640E0,1.172309837E1
1.284666821E1,-1.140155597E1,1.404357797E0,1.590818049E0,1.159734458E1
1.285673621E1,-1.137793555E1,1.561816590E0,1.771830304E0,1.162050219E1
1.286680321E1,-1.164905691E1,1.655869054E0,1.426166303E0,1.185227318E1
1.287687121E1,-1.289157971E1,1.478177725E0,3.856158324E-1,1.298177709E1
1.288693921E1,-1.740804744E1,1.547389024E0,1.455802331E0,1.753721439E1
1.289700621E1,-1.965569140E1,1.700713105E0,2.113453732E0,1.984200888E1
1.290707321E1,-1.951105585E1,1.479144123E0,3.350875568E0,1.985188995E1
1.291714121E1,-2.019881354E1,1.049920488E0,1.969928123E0,2.032178679E1
1.292720821E1,-1.799156681E1,4.480360289E-1,2.233785045E0,1.813524216E1
1.293727621E1,-1.535525374E1,1.133364348E-1,2.233159393E0,1.551720540E1
1.294734421E1,-1.311286408E1,-1.588947232E-1,1.361154767E0,1.318427830E1
1.295741121E1,-1.095682844E1,5.583737192E-1,-2.356275880E-1,1.097357695E1
1.296747821E1,-9.977159032E0,1.353386595E0,-2.356474686E0,1.034061558E1
1.297754621E1,-9.985568497E0,2.128117233E0,-3.441723758E0,1.077431778E1
1.298761321E1,-1.105112064E1,2.806979263E0,-1.958701469E0,1.156904972E1
1.299768121E1,-1.164629936E1,3.399461253E0,1.506208034E-1,1.213323173E1
1.300774821E1,-1.075061118E1,3.981782828E0,1.134242892E0,1.152027526E1
1.301781621E1,-9.373456235E0,3.677951563E0,1.792818300E0,1.022757092E1
1.302788321E1,-7.625635768E0,2.823319307E0,2.688382527E0,8.564394514E0
1.303795121E1,-5.596677080E0,2.067462750E0,5.760948172E0,8.293715717E0
1.304801821E1,-3.737354888E0,1.447685811E0,9.777150342E0,1.056675374E1
1.305808621E1,-2.095689452E0,9.715359306E-1,1.229510524E1,1.251021220E1
1.306815421E1,-2.131597788E0,1.889406555E0,1.094174496E1,1.130642955E1
1.307822121E1,-1.196105264E0,2.297093141E0,7.157446287E0,7.611592610E0
1.308828821E1,4.753160439E1,-1.056862127E1,1.206790934E1,5.016556197E1
1.309835621E1,7.115770959E1,-3.363464858E1,2.169907576E1,8.164287543E1
1.310842421E1,6.840608943E1,-2.378601953E1,2.072500448E1,7.533056224E1
1.311849121E1,6.632787204E1,4.096316334E0,5.658347663E0,6.669470230E1
1.312855921E1,3.464622624E1,8.960825243E0,-1.348388512E1,3.824228732E1
1.313862621E1,-8.068252451E0,3.457305418E0,-5.359819355E1,5.431220866E1
1.314869421E1,-5.917939480E0,-1.506004186E0,-2.654792144E1,2.724118553E1
1.315876121E1,-1.328369282E0,-2.260218845E0,-5.971024012E0,6.521217826E0
1.316882921E1,-1.997629892E0,-2.131817205E0,2.920732750E0,4.131083342E0
1.317889621E1,-2.448750181E0,-9.679511489E-1,6.912022859E0,7.396578052E0
1.318896421E1,-5.638597523E0,2.430181763E-1,4.479533785E0,7.205488380E0
1.319903121E1,-9.147228631E0,9.476860151E-1,1.370250549E0,9.297714073E0
1.320909921E1,-1.177261559E1,1.111676587E0,-5.289601779E-1,1.183681130E1
1.321916621E1,-1.278032240E1,8.412523645E-1,-9.746934271E-1,1.284501357E1
1.322923421E1,-1.272290742E1,4.863041550E-1,-1.209008315E0,1.278947091E1
1.323930121E1,-1.266106259E1,2.998297235E-1,-1.609312792E0,1.276645180E1
1.324936921E1,-1.265149304E1,1.988339835E-1,-1.622089543E0,1.275660556E1
1.325943621E1,-1.294510629E1,3.469269991E-2,-1.631709967E0,1.304758437E1
1.326950421E1,-1.323800034E1,-2.614637297E-2,-1.608194950E0,1.333535255E1
1.327957121E1,-1.369490645E1,-1.760420851E-1,-1.277998005E0,1.375553461E1
1.328963921E1,-1.418731452E1,-2.111368176E-1,-9.907498813E-1,1.422343338E1
1.329970621E1,-1.448722288E1,-1.855765184E-1,-8.632117291E-1,1.451410349E1
1.330977421E1,-1.597135381E1,-2.287957013E-2,-2.413977959E0,1.615276928E1
1.331984121E1,-1.695270721E1,3.964610287E-1,-2.933785490E0,1.720925799E1
1.332990921E1,-1.993712023E1,1.180081262E0,-1.084858478E0,2.000145677E1
1.333997621E1,-2.175327243E1,2.058067297E0,-5.846291427E-1,2.185823171E1
1.335004421E1,-2.024394469E1,2.661513401E0,2.468180624E-1,2.041964420E1
1.336011121E1,-1.881181422E1,3.281161847E0,1.483974216E0,1.915339544E1
1.337017921E1,-1.802554031E1,3.013157934E0,1.501528727E0,1.833722478E1
1.338024621E1,-1.752202253E1,1.983122657E0,1.864708647E0,1.773220763E1
1.339031421E1,-1.549742060E1,1.440615650E0,1.980296406E0,1.568970977E1
1.340038121E1,-1.295280591E1,1.080746716E0,9.743496839E-1,1.303428370E1
1.341044921E1,-1.086898455E1,4.808931782E-1,-8.362920984E-1,1.091171242E1
1.342051621E1,-9.050625612E0,2.233168602E-1,-2.567741604E0,9.410472428E0
1.343058421E1,-7.828186827E0,1.806239267E-1,-3.407179577E0,8.539438311E0
1.344065121E1,-7.306912229E0,5.989807315E-2,-2.772990568E0,7.815627345E0
1.345071921E1,-7.307875850E0,-3.360394835E-3,-1.144311798E0,7.396925728E0
1.346078563E1,-7.895187147E0,2.143083839E-1,5.847051565E-1,7.919708852E0
1.347085363E1,-8.626779660E0,4.419670210E-1,1.705508845E0,8.804852217E0
1.348092063E1,-8.678355026E0,4.794208493E-1,2.806826066E0,9.133562441E0
1.349098863E1,-8.100876991E0,7.920863441E-1,5.311194962E0,9.719074067E0
1.350105563E1,-7.332815394E0,1.465432988E0,6.267433407E0,9.756966586E0
1.351112363E1,-6.140238340E0,1.874514135E0,6.625201144E0,9.225487538E0
1.352119063E1,7.742684162E0,1.613059688E-1,1.023261336E1,1.283283109E1
1.353125863E1,6.357068533E1,-1.190313480E1,2.466873626E1,6.922039584E1
1.354132563E1,6.989269022E1,-2.096299083E1,2.375993159E1,7.673962131E1
1.355139363E1,6.841179631E1,-7.273556787E0,1.047000798E1,6.958950761E1
1.356146063E1,6.621811279E1,4.377459818E0,4.964310647E0,6.654806531E1
1.357152863E1,4.060260239E1,3.379200650E0,1.424083525E0,4.076785905E1
1.358159563E1,1.110418529E1,3.133558244E0,-1.307271125E1,1.743610902E1
1.359166363E1,-1.880951042E1,4.063806108E0,-5.278314314E1,5.618160199E1
1.360173062E1,-9.338744239E0,-2.571929964E-1,-2.118383549E1,2.315239033E1
1.361179863E1,-5.657000465E0,-1.273364963E0,-1.070429421E1,1.217394871E1
1.362186563E1,-5.701641033E0,-9.344835868E-1,-5.626555182E0,8.064743843E0
1.363193363E1,-3.911485555E0,3.760940802E-1,2.258124518E-1,3.936007783E0
1.364200063E1,-4.038675944E0,2.280594199E0,1.279950244E0,4.811474401E0
1.365206863E1,-5.746658161E0,2.908215908E0,-8.033925202E-1,6.490550002E0
1.366213563E1,-8.132682336E0,2.919193178E0,-2.984876706E0,9.141755835E0
1.367220362E1,-1.033004200E1,2.637695353E0,-4.995819538E0,1.177392957E1
1.368227063E1,-1.125955283E1,2.396445667E0,-6.575704463E0,1.325746472E1
1.369233863E1,-1.197129930E1,2.222143385E0,-6.546802261E0,1.382427387E1
1.370240563E1,-1.319109632E1,1.997215763E0,-4.976389825E0,1.423932402E1
1.371247363E1,-1.469913066E1,1.684888200E0,-2.610060827E0,1.502383799E1
1.372254063E1,-1.535349022E1,1.339140438E0,-1.378943020E0,1.547334621E1
1.373260863E1,-1.507135037E1,1.039240621E0,-1.215573277E0,1.515596389E1
1.374267563E1,-1.464062342E1,1.039216063E0,-1.928981387E0,1.480367499E1
1.375274363E1,-1.471542100E1,9.855248094E-1,-2.554928015E0,1.496805036E1
1.376281063E1,-1.543003729E1,8.770823479E-1,-3.590043646E0,1.586643431E1
1.377287863E1,-1.669755928E1,8.201597035E-1,-4.226540551E0,1.724368849E1
1.378294563E1,-1.692797115E1,5.605675945E-1,-3.520802672E0,1.729932064E1
1.379301363E1,-1.666197663E1,1.765420586E-1,-2.425349624E0,1.683849617E1
1.380308063E1,-1.604202091E1,-1.752442691E-1,-8.039050287E-1,1.606310707E1
1.381314863E1,-1.499329238E1,-1.578128421E-1,4.470511385E-1,1.500078585E1
1.382321563E1,-1.341512654E1,3.007617697E-1,1.340671239E0,1.348530597E1
1.383328363E1,-1.216123090E1,5.569303340E-1,1.867391934E0,1.231636558E1
1.384335063E1,-1.094203615E1,2.902499195E-1,1.894897236E0,1.110869190E1
1.385341863E1,-9.850979626E0,-6.683513671E-2,1.770761433E0,1.000908900E1
1.386348562E1,-9.304257946E0,-2.128582379E-1,1.938287669E0,9.506391726E0
1.387355363E1,-8.991488042E0,-2.296818468E-1,1.913426478E0,9.195695289E0
1.388362063E1,-8.340511091E0,-1.459643732E-1,7.028504511E-1,8.371345747E0
1.389368863E1,-7.814904876E0,2.642102034E-1,-3.962793265E-1,7.829404994E0
1.390375563E1,-7.728009405E0,6.597705781E-1,-1.918513848E-1,7.758494282E0
1.391382363E1,-7.617198236E0,9.030436930E-1,3.960950661E-1,7.680760911E0
1.392389063E1,-7.365838130E0,1.031708750E0,1.175747452E0,7.530098032E0
1.393395862E1,-7.275405092E0,1.180316613E0,2.640490322E0,7.829230850E0
1.394402563E1,-7.360485004E0,1.465162554E0,5.054358938E0,9.048203417E0
1.395409363E1,-4.307125708E0,1.858177307E0,6.698598318E0,8.177736496E0
1.396416063E1,1.721810297E1,2.708056946E0,1.105486870E1,2.063993131E1
1.397422863E1,6.044600813E1,1.089940293E0,2.081717063E1,6.393952191E1
1.398429563E1,7.033410822E1,-4.114604671E0,2.412041478E1,7.446886033E1
1.399436363E1,6.894662943E1,-2.432805701E0,2.171877386E1,7.232745946E1
1.400443063E1,5.997635041E1,-6.321951091E-1,1.755107267E1,6.249481924E1
1.401449863E1,2.849324097E1,-9.126933530E-1,7.166320606E0,2.939479446E1
1.402456563E1,6.467698789E0,-1.254846101E0,-5.157734202E0,8.367077653E0
1.403463363E1,-1.150619306E1,-4.389620565E0,-3.277940909E1,3.501643768E1
1.404470063E1,-9.686867579E0,-4.018067725E0,-1.683861166E1,1.983731621E1
1.405476863E1,-5.879489944E0,-2.826740220E0,-7.590720874E0,1.000889133E1
1.406483563E1,-3.769556090E0,-2.230923856E0,-4.182643749E0,6.056490989E0
1.407490363E1,-2.377386668E0,-2.060745030E0,-1.976591317E0,3.715582146E0
1.408497063E1,-2.702150965E0,-1.289517458E0,-6.706387979E-1,3.068261969E0
1.409503863E1,-5.426395635E0,4.641373605E-2,-2.639304507E-1,5.433008661E0
1.410510562E1,-7.569398417E0,2.981559946E-1,-5.611043689E-1,7.596020505E0
1.411517363E1,-8.922253500E0,3.458470915E-1,-9.267828038E-1,8.976922864E0
1.412524063E1,-1.027218614E1,5.205755996E-1,-1.093144860E0,1.034329603E1
1.413530863E1,-1.093850911E1,4.989125061E-1,-9.613933504E-1,1.099200493E1
1.414537563E1,-1.126737874E1,4.049290760E-1,-6.013026609E-1,1.129067563E1
1.415544363E1,-1.166721135E1,2.566904648E-1,2.004805595E-2,1.167005195E1
1.416551063E1,-1.178637526E1,2.145826184E-1,3.765599571E-1,1.179434123E1
1.417557862E1,-1.166941692E1,1.976814973E-1,6.527521652E-1,1.168933080E1
1.418564563E1,-1.157837694E1,2.298263461E-1,8.654965286E-1,1.161295470E1
1.419571363E1,-1.132482880E1,3.480441462E-1,6.734782058E-1,1.135017423E1
1.420578063E1,-1.115240845E1,3.682097312E-1,5.934491193E-1,1.117425498E1
1.421584863E1,-1.132614677E1,2.544419180E-1,7.193008980E-2,1.132923277E1
1.422591563E1,-1.271770808E1,1.073449757E-1,-2.961139934E0,1.305832958E1
1.423598363E1,-1.328797182E1,1.977616042E-2,-3.693163971E0,1.379166583E1
1.424605063E1,-1.334654805E1,1.990187556E-2,-3.396252301E0,1.377190149E1
1.425611863E1,-1.452329085E1,-1.054019094E-2,-3.947704378E0,1.505026438E1
1.426618563E1,-1.533221571E1,2.626393855E-2,-2.942147593E0,1.561197492E1
1.427625363E1,-1.473139208E1,3.296852412E-1,-8.833411344E-1,1.476153436E1
1.428632063E1,-1.394000302E1,6.828317043E-1,2.777684712E-1,1.395948060E1
1.429638863E1,-1.310779221E1,1.058161261E0,7.458059245E-1,1.317156590E1
1.430645563E1,-1.266298282E1,1.529027597E0,6.825969386E-1,1.277321407E1
1.431652363E1,-1.219624169E1,2.019372763E0,2.215966094E-1,1.236427446E1
1.432659063E1,-1.136263456E1,1.922434406E0,-2.403041911E-1,1.152661981E1
1.433665863E1,-1.035356652E1,1.475879038E0,-1.673941080E-1,1.045956880E1
1.434672563E1,-9.799391981E0,1.327511204E0,4.357847965E-1,9.898498754E0
1.435679363E1,-9.135438890E0,1.282190605E0,1.281160617E0,9.313518615E0
1.436686062E1,-8.668233495E0,1.114744986E0,2.278745309E0,9.031810920E0
1.437692863E1,-8.167396671E0,8.202927276E-1,4.432448496E0,9.328764559E0
1.438699563E1,-7.550983781E0,4.738183030E-1,7.047052025E0,1.033938113E1
1.439706363E1,-6.184911067E0,5.866403291E-1,8.845117031E0,1.080894847E1
1.440713063E1,-4.650640272E0,1.354849276E0,8.390203654E0,9.688115856E0
1.441719863E1,3.686915052E-1,1.735470855E0,6.545883079E0,6.782062945E0
1.442726563E1,4.650341596E1,-5.290614517E0,1.019741780E1,4.790141572E1
1.443733362E1,7.074578027E1,-1.469039141E1,1.469549837E1,7.373418948E1
1.444740063E1,6.836871871E1,-9.497991403E0,1.081823189E1,6.986793026E1
1.445746913E1,6.836278261E1,3.629776061E-1,7.398400104E-1,6.836774943E1
1.446753613E1,4.725087255E1,8.770525271E-1,-7.166420009E0,4.779928613E1
1.447760413E1,8.683064958E0,1.068863420E0,-1.702003088E1,1.913686331E1
1.448767113E1,-9.748660954E0,1.593066011E0,-3.457428444E1,3.595768894E1
1.449773912E1,-1.029921548E1,-1.457710862E-3,-2.420243016E1,2.630268936E1
1.450780613E1,-5.177798338E0,-9.036189128E-1,-8.059938880E0,9.622304169E0
1.451787413E1,-4.471647061E0,-8.231195641E-1,-2.046732470E0,4.986207683E0
1.452794213E1,-5.460581966E0,2.373732743E-1,8.719239342E-1,5.534848943E0
1.453800913E1,-7.198979645E0,1.319500664E0,-9.716800645E-1,7.383126172E0
1.454807613E1,-9.705672224E0,2.550597568E0,-3.733968181E0,1.070738715E1
1.455814413E1,-1.153756454E1,3.422653649E0,-5.353798360E0,1.317167835E1
1.456821113E1,-1.194301749E1,3.706460247E0,-6.613199733E0,1.414595084E1
1.457827913E1,-1.214674618E1,4.044393059E0,-7.029592824E0,1.460533236E1
1.458834713E1,-1.257185513E1,4.222429666E0,-7.042914535E0,1.501609466E1
1.459841413E1,-1.384964132E1,4.380957038E0,-6.070466439E0,1.574344029E1
1.460848213E1,-1.534100759E1,4.347800694E0,-3.900580498E0,1.641537124E1
1.461854913E1,-1.648862423E1,4.145699871E0,-1.461258368E0,1.706449039E1
1.462861713E1,-1.694704477E1,3.846425925E0,1.293012631E0,1.742610686E1
1.463868413E1,-1.592520524E1,3.965876940E0,1.524049132E0,1.648220457E1
1.464875213E1,-1.542314576E1,4.689135709E0,-2.308838151E-1,1.612187105E1
1.465881913E1,-1.519510318E1,5.014635293E0,-4.679988617E-1,1.600802145E1
1.466888713E1,-1.445711440E1,5.472212663E0,-9.147723305E-1,1.548515666E1
1.467895413E1,-1.412120589E1,5.889610305E0,-1.577626730E0,1.538131566E1
1.468902213E1,-1.385211937E1,6.121087539E0,-1.692724493E0,1.523857736E1
1.469908913E1,-1.351654766E1,6.032221556E0,-9.503970766E-1,1.483199286E1
1.470915713E1,-1.282916887E1,5.802204371E0,7.858660121E-3,1.408024188E1
1.471922413E1,-1.264397469E1,5.134640039E0,1.016841912E0,1.368461149E1
1.472929213E1,-1.212470685E1,3.929090352E0,1.576696438E0,1.284259471E1
1.473935913E1,-1.066246440E1,2.858874179E0,1.596253036E0,1.115389315E1
1.474942713E1,-9.610025225E0,1.999007496E0,1.456542588E0,9.923211783E0
1.475949412E1,-9.158562874E0,1.396177104E0,1.291964518E0,9.354023558E0
1.476956213E1,-8.725867746E0,1.027694636E0,9.738262850E-1,8.839980872E0
1.477962913E1,-8.298074924E0,8.022488049E-1,9.520079845E-1,8.390945703E0
1.478969713E1,-8.007325049E0,7.299416976E-1,1.474099438E0,8.174535979E0
1.479976413E1,-7.916130120E0,8.296950504E-1,1.736061716E0,8.146620172E0
1.480983212E1,-7.768945177E0,1.155210861E0,1.900643734E0,8.081056113E0
1.481989913E1,-7.503803183E0,1.421623894E0,3.138477799E0,8.257004275E0
1.482996713E1,-6.884519311E0,1.563914717E0,5.092215566E0,8.704774250E0
1.484003413E1,-4.654678359E0,1.764852821E0,6.625706343E0,8.287383221E0
1.485010213E1,1.645547052E1,-5.842371234E-1,1.363698510E1,2.137969143E1
1.486016913E1,5.892431002E1,-7.673857756E0,2.287583493E1,6.367312013E1
1.487023713E1,7.032551983E1,-1.454867361E1,2.906486711E1,7.747328019E1
1.488030413E1,6.883313732E1,-9.485219476E-1,2.581474608E1,7.352075627E1
1.489037213E1,5.991974469E1,1.816293233E1,1.137802443E1,6.363746816E1
1.490043913E1,3.887126055E1,1.237247911E1,2.537290474E0,4.087164028E1
1.491050713E1,2.157118546E1,-3.311191978E0,-3.680978959E1,4.279299760E1
1.492057413E1,9.869251006E0,-1.088669810E1,-3.726076896E1,4.005355433E1
1.493064213E1,6.928316710E0,-9.598668178E0,-1.118316714E1,1.628493876E1
1.494070913E1,2.137762508E0,-7.151998436E0,-2.140138232E0,7.765391286E0
1.495077713E1,-1.288680137E0,-4.336884820E0,4.224799250E0,6.190169233E0
1.496084413E1,-4.015910395E0,-1.809849192E0,3.671766378E0,5.734540848E0
1.497091213E1,-6.279189819E0,-3.858160995E-2,1.610591286E0,6.482570293E0
1.498097913E1,-7.788886521E0,2.202792317E-1,-3.065250778E-1,7.798027558E0
1.499104713E1,-9.332561393E0,-9.766721249E-2,-1.363292947E0,9.432115813E0
1.500111412E1,-1.054438456E1,-3.886252481E-1,-1.683683528E0,1.068502997E1
1.501118213E1,-1.128739259E1,-7.241346815E-1,-1.315543415E0,1.138684579E1
1.502124913E1,-1.176233736E1,-1.188119430E0,-7.233169484E-1,1.184429801E1
1.503131713E1,-1.220061190E1,-1.583515461E0,-2.067074056E-1,1.230468122E1
1.504138413E1,-1.242048826E1,-1.854610213E0,3.541639517E-1,1.256318191E1
1.505145213E1,-1.234927034E1,-2.064280841E0,7.645830151E-1,1.254393561E1
1.506151913E1,-1.257369583E1,-2.389407666E0,1.528653960E0,1.288968110E1
1.507158712E1,-1.277752977E1,-2.616075273E0,2.187812920E0,1.322481162E1
1.508165413E1,-1.293331597E1,-2.656999643E0,3.033306270E0,1.354737081E1
1.509172213E1,-1.308849172E1,-2.600203591E0,3.661215370E0,1.383741927E1
1.510178913E1,-1.330060999E1,-2.440588637E0,3.865394585E0,1.406428008E1
1.511185713E1,-1.361371552E1,-2.199717266E0,2.826232975E0,1.407691725E1
1.512192413E1,-2.065670666E1,-2.224111996E0,1.359310555E0,2.082051703E1
1.513199213E1,-2.317003173E1,-2.376845216E0,3.025164607E0,2.348726005E1
1.514205913E1,-1.977758012E1,-1.931350533E0,3.833986851E0,2.023813839E1
1.515212713E1,-1.710122649E1,-1.413896213E0,2.603084514E0,1.735589522E1
1.516219413E1,-1.482294662E1,-1.416090674E0,4.687956910E-1,1.489781288E1
1.517226213E1,-1.307554598E1,-1.016054584E0,3.996655221E-1,1.312105187E1
1.518232913E1,-1.142404436E1,-7.260359037E-1,7.455224077E-1,1.147134348E1
1.519239713E1,-9.755058977E0,-2.113089450E-1,3.335397989E-3,9.757347910E0
1.520246413E1,-9.254563630E0,5.149195879E-1,-1.019346201E0,9.324760417E0
1.521253213E1,-9.098420752E0,6.770939778E-1,-2.130580665E0,9.369049600E0
1.522259913E1,-9.613093259E0,1.086701813E0,-1.951984187E0,9.869281894E0
1.523266713E1,-1.025546428E1,1.559891540E0,-1.174710375E0,1.043972000E1
1.524273413E1,-1.017802141E1,1.781371498E0,-8.860204017E-1,1.037065265E1
1.525280213E1,-9.247541708E0,1.586639044E0,-6.941767645E-1,9.408311883E0
1.526286912E1,-8.535125724E0,1.160875863E0,-1.186633830E-2,8.613718402E0
1.527293713E1,-7.774368469E0,9.562343520E-1,1.845663680E0,8.047463181E0
1.528300413E1,-6.504196524E0,1.059983253E0,6.160041105E0,9.020767336E0
1.529307213E1,-4.713441122E0,1.812329289E0,9.512326437E0,1.076965268E1
1.530313913E1,-2.820931304E0,2.222723136E0,1.045965139E1,1.105904420E1
1.531320713E1,1.586584665E0,1.520296243E0,9.528787519E0,9.778872284E0
1.532327413E1,5.346091496E1,-5.110509165E0,1.791628274E1,5.661430843E1
1.533334212E1,7.063961354E1,-1.269175463E1,2.457440663E1,7.586130172E1
1.534340913E1,6.822945206E1,-6.858289871E0,1.806307358E1,7.091240298E1
1.535347713E1,6.799460917E1,1.720680250E-1,4.974055617E0,6.817651878E1
1.536354413E1,4.398634867E1,3.227300147E-1,-4.840087720E0,4.425301654E1
1.537361213E1,1.773248838E0,2.031545497E0,-2.810265398E1,2.823173302E1
1.538367913E1,-1.875214222E1,1.244470509E0,-4.532777478E1,4.906932556E1
1.539374713E1,-1.097731124E1,-2.458599231E-1,-1.733841177E1,2.052272721E1
1.540381513E1,-8.603659185E0,-4.558577031E-1,-6.131845247E0,1.057498386E1
1.541388213E1,-6.704040322E0,1.220598228E-1,8.803874865E-1,6.762701928E0
1.542395013E1,-5.585085559E0,8.352596994E-1,3.071138632E0,6.428275972E0
1.543401713E1,-7.288293525E0,1.727111091E0,2.281655176E0,7.829947993E0
1.544408513E1,-9.694772429E0,2.091093979E0,2.912980512E-1,9.922002875E0
1.545415213E1,-1.098919278E1,1.859387680E0,-9.249412233E-1,1.118370228E1
1.546422025E1,-1.160136351E1,1.430163606E0,-9.431058910E-1,1.172716726E1
1.547428725E1,-1.186553955E1,1.113875067E0,-5.851118669E-1,1.193206195E1
1.548435525E1,-1.218495072E1,8.445765797E-1,6.260526091E-2,1.221434620E1
1.549442225E1,-1.256270541E1,6.812439660E-1,4.797251603E-1,1.259030566E1
1.550449025E1,-1.251281930E1,8.193525685E-1,1.546657245E-1,1.254057044E1
1.551455725E1,-1.232360808E1,1.139035270E0,-1.600985187E-1,1.237717048E1
1.552462525E1,-1.195754081E1,1.370459587E0,-4.807792671E-1,1.204541781E1
1.553469225E1,-1.168038746E1,1.496187880E0,-6.100663215E-1,1.179161610E1
1.554476025E1,-1.170503114E1,1.606143162E0,-5.547591897E-1,1.182773045E1
1.555482725E1,-1.232528740E1,1.701113200E0,-1.958423726E0,1.259531338E1
1.556489525E1,-1.568882453E1,2.010897516E0,-7.330587605E0,1.743331405E1
1.557496225E1,-1.621907928E1,2.147478826E0,-4.866515965E0,1.706907073E1
1.558503025E1,-1.523157811E1,2.040722409E0,-1.663098990E0,1.545740658E1
1.559509725E1,-1.494383312E1,2.006860452E0,1.221836522E0,1.512740962E1
1.560516525E1,-1.593734055E1,2.730599424E0,2.654476862E0,1.638600758E1
1.561523225E1,-1.547339089E1,2.995181254E0,2.777184191E0,1.600342739E1
1.562530025E1,-1.589399514E1,2.766282642E0,2.878158588E0,1.638765383E1
1.563536725E1,-1.537721588E1,1.873788788E0,1.411847641E0,1.555516527E1
1.564543525E1,-1.238445889E1,8.033895966E-1,-1.715159090E0,1.252844872E1
1.565550225E1,-9.515478671E0,2.708254874E-1,-4.303067740E0,1.044672546E1
1.566557025E1,-8.326546186E0,-5.153706640E-2,-4.687958372E0,9.555677954E0
1.567563725E1,-7.923977083E0,-3.641492419E-2,-3.168599730E0,8.534094159E0
1.568570525E1,-8.247622808E0,4.514635205E-1,-7.045146418E-1,8.289960324E0
1.569577225E1,-8.762995226E0,1.108919186E0,1.401235530E0,8.943335402E0
1.570584025E1,-8.746639395E0,1.547943340E0,2.940883425E0,9.356742200E0
1.571590725E1,-8.505982032E0,1.901448457E0,4.648329452E0,9.877965542E0
1.572597525E1,-7.958493197E0,2.146832709E0,6.571385125E0,1.054180284E1
1.573604225E1,-6.746594018E0,2.456360332E0,8.484693489E0,1.111486664E1
1.574611025E1,-4.457020251E0,3.166732422E0,9.820986918E0,1.124032952E1
1.575617725E1,-2.637208280E0,4.206592190E0,8.216534332E0,9.600089676E0
1.576624525E1,2.942690799E1,-6.389346099E-1,1.139424695E1,3.156231954E1
1.577631225E1,7.026824050E1,-1.403956941E1,1.698264495E1,7.364200814E1
1.578638025E1,6.869030153E1,-1.373976629E1,1.253919258E1,7.116438753E1
1.579644725E1,6.861292650E1,2.605554378E-1,7.642507324E0,6.903773961E1
1.580651525E1,5.310567088E1,3.131041895E0,-1.289549179E0,5.321351933E1
1.581658225E1,1.339131434E1,-2.794969082E-2,-2.093296421E1,2.484989077E1
1.582665025E1,-8.715084895E0,-1.706596719E0,-4.209431130E1,4.302088122E1
1.583671725E1,-6.924075140E0,-3.297955051E0,-2.190234602E1,2.320629409E1
1.584678525E1,-3.747968169E0,-3.886414449E0,-6.294939294E0,8.293234796E0
1.585685225E1,-3.956713768E0,-3.295216507E0,-7.227626324E-1,5.199655902E0
1.586692025E1,-4.607784859E0,-2.036446633E0,9.527114046E-1,5.127031813E0
1.587698725E1,-6.427279326E0,-1.025989003E0,-1.234234373E0,6.624643949E0
1.588705525E1,-8.808751443E0,-2.640437405E-1,-3.213031845E0,9.380159632E0
1.589712225E1,-1.078456947E1,1.019214273E-1,-4.538039563E0,1.170090294E1
1.590719025E1,-1.232792099E1,8.845762856E-2,-5.450958034E0,1.347955504E1
1.591725725E1,-1.374559246E1,-3.336289689E-1,-5.625312064E0,1.485586605E1
1.592732525E1,-1.432316638E1,-4.828489622E-1,-3.933623406E0,1.486134689E1
1.593739225E1,-1.481499557E1,-4.949179807E-1,-2.367124804E0,1.501107316E1
1.594746025E1,-1.498693646E1,-4.281345919E-1,-1.485205055E0,1.506643281E1
1.595752725E1,-1.511067991E1,-3.844319905E-1,-6.472321013E-1,1.512941984E1
1.596759525E1,-1.466461454E1,-2.476433238E-1,-1.966424471E-1,1.466802356E1
1.597766225E1,-1.393031068E1,7.338211790E-2,-1.903873882E-1,1.393180490E1
1.598773025E1,-1.304131170E1,4.991170125E-1,-3.576421680E-1,1.305575875E1
1.599779725E1,-1.224115649E1,8.294095601E-1,-3.603020664E-1,1.227451221E1
1.600786525E1,-1.150535340E1,1.208279606E0,-9.141654626E-1,1.160468849E1
1.601793225E1,-1.189673093E1,2.095429836E0,-4.068747590E0,1.274667565E1
1.602800025E1,-1.248737339E1,2.983748778E0,-6.127848090E0,1.422630567E1
1.603806825E1,-1.253190695E1,3.376374691E0,-5.741460571E0,1.419200364E1
1.604813525E1,-1.234355644E1,3.611714596E0,-4.770678931E0,1.371740666E1
1.605820325E1,-1.211214470E1,3.689148981E0,-3.605912404E0,1.316497146E1
1.606827025E1,-1.205694932E1,3.368764832E0,-2.538760464E0,1.277356286E1
1.607833825E1,-1.231248551E1,2.606608046E0,-1.578996148E0,1.268404248E1
1.608840525E1,-1.264675095E1,1.435194989E0,-9.340915310E-1,1.276215582E1
1.609847325E1,-1.258689885E1,2.623287521E-1,-3.915716600E-1,1.259572020E1
1.610854025E1,-1.200778476E1,-5.032344025E-1,-1.460716422E-1,1.201921281E1
1.611860825E1,-1.123262757E1,-8.820565742E-1,2.172989058E-1,1.126930187E1
1.612867525E1,-1.042754783E1,-5.897334331E-1,1.568557114E0,1.056134039E1
1.613874325E1,-1.029414478E1,1.419443759E-1,3.356949656E0,1.082860452E1
1.614881025E1,-9.218212659E0,7.417576779E-1,4.588461565E0,1.032374102E1
1.615887825E1,-7.963650441E0,1.152765994E0,5.365083486E0,9.671231493E0
1.616894525E1,-7.590484647E0,1.540537257E0,6.415969641E0,1.005750360E1
1.617901325E1,-6.726127594E0,1.864864767E0,7.008781414E0,9.891487751E0
1.618908025E1,-5.239020440E0,3.204398431E0,7.112129197E0,9.396695493E0
1.619914825E1,-4.075437974E0,5.092638320E0,6.048997802E0,8.895759335E0
1.620921525E1,3.117392154E0,4.519324088E0,5.009402035E0,7.432128417E0
1.621928325E1,5.730176848E1,-8.823701019E0,1.233618544E1,5.927505244E1
1.622935025E1,7.059988054E1,-2.155780469E1,2.123112309E1,7.681043330E1
1.623941825E1,6.841879426E1,-1.069403118E1,2.067586214E1,7.227022199E1
1.624948525E1,6.495266773E1,1.940242686E0,8.188958863E0,6.549559248E1
1.625955325E1,3.394766172E1,5.160606354E-1,-5.958406305E0,3.447046070E1
1.626962025E1,9.133989365E0,-1.164983459E0,-9.282355446E0,1.307474936E1
1.627968825E1,-4.650067245E0,-6.056350091E-1,-2.104074710E1,2.155697005E1
1.628975525E1,-1.240573573E1,-1.748129784E0,-2.810804044E1,3.077369289E1
1.629982325E1,-7.575266098E0,-2.276693814E0,-1.090071037E1,1.346823960E1
1.630989025E1,-6.820561881E0,-1.843097484E0,-6.749071484E0,9.770723545E0
1.631995825E1,-6.442180955E0,-8.167757736E-1,-2.964626921E0,7.138475390E0
1.633002525E1,-7.436839115E0,2.418393776E-1,-2.114414576E0,7.735361097E0
1.634009325E1,-9.143963546E0,1.195612929E0,-2.913229018E0,9.671011473E0
1.635016025E1,-1.037409727E1,1.900415985E0,-3.498125123E0,1.111172149E1
1.636022825E1,-1.118499732E1,2.108371624E0,-2.977018925E0,1.176486454E1
1.637029525E1,-1.139860897E1,2.043478640E0,-2.409998051E0,1.182844800E1
1.638036325E1,-1.176106267E1,2.139114238E0,-2.309265436E0,1.217501998E1
1.639043025E1,-1.250232823E1,2.514355940E0,-2.610991119E0,1.301719907E1
1.640049825E1,-1.338968063E1,2.724428565E0,-2.752598988E0,1.393853864E1
1.641056525E1,-1.398239066E1,2.643233836E0,-2.137552008E0,1.438968596E1
1.642063325E1,-1.391010738E1,2.386427048E0,-1.311038135E0,1.417409405E1
1.643070025E1,-1.330739510E1,2.120192502E0,-9.300341481E-1,1.350729225E1
1.644076825E1,-1.249620152E1,2.091775034E0,-1.173325682E0,1.272427869E1
1.645083525E1,-1.248652086E1,2.191793850E0,-2.328746166E0,1.288953926E1
1.646090308E1,-1.447508874E1,3.108238923E0,-6.449028044E0,1.614866267E1
1.647097008E1,-1.536392984E1,3.671376076E0,-7.964982437E0,1.769096627E1
1.648103808E1,-1.525058624E1,3.531394318E0,-7.036654506E0,1.716291447E1
1.649110508E1,-1.477869723E1,3.264928515E0,-5.409362696E0,1.607267416E1
1.650117308E1,-1.408036192E1,2.787741923E0,-3.717096040E0,1.482716763E1
1.651124008E1,-1.333628268E1,2.276722757E0,-1.715122252E0,1.363750515E1
1.652130808E1,-1.275798604E1,1.987269064E0,-3.736813729E-1,1.291723979E1
1.653137508E1,-1.220084228E1,1.893761999E0,2.115317971E-1,1.234875024E1
1.654144308E1,-1.065119682E1,1.979579683E0,6.779348805E-1,1.085478351E1
1.655151008E1,-9.423142950E0,2.006411240E0,1.025382355E0,9.688793428E0
1.656157808E1,-8.916330271E0,1.881840696E0,9.877397346E-1,9.166127846E0
1.657164508E1,-8.628843727E0,1.841310428E0,1.042020607E0,8.884434428E0
1.658171308E1,-8.416621959E0,1.880193097E0,1.585791782E0,8.768659353E0
1.659178108E1,-8.022663465E0,1.947527586E0,2.402237480E0,8.598065927E0
1.660184808E1,-7.401519009E0,1.967305647E0,3.316855298E0,8.345915421E0
1.661191608E1,-6.959516868E0,1.913323713E0,4.528356282E0,8.520662725E0
1.662198308E1,-6.594861111E0,1.859467349E0,5.693999891E0,8.909065420E0
1.663205108E1,-5.940428456E0,1.985586528E0,6.589109790E0,9.091073200E0
1.664211808E1,-4.141847141E0,1.912834740E0,7.875949223E0,9.101890498E0
1.665218608E1,2.566438844E1,-1.668210772E0,1.511704519E1,2.983234514E1
1.666225308E1,6.709921802E1,-1.037015157E1,2.203306404E1,7.138137722E1
1.667232108E1,6.958383093E1,-1.456422604E1,2.409037412E1,7.506245621E1
1.668238808E1,6.874934906E1,-1.803609482E-1,1.432638703E1,7.022642587E1
