"Time (s)","Linear Acceleration x (m/s^2)","Linear Acceleration y (m/s^2)","Linear Acceleration z (m/s^2)","Absolute acceleration (m/s^2)"
1.113075000E-2,4.971133178E0,-3.912448007E-1,-1.465643195E0,5.197436632E0
2.119875001E-2,3.832868864E0,2.965775022E0,-1.619634297E0,5.109786734E0
3.126675001E-2,2.034272638E0,5.560005097E0,-1.736550543E0,6.169888949E0
4.133375001E-2,-4.797187284E-1,7.640709890E0,-1.584967325E0,7.818100735E0
5.140175001E-2,-3.148948992E0,9.616491660E0,-9.752910125E-1,1.016582432E1
6.146875001E-2,-5.059672303E0,1.137386355E1,-9.492346501E-1,1.248463465E1
7.153675001E-2,-6.109500112E0,1.238050851E1,-1.544207554E0,1.389199624E1
8.160375000E-2,-7.028630957E0,1.285451772E1,-2.514976330E0,1.486490447E1
9.167175001E-2,-7.411345255E0,1.267483629E1,-3.798348949E0,1.516598062E1
1.017387500E-1,-7.344713894E0,1.195143281E1,-4.397320179E0,1.470095211E1
1.118067500E-1,-6.853009250E0,1.137078324E1,-4.036400793E0,1.387627395E1
1.218747500E-1,-6.142609971E0,1.099854014E1,-3.097025717E0,1.297270637E1
1.319417500E-1,-5.396908126E0,1.064990107E1,-2.312749207E0,1.216124250E1
1.420097500E-1,-4.943188750E0,1.015334850E1,-1.580786566E0,1.140282803E1
1.520767500E-1,-4.662394345E0,9.522781259E0,-1.353740351E0,1.068896145E1
1.621447500E-1,-4.169291047E0,8.834984391E0,-5.358375999E-1,9.784020593E0
1.722117500E-1,-3.900803277E0,8.498742009E0,8.609533882E-1,9.390746652E0
1.822797500E-1,-3.692267301E0,8.496894289E0,1.904711788E0,9.458222739E0
1.923467500E-1,-3.354258183E0,8.646295912E0,2.546641341E0,9.617424971E0
2.024147500E-1,-3.009743160E0,8.747994195E0,2.674599470E0,9.630131808E0
2.124817500E-1,-2.729852734E0,8.732585027E0,2.762407107E0,9.557250140E0
2.225497500E-1,-2.413181568E0,8.733237576E0,2.571247594E0,9.418290611E0
2.326177500E-1,-1.960532524E0,8.789141636E0,1.913780819E0,9.206261755E0
2.426847500E-1,-1.340981434E0,8.795953057E0,9.366187707E-1,8.946746678E0
2.527527500E-1,-7.686559662E-1,8.609663106E0,-1.273475330E-1,8.644845180E0
2.628197500E-1,-4.479803342E-1,8.583890918E0,-7.110798224E-1,8.624935025E0
2.728877500E-1,-1.546845818E-1,8.310339459E0,-9.401071465E-1,8.364775591E0
2.829547500E-1,3.074433830E-1,7.274759560E0,-1.389510254E0,7.412650459E0
2.930227500E-1,9.631720734E-1,5.108967254E0,-1.943689473E0,5.550421211E0
3.030897500E-1,2.061937277E0,1.001382458E0,-1.890967469E0,2.971550122E0
3.131577500E-1,3.757519596E0,-5.036224968E0,-1.884728490E0,6.560085131E0
3.232247500E-1,6.083816802E0,-1.298131342E1,-1.863243334E0,1.445679774E1
3.332927500E-1,7.872191802E0,-2.103580738E1,-5.431431842E-1,2.246712265E1
3.433607500E-1,8.669169635E0,-2.597763782E1,1.421909530E0,2.742287358E1
3.534277500E-1,9.549699501E0,-2.787610010E1,2.816771010E0,2.960080939E1
3.634957500E-1,1.079965645E1,-2.833828742E1,3.587541622E0,3.053787105E1
3.735627500E-1,1.166610856E1,-2.834212787E1,4.014850295E0,3.091105504E1
3.836307500E-1,9.772205937E0,-2.439014450E1,4.242792302E0,2.661534227E1
3.936977500E-1,8.578699175E0,-2.041671822E1,4.208252800E0,2.254209072E1
4.037657500E-1,8.229649637E0,-1.783076254E1,3.579169579E0,1.996180554E1
4.138327500E-1,7.270971733E0,-1.535346215E1,1.664433178E0,1.706945131E1
4.239007500E-1,5.150802328E0,-1.225545761E1,-5.088761616E-1,1.330360706E1
4.339687500E-1,2.937646406E0,-8.714138816E0,-1.931531796E0,9.396637526E0
4.440357500E-1,1.093559135E0,-4.859343771E0,-2.845877280E0,5.736559157E0
4.541037500E-1,-3.587307733E-1,-1.031410834E0,-3.675646298E0,3.834432394E0
4.641707500E-1,-1.169612700E0,2.671967638E0,-4.225031970E0,5.134033509E0
4.742387500E-1,-1.973972057E0,6.014345448E0,-4.561518180E0,7.802330739E0
4.843057500E-1,-2.978871616E0,8.747904148E0,-4.444285015E0,1.025432457E1
4.943737500E-1,-4.269499460E0,1.096139278E1,-3.783626829E0,1.235704614E1
5.044407500E-1,-5.428163833E0,1.233243036E1,-2.650239969E0,1.373235497E1
5.145087500E-1,-6.049304781E0,1.279688756E1,-1.543788893E0,1.423859908E1
5.245757500E-1,-6.347499331E0,1.260829381E1,-1.118555982E0,1.416019025E1
5.346437500E-1,-6.262594836E0,1.184646242E1,-1.182373663E0,1.345201745E1
5.447117500E-1,-6.041601074E0,1.099176204E1,-1.735103942E0,1.266216261E1
5.547787500E-1,-5.670823867E0,1.037059829E1,-2.428818777E0,1.206676066E1
5.648467500E-1,-5.125648776E0,1.000801362E1,-2.847237343E0,1.159911085E1
5.749137500E-1,-4.309668954E0,9.755384082E0,-2.812998387E0,1.102967475E1
5.849817500E-1,-3.495420493E0,9.654575161E0,-2.430034997E0,1.055148596E1
5.950487500E-1,-2.891284126E0,9.664377433E0,-1.397476355E0,1.018394105E1
6.051167500E-1,-2.681757047E0,9.630390492E0,1.566235185E-2,9.996823855E0
6.151837500E-1,-2.927115863E0,9.406430438E0,9.707687759E-1,9.899057171E0
6.252517500E-1,-3.097030103E0,8.871680347E0,1.371837484E0,9.496328013E0
6.353197500E-1,-3.204815045E0,8.396550806E0,1.931897832E0,9.192667412E0
6.453867500E-1,-3.363918075E0,7.982835156E0,2.500616738E0,9.016356582E0
6.554547500E-1,-3.386121415E0,7.768960379E0,2.643460708E0,8.877524887E0
6.655217500E-1,-3.376252484E0,7.920061787E0,2.056484456E0,8.851869174E0
6.755897500E-1,-3.212977758E0,8.620576934E0,1.007852914E0,9.254908981E0
6.856567500E-1,-2.848842988E0,9.391822339E0,9.150183521E-2,9.814815628E0
6.957247500E-1,-2.455536459E0,9.857975235E0,-4.676181348E-1,1.016995584E1
7.057917500E-1,-2.000813701E0,1.000446904E1,-1.057917871E0,1.025728260E1
7.158597500E-1,-1.631626644E0,9.663434862E0,-1.135509326E0,9.865777226E0
7.259267500E-1,-1.330843532E0,8.615827240E0,-9.695420301E-1,8.771752122E0
7.359947500E-1,-1.948634318E-1,5.559540244E0,-1.638009757E0,5.799097813E0
7.460631250E-1,1.697912727E0,8.454787320E-1,-2.456396585E0,3.103486120E0
7.561301250E-1,3.549425377E0,-5.922968670E0,-2.465780196E0,7.332124546E0
7.661981250E-1,5.298795941E0,-1.478988178E1,-9.711896293E-1,1.574042728E1
7.762651250E-1,6.970271067E0,-2.191911116E1,1.939771693E0,2.308234882E1
7.863331250E-1,9.137356192E0,-2.492762524E1,4.523818842E0,2.693218734E1
7.964001250E-1,1.083489060E1,-2.576286491E1,4.893604946E0,2.837371023E1
8.064681250E-1,1.144096971E1,-2.614146744E1,4.482276714E0,2.888534079E1
8.165351250E-1,1.217835857E1,-2.682160388E1,3.769684728E0,2.969716106E1
8.266031250E-1,9.341294795E0,-2.450309399E1,2.975528762E0,2.639157394E1
8.366711250E-1,7.649512289E0,-2.175759703E1,2.687615372E0,2.321920204E1
8.467381250E-1,8.081317470E0,-1.996672585E1,2.393074894E0,2.167267037E1
8.568061250E-1,7.778262715E0,-1.753191719E1,1.278639883E0,1.922249753E1
8.668731250E-1,6.184860197E0,-1.432843122E1,-2.661769509E-1,1.560856454E1
8.769411250E-1,3.789265884E0,-1.061450905E1,-1.596469967E0,1.138310391E1
8.870081250E-1,1.147125478E0,-6.423069330E0,-2.738419490E0,7.076062308E0
8.970761250E-1,-7.004426408E-1,-2.005654026E0,-2.901812915E0,3.596357345E0
9.071431250E-1,-1.585457321E0,2.025075552E0,-2.386255140E0,3.508392724E0
9.172111250E-1,-2.984932255E0,5.767057927E0,-2.629874117E0,7.006069909E0
9.272791250E-1,-3.957253466E0,8.670955374E0,-3.577228303E0,1.018046583E1
9.373461250E-1,-4.520863659E0,1.073943247E1,-4.228949019E0,1.239587140E1
9.474141250E-1,-5.462547215E0,1.230056888E1,-4.551995990E0,1.420788810E1
9.574811250E-1,-6.020576241E0,1.300876610E1,-4.875237088E0,1.514078170E1
9.675491250E-1,-6.008569568E0,1.277682811E1,-5.490885746E0,1.514925975E1
9.776161250E-1,-5.748293043E0,1.198454910E1,-5.938269079E0,1.455799882E1
9.876841250E-1,-5.512098860E0,1.118784491E1,-5.941818339E0,1.381507556E1
9.977511250E-1,-5.096354810E0,1.064693770E1,-5.565172282E0,1.304995239E1
1.007819125E0,-4.535132912E0,1.015537866E1,-4.588002559E0,1.203116427E1
1.017886125E0,-4.055775249E0,9.685630308E0,-3.187852857E0,1.097374836E1
1.027954125E0,-3.758354286E0,9.449521494E0,-2.062724605E0,1.037658500E1
1.038022125E0,-3.732556078E0,9.390432456E0,-9.873748684E-1,1.015318205E1
1.048089125E0,-3.631178808E0,9.205323057E0,-2.206973533E-2,9.895651529E0
1.058157125E0,-3.374463236E0,8.840586609E0,7.534336174E-1,9.492662215E0
1.068224125E0,-3.087349745E0,8.656044390E0,1.445062165E0,9.303066031E0
1.078292125E0,-2.868827309E0,8.592186947E0,1.891863116E0,9.253917696E0
1.088359125E0,-2.748943309E0,8.498369542E0,2.176222569E0,9.193199598E0
1.098427125E0,-2.563414664E0,8.379783331E0,2.095320493E0,9.010118278E0
1.108494125E0,-2.321522077E0,8.394463935E0,1.863622234E0,8.906715295E0
1.118562125E0,-1.855729662E0,8.610477038E0,1.503443105E0,8.935568732E0
1.128630125E0,-1.540394292E0,8.684924957E0,7.529203780E-1,8.852549078E0
1.138697125E0,-1.429356252E0,8.481125518E0,1.016129136E-2,8.600735585E0
1.148765125E0,-1.329785478E0,8.215589422E0,-3.157437980E-1,8.328501253E0
1.158832125E0,-1.358785914E0,7.569513608E0,-7.104086351E-1,7.723245163E0
1.168900125E0,-1.047397122E0,6.330320796E0,-1.139059829E0,6.516706177E0
1.178967125E0,6.722719252E-2,4.645458469E0,-1.164495217E0,4.789661052E0
1.189035125E0,1.800525514E0,1.879573438E0,-1.038685355E0,2.802419616E0
1.199102125E0,3.776913056E0,-2.571755133E0,-1.115311947E0,4.703500551E0
1.209170125E0,5.463966919E0,-8.962334994E0,-1.561517651E0,1.061210254E1
1.219237125E0,6.697087982E0,-1.625765219E1,-9.819440476E-1,1.761040762E1
1.229305125E0,7.884498437E0,-2.204307681E1,5.338157789E-1,2.341682109E1
1.239373125E0,9.159591984E0,-2.538523535E1,1.640547448E0,2.703700603E1
1.249440125E0,1.035660941E1,-2.710963304E1,2.643349611E0,2.914067362E1
1.259508125E0,1.140421411E1,-2.778290016E1,3.419629469E0,3.022647030E1
1.269575125E0,1.022354550E1,-2.592621273E1,3.769046212E0,2.812285722E1
1.279643125E0,8.585343951E0,-2.301435313E1,3.743691516E0,2.484720923E1
1.289710125E0,8.124472845E0,-2.067804666E1,3.880291829E0,2.255316690E1
1.299778125E0,7.953668659E0,-1.797468005E1,3.557081137E0,1.997505430E1
1.309845125E0,7.392592649E0,-1.442784090E1,2.415426314E0,1.639046379E1
1.319913125E0,6.117943491E0,-1.021560264E1,6.390071885E-1,1.192460062E1
1.329981125E0,4.046803574E0,-5.759309197E0,-1.320669523E0,7.161733699E0
1.340048125E0,1.820461304E0,-1.724476043E0,-2.756258175E0,3.726238869E0
1.350116125E0,-1.545495111E-1,2.019704885E0,-3.658184173E0,4.181555311E0
1.360183125E0,-1.700080290E0,5.246687894E0,-4.071793989E0,6.855473225E0
1.370251125E0,-2.804545067E0,7.963456898E0,-3.729569321E0,9.229940743E0
1.380318125E0,-3.699903764E0,1.008022790E1,-3.220750462E0,1.121041997E1
1.390386125E0,-4.782414878E0,1.175194218E1,-2.668665715E0,1.296539293E1
1.400453125E0,-5.318514506E0,1.244512024E1,-2.000235411E0,1.368095596E1
1.410521125E0,-5.493915188E0,1.203716117E1,-1.694606127E0,1.333971676E1
1.420589125E0,-6.100000725E0,1.113757055E1,-1.902971656E0,1.284043565E1
1.430656125E0,-6.719724308E0,1.010618252E1,-2.248310552E0,1.234279224E1
1.440724125E0,-6.840928903E0,9.266513584E0,-2.232520730E0,1.173246483E1
1.450791125E0,-6.542614485E0,8.855376556E0,-2.052869707E0,1.119990055E1
1.460859125E0,-5.720048652E0,8.819104523E0,-2.018248343E0,1.070368570E1
1.470926125E0,-5.117779008E0,8.902965290E0,-2.002945011E0,1.046261161E1
1.480994125E0,-4.674379383E0,8.862334158E0,-1.752215234E0,1.017158039E1
1.491061125E0,-4.066017817E0,8.935661166E0,-9.490756059E-1,9.863026202E0
1.501129125E0,-3.759380765E0,9.247683796E0,2.179071259E-1,9.984992881E0
1.511196125E0,-3.517651023E0,9.403459468E0,1.228073162E0,1.011469636E1
1.521264125E0,-3.103184297E0,9.123254462E0,1.757090642E0,9.795452633E0
1.531332125E0,-3.045770195E0,8.863070322E0,1.919193002E0,9.566296744E0
1.541399125E0,-2.975441931E0,8.863169725E0,1.670914524E0,9.497420050E0
1.551467125E0,-3.083833814E0,8.703049572E0,1.239533705E0,9.316090738E0
1.561534125E0,-3.325488127E0,8.415068938E0,6.976044023E-1,9.075180903E0
1.571602125E0,-3.573752133E0,8.285278292E0,8.332516193E-2,9.023551616E0
1.581669125E0,-3.426886448E0,8.290915008E0,-5.539405795E-1,8.988307547E0
1.591737125E0,-3.038087830E0,8.302080266E0,-1.045818885E0,8.902148704E0
1.601804125E0,-2.493755615E0,8.039701082E0,-1.374604386E0,8.529076607E0
1.611872125E0,-1.867362990E0,7.247166549E0,-1.227182046E0,7.583827747E0
1.621940125E0,-4.384885490E-1,5.346193471E0,-7.704337391E-1,5.419190436E0
1.632007125E0,1.169762681E0,1.955746286E0,-8.147077596E-1,2.420131608E0
1.642075125E0,3.238731235E0,-3.004461955E0,-1.305133617E0,4.606467780E0
1.652142125E0,5.709714283E0,-9.851508214E0,-1.260554445E0,1.145609221E1
1.662210125E0,7.435708848E0,-1.761430914E1,2.955193754E-1,1.912174114E1
1.672277125E0,8.619479411E0,-2.336163797E1,2.320938671E0,2.500896460E1
1.682345125E0,8.217067598E0,-2.496860720E1,3.642223613E0,2.653709363E1
1.692412125E0,8.379437760E0,-2.454770357E1,4.147631207E0,2.626799521E1
1.702480125E0,1.023186959E1,-2.545496457E1,4.499203234E0,2.780088499E1
1.712547125E0,9.435310421E0,-2.459748910E1,4.997983593E0,2.681494719E1
1.722615125E0,8.098271472E0,-2.217913216E1,6.055332091E0,2.437545797E1
1.732683125E0,8.165896275E0,-2.042092119E1,5.647718010E0,2.270666429E1
1.742750125E0,8.003586924E0,-1.842886370E1,3.619590211E0,2.041523583E1
1.752817542E0,7.499234169E0,-1.542474205E1,1.571263790E0,1.722295127E1
1.762884542E0,6.407092398E0,-1.188042890E1,-3.666379265E-1,1.350295698E1
1.772952542E0,4.620465131E0,-7.955319328E0,-2.085548626E0,9.433202887E0
1.783019542E0,3.058246399E0,-3.596359808E0,-3.514851376E0,5.885648231E0
1.793087542E0,1.770217349E0,8.706264371E-1,-4.423933196E0,4.843846073E0
1.803154542E0,7.347909397E-1,5.057484275E0,-4.622855473E0,6.891215976E0
1.813222542E0,-3.281562674E-1,8.630215484E0,-4.348147434E0,9.669265326E0
1.823290542E0,-1.359601600E0,1.122278086E1,-3.538874661E0,1.184579928E1
1.833357542E0,-2.068800446E0,1.275146756E1,-2.594961562E0,1.317625462E1
1.843425542E0,-2.643570635E0,1.335322090E1,-2.144007919E0,1.378019390E1
1.853492542E0,-3.225148445E0,1.319763000E1,-2.016615801E0,1.373483743E1
1.863560542E0,-3.926435131E0,1.253698351E1,-2.180847716E0,1.331724240E1
1.873627542E0,-5.060002670E0,1.167113015E1,-2.668579177E0,1.299770060E1
1.883695542E0,-5.955072223E0,1.096149452E1,-3.674040653E0,1.300445393E1
1.893762542E0,-6.183404240E0,1.054380568E1,-5.109947248E0,1.324831639E1
1.903830542E0,-6.008045658E0,1.066362449E1,-5.739789437E0,1.351867903E1
1.913897542E0,-5.398834199E0,1.073201001E1,-5.257995239E0,1.311373187E1
1.923965542E0,-4.619771359E0,1.041060260E1,-4.114811954E0,1.211010369E1
1.934033542E0,-4.078124185E0,1.020060219E1,-2.861208680E0,1.135208778E1
1.944100542E0,-3.543836609E0,9.985735728E0,-1.545847113E0,1.070809690E1
1.954168542E0,-3.286934803E0,9.630297521E0,-1.911127535E-1,1.017757804E1
1.964235542E0,-3.057194484E0,9.245554824E0,8.874962389E-1,9.778260157E0
1.974303542E0,-2.881040681E0,8.656178291E0,1.762598720E0,9.291747535E0
1.984370542E0,-2.801703028E0,8.076964218E0,2.355277176E0,8.867593891E0
1.994438542E0,-2.945990091E0,7.761496409E0,2.528106837E0,8.678191534E0
2.004505542E0,-3.040466478E0,7.492976478E0,2.374389385E0,8.427743343E0
2.014573542E0,-3.008854383E0,7.416431163E0,1.854799955E0,8.215652060E0
2.024641542E0,-2.782007267E0,7.660395711E0,1.120323011E0,8.226563713E0
2.034708542E0,-2.157043701E0,8.215076621E0,3.440033913E-1,8.500509382E0
2.044776542E0,-1.696291294E0,8.721429124E0,-2.843477217E-1,8.889408515E0
2.054843542E0,-1.282593770E0,8.769268704E0,-6.336311853E-1,8.885190423E0
2.064911542E0,-4.913380229E-1,7.970817958E0,-1.269782521E0,8.086266111E0
2.074978542E0,1.490747631E-1,6.115589987E0,-2.045478827E0,6.450321527E0
2.085046542E0,1.354358987E0,2.627327655E0,-2.258981720E0,3.720233499E0
2.095113542E0,2.835762182E0,-2.696248201E0,-2.051027834E0,4.417919951E0
2.105181542E0,4.798616928E0,-1.005608592E1,-2.011487793E0,1.132244106E1
2.115248542E0,6.833682448E0,-1.821463341E1,-6.624310613E-1,1.946563385E1
2.125316542E0,8.176247601E0,-2.471289677E1,1.647731338E0,2.608243298E1
2.135384542E0,8.687924579E0,-2.851702510E1,3.761254213E0,3.004742564E1
2.145451542E0,7.992884181E0,-3.136740240E1,5.347617853E0,3.280849200E1
2.155519542E0,7.199877777E0,-3.338837789E1,7.605701441E0,3.499240935E1
2.165586542E0,4.532049383E0,-2.962763589E1,9.589202120E0,3.146885885E1
2.175654542E0,3.037580000E0,-2.333980213E1,9.546974698E0,2.539917285E1
2.185721542E0,4.256820942E0,-1.858128892E1,8.588050042E0,2.090787952E1
2.195789542E0,5.643850662E0,-1.499091256E1,6.049662631E0,1.712246851E1
2.205856542E0,5.675751901E0,-1.156850099E1,2.110387598E0,1.305749251E1
2.215924542E0,4.195018212E0,-8.165623795E0,-2.454099798E0,9.502536271E0
2.225992542E0,3.128860006E0,-4.786602654E0,-6.107117956E0,8.366493868E0
2.236059542E0,2.589000326E0,-1.368837277E0,-7.755431677E0,8.289955287E0
2.246127542E0,2.052054313E0,1.993157356E0,-7.713894811E0,8.227258128E0
2.256194542E0,1.473588392E0,5.107462766E0,-7.018847396E0,8.804649761E0
2.266262542E0,4.595622066E-1,7.881073723E0,-5.937317737E0,9.877968534E0
2.276329542E0,-7.938931337E-1,9.926198208E0,-4.274840307E0,1.083669400E1
2.286397542E0,-2.192089573E0,1.120559472E1,-2.776950887E0,1.175083257E1
2.296464542E0,-3.389852523E0,1.180073135E1,-2.083691550E0,1.245351882E1
2.306532542E0,-4.367556097E0,1.185615710E1,-2.011591288E0,1.279415910E1
2.316599542E0,-5.029862612E0,1.136698255E1,-2.280184309E0,1.263752550E1
2.326667542E0,-5.377890058E0,1.080269817E1,-2.537878704E0,1.233129424E1
2.336735542E0,-5.358921690E0,1.056101170E1,-2.692146379E0,1.214498505E1
2.346802542E0,-4.681842769E0,1.028094644E1,-2.678591949E0,1.161001147E1
2.356870542E0,-4.241593331E0,1.018823299E1,-2.752294933E0,1.137393216E1
2.366937542E0,-3.698567383E0,1.033901046E1,-2.885062981E0,1.135333107E1
2.377005542E0,-2.873489294E0,1.048420735E1,-2.566813651E0,1.116978410E1
2.387072542E0,-2.210105137E0,1.047709480E1,-1.745804932E0,1.084905134E1
2.397140542E0,-1.885222141E0,1.028172529E1,-9.816305637E-1,1.049912073E1
2.407207542E0,-1.973355468E0,9.998378577E0,-1.966699290E-1,1.019315383E1
2.417275542E0,-2.009250063E0,9.582816961E0,6.714123845E-1,9.814186737E0
2.427342542E0,-2.038965613E0,9.315476999E0,1.058053672E0,9.594528131E0
2.437410542E0,-1.873901054E0,8.914414723E0,1.211555947E0,9.189459333E0
2.447478542E0,-1.730189357E0,8.534390144E0,1.379966283E0,8.816670420E0
2.457545542E0,-1.939835720E0,8.483027033E0,1.452631971E0,8.822406129E0
2.467613542E0,-1.894266614E0,8.688581221E0,1.102967305E0,8.960816175E0
2.477680542E0,-1.562158214E0,8.654635795E0,1.569310637E-1,8.795890313E0
2.487748542E0,-9.913427889E-1,8.237752123E0,-7.107816875E-1,8.327576549E0
2.497815542E0,-5.348462775E-1,7.967231276E0,-9.303083825E-1,8.039173368E0
2.507883542E0,7.174457592E-1,7.449318243E0,-1.250632889E0,7.587565705E0
2.517950542E0,1.983214751E0,5.891439314E0,-2.004032593E0,6.531335589E0
2.528018542E0,3.110120849E0,2.704916698E0,-2.443946693E0,4.791899569E0
2.538086542E0,5.097886781E0,-3.384981793E0,-2.611019186E0,6.653117506E0
2.548153542E0,7.999220223E0,-1.310300451E1,-1.966279460E0,1.547716079E1
2.558221542E0,1.014757028E1,-2.329025517E1,9.291335307E-2,2.540507432E1
2.568288542E0,1.046518168E1,-2.861259200E1,3.267832242E0,3.064113536E1
2.578356542E0,1.083888542E1,-2.980119996E1,5.281496369E0,3.214789511E1
2.588423542E0,1.070529759E1,-2.972971892E1,6.733403285E0,3.230786751E1
2.598491542E0,9.595872624E0,-2.795843358E1,7.946050322E0,3.060873233E1
2.608558542E0,7.475954649E0,-2.355843654E1,8.454668037E0,2.612223654E1
2.618626542E0,6.544686154E0,-1.988502388E1,7.684768660E0,2.230028612E1
2.628693542E0,6.102098122E0,-1.792860166E1,5.426062928E0,1.970057151E1
2.638761542E0,4.907853441E0,-1.604334940E1,2.304322200E0,1.693475675E1
2.648829542E0,2.937693769E0,-1.390526471E1,-4.797289610E-2,1.421227402E1
2.658896542E0,1.916091639E-1,-1.076415684E1,-1.833913701E0,1.092094437E1
2.668964542E0,-1.674396687E0,-6.916742731E0,-3.385254858E0,7.880665247E0
2.679031542E0,-2.993314238E0,-2.729497808E0,-4.307749021E0,5.913272363E0
2.689099542E0,-3.976669438E0,1.701584778E0,-4.598726352E0,6.313285566E0
2.699166542E0,-4.450646493E0,5.748644460E0,-4.172684187E0,8.382509210E0
2.709234542E0,-4.886477775E0,9.191385049E0,-3.510327970E0,1.098551895E1
2.719301542E0,-5.273738283E0,1.168160017E1,-3.233702629E0,1.321850713E1
2.729369542E0,-5.270672003E0,1.296195563E1,-3.433628288E0,1.440770906E1
2.739436542E0,-5.177295477E0,1.347697488E1,-3.910928316E0,1.495755998E1
2.749504375E0,-5.027519048E0,1.341683393E1,-4.646208082E0,1.506235805E1
2.759572375E0,-4.958092718E0,1.282813742E1,-5.377048059E0,1.476673420E1
2.769639375E0,-4.730671113E0,1.197725060E1,-5.983948113E0,1.420004986E1
2.779707375E0,-4.104805614E0,1.120127246E1,-6.320520278E0,1.350062630E1
2.789774375E0,-3.497160333E0,1.065473087E1,-5.845387228E0,1.264602595E1
2.799842375E0,-3.376238451E0,1.019679332E1,-4.579614143E0,1.167674808E1
2.809909375E0,-3.305383938E0,9.951635935E0,-3.022681294E0,1.091316741E1
2.819977375E0,-3.084938938E0,9.713306934E0,-1.326706919E0,1.027741850E1
2.830044375E0,-2.927029032E0,9.453169572E0,2.127205360E-1,9.898240446E0
2.840112375E0,-2.975853575E0,9.212305802E0,1.530777669E0,9.801304146E0
2.850179375E0,-3.121650974E0,8.896895880E0,2.202179528E0,9.682409606E0
2.860247375E0,-3.162764209E0,8.547401953E0,2.262230433E0,9.390359105E0
2.870315375E0,-3.185267803E0,8.349635671E0,1.954271618E0,9.147760621E0
2.880382375E0,-2.970465951E0,8.335525755E0,1.407293830E0,8.960197180E0
2.890450375E0,-2.457504047E0,8.540039724E0,8.299830258E-1,8.925271786E0
2.900517375E0,-1.739347267E0,8.591964169E0,3.429042974E-2,8.766319240E0
2.910585375E0,-1.158151280E0,8.482465700E0,-7.828147066E-1,8.596879527E0
2.920652375E0,-8.860113385E-1,8.634216734E0,-1.605820835E0,8.826855343E0
2.930720375E0,-6.638738617E-1,8.714254591E0,-2.403281647E0,9.063924330E0
2.940787375E0,-7.488111010E-1,8.320628804E0,-3.071755221E0,8.901082063E0
2.950855375E0,-5.659356308E-1,6.644055490E0,-3.296917462E0,7.438643778E0
2.960923375E0,6.551799291E-1,2.584990890E0,-2.234290098E0,3.479007169E0
2.970990375E0,2.587944319E0,-3.930197815E0,-6.219145346E-1,4.746650224E0
2.981058375E0,5.018941183E0,-1.203722783E1,8.479293001E-1,1.306918546E1
2.991125375E0,6.634280700E0,-1.978008039E1,1.828848842E0,2.094301671E1
3.001193375E0,6.126987965E0,-2.360999495E1,2.486807953E0,2.451848398E1
3.011260375E0,6.152504629E0,-2.477264128E1,2.287910235E0,2.562755553E1
3.021328375E0,6.856974247E0,-2.540175958E1,2.600869589E0,2.643921346E1
3.031395375E0,9.288160561E0,-2.741256559E1,4.386886407E0,2.927393809E1
3.041463375E0,9.344976202E0,-2.692942185E1,6.497644719E0,2.923596635E1
3.051531375E0,7.705304666E0,-2.362958780E1,7.243944733E0,2.588829610E1
3.061598375E0,7.265092358E0,-2.049011247E1,6.451389735E0,2.267700830E1
3.071666375E0,6.997648315E0,-1.731514687E1,3.742051957E0,1.904689859E1
3.081733375E0,6.177253554E0,-1.385979092E1,3.588798042E-1,1.517830888E1
3.091801375E0,4.891009367E0,-1.040918992E1,-1.795057783E0,1.164025085E1
3.101868375E0,3.306353991E0,-6.925617051E0,-2.902639711E0,8.204965907E0
3.111936375E0,1.715863387E0,-3.503016611E0,-3.420250443E0,5.187815112E0
3.122003375E0,3.678775728E-1,-4.061271340E-1,-3.390623771E0,3.434618278E0
3.132071375E0,-8.326844394E-1,2.621223162E0,-3.091625229E0,4.137912614E0
3.142138375E0,-2.368574914E0,5.516986547E0,-2.620902150E0,6.551062186E0
3.152206375E0,-3.680244548E0,8.080864896E0,-1.909996501E0,9.082547221E0
3.162274375E0,-4.749210002E0,1.027615407E1,-1.248779322E0,1.138919610E1
3.172341375E0,-5.568535016E0,1.187356426E1,-9.577505350E-1,1.314942572E1
3.182409375E0,-5.884225019E0,1.257251002E1,-1.200076693E0,1.393313663E1
3.192476375E0,-5.655983634E0,1.227841027E1,-1.398746370E0,1.359065860E1
3.202544375E0,-5.245125518E0,1.159042103E1,-1.725761261E0,1.283851445E1
3.212611375E0,-5.007030405E0,1.123658146E1,-2.324621394E0,1.251938421E1
3.222679375E0,-4.931070980E0,1.106493995E1,-3.172027953E0,1.252238469E1
3.232746375E0,-4.610441541E0,1.083704472E1,-3.630153791E0,1.232378700E1
3.242814375E0,-4.215854765E0,1.055459731E1,-3.603474115E0,1.192300220E1
3.252882375E0,-3.687383999E0,1.042888568E1,-3.374969605E0,1.156498496E1
3.262949375E0,-3.336111934E0,1.030833597E1,-2.635764602E0,1.115072591E1
3.273017375E0,-3.524195519E0,1.002470391E1,-1.583231871E0,1.074342896E1
3.283084375E0,-3.670879648E0,9.774335493E0,-4.773904402E-2,1.044103782E1
3.293152375E0,-3.622955576E0,9.555811595E0,1.225691006E0,1.029279655E1
3.303219375E0,-3.725571872E0,9.430513365E0,1.870902017E0,1.031090406E1
3.313287375E0,-3.547570056E0,9.216036326E0,2.128262537E0,1.010198398E1
3.323354375E0,-3.236590569E0,8.734387139E0,2.100674204E0,9.548710348E0
3.333422375E0,-2.873551567E0,8.496016622E0,1.747116462E0,9.137396401E0
3.343489375E0,-2.358382047E0,8.644602558E0,1.040018520E0,9.020684996E0
3.353557375E0,-2.368351842E0,8.739475386E0,6.425131790E-1,9.077463504E0
3.363624375E0,-2.382997071E0,8.416636577E0,9.200944662E-2,8.747966166E0
3.373692375E0,-2.284466517E0,8.150354961E0,-5.465871577E-1,8.482088821E0
3.383760375E0,-1.691275553E0,7.783495388E0,-7.418900442E-1,7.999600883E0
3.393827375E0,-5.545727366E-1,6.651822932E0,-7.958750474E-1,6.722180920E0
3.403895375E0,8.125387350E-1,4.107461420E0,-1.160012741E0,4.344777102E0
3.413962375E0,2.703823561E0,-3.208039784E-1,-1.015268426E0,2.905915866E0
3.424030375E0,4.756638890E0,-6.814362663E0,-4.477200234E-1,8.322355751E0
3.434097375E0,7.270132073E0,-1.508884407E1,4.370723534E-1,1.675467302E1
3.444165375E0,9.356280624E0,-2.238546169E1,2.274938772E0,2.436850896E1
3.454232375E0,9.030781331E0,-2.414181559E1,3.329052590E0,2.598970685E1
3.464300375E0,8.685289239E0,-2.301013144E1,2.644658217E0,2.473650369E1
3.474368375E0,1.022286488E1,-2.393239171E1,2.772190669E0,2.617157581E1
3.484435375E0,1.070763882E1,-2.467843328E1,4.297468446E0,2.724237202E1
3.494503375E0,9.340785502E0,-2.279851836E1,4.862704750E0,2.511311631E1
3.504570375E0,8.785495312E0,-2.053612538E1,4.629532993E0,2.281118035E1
3.514638375E0,8.609070783E0,-1.873231548E1,2.821552863E0,2.080809707E1
3.524705375E0,7.175690185E0,-1.603522762E1,2.635972325E-1,1.756953437E1
3.534773375E0,4.824501967E0,-1.214049434E1,-1.231741705E0,1.312191334E1
3.544840375E0,2.754240301E0,-7.958713637E0,-1.479439116E0,8.550772041E0
3.554908375E0,8.208637083E-1,-3.993323770E0,-1.222936968E0,4.256292611E0
3.564975375E0,-9.564787656E-1,-5.038949186E-1,-1.230172897E0,1.637707872E0
3.575043375E0,-2.221789336E0,2.472074724E0,-1.279343888E0,3.561491552E0
3.585111375E0,-3.346083190E0,5.050743020E0,-1.742828114E0,6.304262653E0
3.595178375E0,-4.799463605E0,7.277190247E0,-2.594431804E0,9.095241898E0
3.605246375E0,-6.092165456E0,9.208092883E0,-3.566969363E0,1.160287572E1
3.615313375E0,-6.805319359E0,1.043321028E1,-4.518451098E0,1.325068484E1
3.625381375E0,-7.193074542E0,1.098502956E1,-5.093615389E0,1.408389554E1
3.635448375E0,-7.041342219E0,1.098370926E1,-5.258492253E0,1.406677327E1
3.645516375E0,-6.721795392E0,1.073278419E1,-5.033610678E0,1.362763465E1
3.655583375E0,-5.941915403E0,1.046551731E1,-4.022096164E0,1.268899795E1
3.665651375E0,-4.954679114E0,1.019295286E1,-2.863932313E0,1.168962110E1
3.675718375E0,-4.427729501E0,1.020810183E1,-1.978863838E0,1.130159429E1
3.685786375E0,-3.768809693E0,1.003922489E1,-1.165505615E0,1.078648998E1
3.695854375E0,-2.963774397E0,9.978127331E0,-3.900127923E-1,1.041628982E1
3.705921375E0,-2.244330937E0,9.974741793E0,3.488799691E-1,1.023006415E1
3.715989375E0,-1.808889372E0,9.795010078E0,6.890025634E-1,9.984439279E0
3.726056375E0,-1.760572075E0,9.477815586E0,7.753501511E-1,9.671079059E0
3.736124375E0,-1.985942185E0,9.290146860E0,5.470806992E-1,9.515781226E0
3.746191375E0,-2.299620454E0,8.910205897E0,3.815307756E-2,9.202254018E0
3.756259542E0,-2.640239184E0,8.331965970E0,-4.518564534E-1,8.751953733E0
3.766326542E0,-3.275479816E0,8.156974593E0,-3.789042521E-1,8.798214079E0
3.776394542E0,-3.652707086E0,8.004725377E0,-2.942716527E-1,8.803663625E0
3.786462542E0,-3.820415171E0,7.567170044E0,-6.159714246E-1,8.499238516E0
3.796529542E0,-3.986881308E0,7.249142908E0,-1.384345847E0,8.388188654E0
3.806597542E0,-4.091893208E0,7.250152722E0,-2.202318692E0,8.611533669E0
3.816664542E0,-3.397721121E0,7.050341669E0,-1.942724537E0,8.063870354E0
3.826732542E0,-2.434264289E0,6.384380643E0,-1.140946140E0,6.927316719E0
3.836799542E0,-1.420926613E0,4.961487027E0,-1.003330750E0,5.257571545E0
3.846867542E0,4.932822222E-1,2.334071664E0,-1.105600891E0,2.629367074E0
3.856934542E0,2.786310525E0,-2.153210852E0,-1.253659408E0,3.737847673E0
3.867002542E0,4.764762719E0,-8.813522186E0,-1.220291687E0,1.009307926E1
3.877069542E0,6.886858197E0,-1.650089637E1,-4.282605628E-1,1.788551939E1
3.887137542E0,9.264021501E0,-2.299694947E1,6.336335242E-1,2.480087238E1
3.897205542E0,1.068708235E1,-2.668978425E1,1.998314016E0,2.881929165E1
3.907272542E0,1.059479223E1,-2.721356145E1,3.345995482E0,2.939427215E1
3.917340542E0,1.157137080E1,-2.692695901E1,3.723765374E0,2.954359782E1
3.927407542E0,1.073817883E1,-2.500322272E1,3.211152842E0,2.740038564E1
3.937475542E0,8.372933902E0,-2.058726980E1,3.011512527E0,2.242790467E1
3.947542542E0,7.732135200E0,-1.668180454E1,3.107712089E0,1.864742320E1
3.957610542E0,7.769464994E0,-1.430148140E1,2.012928547E0,1.639965969E1
3.967677542E0,6.934494293E0,-1.215236418E1,2.151810443E-1,1.399333660E1
3.977745542E0,5.307594831E0,-9.259216844E0,-1.034323332E0,1.072256892E1
3.987813542E0,3.561819720E0,-5.975649744E0,-1.710909333E0,7.163948655E0
3.997880542E0,2.213160599E0,-2.812879103E0,-2.096982272E0,4.148216886E0
4.007948542E0,8.601207447E-1,3.257951617E-2,-2.522728568E0,2.665525942E0
4.018015542E0,-4.531896186E-1,2.840776754E0,-3.262239965E0,4.349437089E0
4.028083542E0,-1.794204674E0,5.373112298E0,-3.675422934E0,6.752646883E0
4.038150542E0,-3.275472214E0,7.524546180E0,-3.833446276E0,9.057749378E0
4.048218542E0,-4.627562481E0,9.489900611E0,-3.643632792E0,1.116909164E1
4.058285542E0,-5.472365275E0,1.120035562E1,-2.952370280E0,1.281059085E1
4.068353542E0,-5.701701844E0,1.210120105E1,-1.830896537E0,1.350187590E1
4.078420542E0,-5.536596939E0,1.211115301E1,-5.531466373E-1,1.332816207E1
4.088488542E0,-5.205122377E0,1.160952155E1,-3.013654947E-3,1.272298309E1
4.098556542E0,-4.682668103E0,1.088908143E1,-2.649607666E-1,1.185620846E1
4.108623542E0,-3.941851023E0,1.057262193E1,-4.417208898E-1,1.129219382E1
4.118691542E0,-3.356521055E0,1.083160447E1,-6.143938458E-1,1.135638009E1
4.128758542E0,-3.337007435E0,1.118675850E1,-1.290501544E0,1.174498100E1
4.138826542E0,-3.634600013E0,1.106927858E1,-1.975050284E0,1.181693993E1
4.148893542E0,-3.679495520E0,1.072328363E1,-2.312824051E0,1.157050795E1
4.158961542E0,-3.528643788E0,1.063891649E1,-2.113580178E0,1.140636192E1
4.169028542E0,-3.540843419E0,1.068567902E1,-1.119987381E0,1.131263364E1
4.179096542E0,-3.604442414E0,1.054857350E1,-1.489624965E-1,1.114838992E1
4.189163542E0,-3.700168351E0,1.008078923E1,3.641552353E-1,1.074458777E1
4.199231542E0,-3.739308443E0,9.303130603E0,9.134847736E-1,1.006802469E1
4.209298542E0,-3.724336647E0,8.678359703E0,1.352184992E0,9.540074154E0
4.219366542E0,-3.892064613E0,8.498647869E0,1.241386102E0,9.429539862E0
4.229434542E0,-3.917370193E0,8.362127078E0,9.181601342E-1,9.279761664E0
4.239501542E0,-3.857345016E0,8.165009837E0,1.084997715E0,9.095257899E0
4.249569542E0,-3.697621304E0,8.110316151E0,1.304647129E0,9.008425807E0
4.259636542E0,-3.305745004E0,7.742761345E0,1.185266939E0,8.501950423E0
4.269704542E0,-2.917079410E0,6.701661674E0,5.405389074E-1,7.328970173E0
4.279771542E0,-1.668739214E0,4.842579803E0,1.584140090E-1,5.124486776E0
4.289839542E0,7.701712722E-1,1.411300927E0,-1.289275237E-1,1.612934097E0
4.299906542E0,4.004253970E0,-4.810126587E0,-9.267356607E-1,6.326942913E0
4.309974542E0,8.034468409E0,-1.407900069E1,-1.656716169E0,1.629465101E1
4.320042542E0,1.157440200E1,-2.463398274E1,-8.269037358E-1,2.723019753E1
4.330109542E0,1.220073469E1,-3.008943495E1,1.979708322E0,3.252923712E1
4.340177542E0,1.232970556E1,-3.060944889E1,4.740156466E0,3.333810258E1
4.350244542E0,1.401737572E1,-2.968212258E1,6.552036688E0,3.347304001E1
4.360312542E0,1.507774255E1,-2.756099599E1,6.392042835E0,3.205939849E1
4.370379542E0,1.236634889E1,-2.298631456E1,4.978940381E0,2.657229928E1
4.380447542E0,9.903087673E0,-1.865719045E1,3.492760595E0,2.140937359E1
4.390514542E0,8.705434651E0,-1.590204676E1,2.297989811E0,1.827403734E1
4.400582542E0,6.945895194E0,-1.379772740E1,9.804308613E-1,1.547850077E1
4.410650542E0,4.538821628E0,-1.148874497E1,4.248733073E-3,1.235282076E1
4.420717542E0,1.687543859E0,-8.636614092E0,-1.228354998E0,8.885255385E0
4.430785542E0,-4.329272622E-1,-5.305023226E0,-2.729025353E0,5.981494530E0
4.440852542E0,-1.390975420E0,-1.643520173E0,-3.822565777E0,4.387252022E0
4.450920542E0,-2.117093185E0,2.491708505E0,-4.601005597E0,5.644461651E0
4.460987542E0,-3.141178628E0,6.939956762E0,-5.122218214E0,9.179712548E0
4.471055542E0,-3.700433815E0,1.077401407E1,-5.471172443E0,1.263749649E1
4.481122542E0,-3.606823400E0,1.340818122E1,-5.409838659E0,1.490150505E1
4.491190542E0,-3.425628127E0,1.463567199E1,-5.235366515E0,1.591687423E1
4.501257542E0,-2.950505018E0,1.452591274E1,-5.324440075E0,1.574983438E1
4.511325542E0,-2.535698862E0,1.382475440E1,-5.768047276E0,1.519289216E1
4.521393542E0,-2.436438283E0,1.275848656E1,-5.992224262E0,1.430461333E1
4.531460542E0,-2.969161144E0,1.160349541E1,-5.829262362E0,1.332056017E1
4.541528542E0,-4.085714455E0,1.066728718E1,-5.315300292E0,1.259906725E1
4.551595542E0,-5.114734948E0,9.972400568E0,-4.479678211E0,1.206966460E1
4.561663542E0,-5.786671827E0,9.363767983E0,-3.294012566E0,1.148983205E1
4.571730542E0,-6.093180533E0,8.910709927E0,-2.086580075E0,1.099460853E1
4.581798542E0,-6.353355902E0,8.609602295E0,-6.450249966E-1,1.071944216E1
4.591865542E0,-6.415870823E0,8.277749417E0,9.890834248E-1,1.051963972E1
4.601933542E0,-6.431724379E0,7.908586042E0,1.967215015E0,1.038184697E1
4.612000542E0,-6.451103806E0,7.711295139E0,2.758088354E0,1.042534721E1
4.622068542E0,-6.108491467E0,7.577710235E0,3.567416675E0,1.036637941E1
4.632135542E0,-5.642140936E0,7.532938689E0,4.030373483E0,1.023830211E1
4.642203542E0,-5.103468533E0,7.846430140E0,4.039960577E0,1.019476034E1
4.652271542E0,-4.404275442E0,8.356727759E0,3.524265393E0,1.008231063E1
4.662338542E0,-3.668562981E0,8.549680613E0,2.774340105E0,9.708365256E0
4.672406542E0,-3.139777635E0,8.439043692E0,2.139760501E0,9.254957430E0
4.682473542E0,-2.826449322E0,8.349900550E0,1.241692497E0,8.902328640E0
4.692541542E0,-2.331938015E0,8.086215683E0,6.029181734E-1,8.437317660E0
4.702608542E0,-1.364865848E0,7.765319903E0,5.973164678E-1,7.906948776E0
4.712676542E0,3.935643911E-2,6.943284413E0,-1.995852777E-1,6.946263862E0
4.722743542E0,1.891945562E0,3.838968971E0,-1.817621019E0,4.649826549E0
4.732811542E0,3.868704402E0,-2.300604540E0,-3.014928471E0,5.417513146E0
4.742879542E0,5.543838716E0,-1.100433824E1,-3.463019317E0,1.279930117E1
4.752946167E0,6.238538806E0,-2.009402676E1,-2.272882891E0,2.116259139E1
4.763014167E0,5.843223758E0,-2.531860750E1,1.077189197E0,2.600645085E1
4.773081167E0,5.709988518E0,-2.537757082E1,4.698626032E0,2.643297479E1
4.783149167E0,7.344617414E0,-2.434215991E1,7.151731803E0,2.641271326E1
4.793216167E0,9.771087949E0,-2.483351079E1,7.274809846E0,2.766044606E1
4.803284167E0,9.435729666E0,-2.320961972E1,5.918184478E0,2.574382158E1
4.813351167E0,8.157234794E0,-1.946201057E1,4.387657070E0,2.155369735E1
4.823419167E0,8.318201625E0,-1.763064392E1,3.460557640E0,1.979918035E1
4.833486167E0,8.449775087E0,-1.655954628E1,2.034351575E0,1.870176083E1
4.843554167E0,7.390850764E0,-1.479218091E1,4.290464652E-1,1.654138361E1
4.853622167E0,5.624696352E0,-1.234479839E1,-4.384429407E-1,1.357289536E1
4.863689167E0,3.665124233E0,-9.314961274E0,-1.447667685E0,1.011421677E1
4.873757167E0,1.953024992E0,-5.688279560E0,-2.649503805E0,6.571963282E0
4.883824167E0,9.002303052E-1,-1.467863967E0,-3.211965605E0,3.644415217E0
4.893892167E0,4.279805177E-1,2.685214505E0,-3.409072906E0,4.360656182E0
4.903959167E0,-5.621980906E-2,6.315802159E0,-3.475177433E0,7.208978830E0
4.914027167E0,-1.099313088E0,9.348503827E0,-3.424974993E0,1.001665946E1
4.924094167E0,-2.540812837E0,1.159711376E1,-3.255449009E0,1.231043158E1
4.934162167E0,-3.902240523E0,1.316621992E1,-2.976470164E0,1.405119934E1
4.944230167E0,-5.003154286E0,1.377792756E1,-2.848854682E0,1.493247513E1
4.954297167E0,-5.666939562E0,1.320384442E1,-3.074406933E0,1.469379765E1
4.964365167E0,-6.031925687E0,1.208630117E1,-3.268099460E0,1.389759971E1
4.974432167E0,-6.415870239E0,1.117648377E1,-3.779916186E0,1.343000174E1
4.984500167E0,-6.151643919E0,1.071299721E1,-3.977610548E0,1.297815155E1
4.994567167E0,-5.451908206E0,1.076910943E1,-3.888276787E0,1.268131371E1
5.004635167E0,-4.523242307E0,1.091199199E1,-3.824279011E0,1.241597359E1
5.014702167E0,-3.559919375E0,1.077167051E1,-3.743557030E0,1.194638568E1
5.024770167E0,-3.114373822E0,1.033133775E1,-3.221394825E0,1.126113887E1
5.034837167E0,-2.866034387E0,9.522217003E0,-2.183322258E0,1.018104444E1
5.044905167E0,-3.055679471E0,8.745641860E0,-1.099340862E0,9.329093145E0
5.054972167E0,-3.495443298E0,8.140507665E0,-2.900312154E-1,8.863978057E0
5.065040167E0,-3.795615960E0,7.707960472E0,4.751822026E-1,8.604949348E0
5.075108167E0,-4.244062318E0,7.544710304E0,1.485017505E0,8.782937750E0
5.085175167E0,-4.516251960E0,7.608466004E0,2.643624430E0,9.234394232E0
5.095243167E0,-4.117484717E0,7.844596453E0,3.363158230E0,9.476402650E0
5.105310167E0,-3.376783412E0,8.289825087E0,3.192144713E0,9.503349623E0
5.115378167E0,-2.331570809E0,8.828686355E0,2.176328988E0,9.387136574E0
5.125445167E0,-1.423336251E0,9.330338867E0,7.468415395E-1,9.467781247E0
5.135513167E0,-5.455545759E-1,9.014467599E0,-3.346805175E-1,9.037160336E0
5.145580167E0,3.130891621E-1,7.593707632E0,-8.821776116E-1,7.651186690E0
5.155648167E0,1.449502541E0,4.876722280E0,-1.603736887E0,5.334364987E0
5.165715167E0,3.507682105E0,8.782517910E-4,-1.981926609E0,4.028879199E0
5.175783167E0,5.988024791E0,-6.580645360E0,-1.719277868E0,9.061856910E0
5.185851167E0,8.892323942E0,-1.469909323E1,-1.223765006E0,1.722307661E1
5.195918167E0,1.078477997E1,-2.197230445E1,1.573843874E-2,2.447639454E1
5.205986167E0,1.134902107E1,-2.575438411E1,1.629149032E0,2.819118136E1
5.216053167E0,1.177575906E1,-2.729756723E1,3.352433267E0,2.991762836E1
5.226121167E0,1.254619872E1,-2.870111650E1,4.204173782E0,3.160437103E1
5.236188167E0,1.160524489E1,-2.801315884E1,4.004217718E0,3.058516857E1
5.246256167E0,9.295833862E0,-2.406918849E1,2.799847999E0,2.595337185E1
5.256323167E0,8.338426559E0,-1.995897479E1,1.580392463E0,2.168842254E1
5.266391167E0,8.063953578E0,-1.604468608E1,9.065300953E-1,1.798001934E1
5.276459167E0,7.359808481E0,-1.218563016E1,5.483110265E-1,1.424629806E1
5.286526167E0,6.026465557E0,-8.312541520E0,1.346497551E-1,1.026814317E1
5.296594167E0,4.463321210E0,-4.577210938E0,-5.022920506E-1,6.412830381E0
5.306661167E0,2.628646202E0,-1.193285737E0,-1.370214297E0,3.195496663E0
5.316729167E0,1.208144681E0,1.733844452E0,-2.167635348E0,3.027288086E0
5.326796167E0,-9.186560512E-3,4.584045748E0,-2.747768018E0,5.344510164E0
5.336864167E0,-1.075346813E0,7.235662152E0,-3.169705439E0,7.972340316E0
5.346931167E0,-2.160068466E0,9.280441067E0,-3.339397484E0,1.009673500E1
5.356999167E0,-3.214350684E0,1.067219651E1,-2.948610520E0,1.152918612E1
5.367066167E0,-4.430700763E0,1.162586335E1,-2.338754114E0,1.265944622E1
5.377134167E0,-5.501061655E0,1.199835788E1,-1.824421331E0,1.332481836E1
5.387202167E0,-6.176679942E0,1.173919759E1,-1.532021956E0,1.335317290E1
5.397269167E0,-6.540607136E0,1.119232622E1,-1.534270796E0,1.305380001E1
5.407337167E0,-6.789010305E0,1.077525368E1,-1.785161955E0,1.286015381E1
5.417404167E0,-7.285533639E0,1.028749766E1,-1.862206038E0,1.274281837E1
5.427472167E0,-7.921479152E0,9.612174661E0,-1.733697102E0,1.257574806E1
5.437539167E0,-8.160380597E0,8.997396653E0,-1.802125897E0,1.227976448E1
5.447607167E0,-8.275321069E0,8.579100879E0,-1.755532944E0,1.204839436E1
5.457674167E0,-8.176384426E0,8.315321871E0,-1.388992045E0,1.174423854E1
5.467742167E0,-7.642132518E0,8.301737035E0,-8.728442860E-1,1.131737091E1
5.477809167E0,-6.914138381E0,8.523477486E0,-3.428105593E-1,1.098055086E1
5.487877167E0,-6.193219376E0,8.752536896E0,1.955203664E-1,1.072385642E1
5.497945167E0,-5.644074610E0,8.810203891E0,6.220550139E-1,1.048151817E1
5.508012167E0,-5.264092716E0,8.884699173E0,8.930171800E-1,1.036561774E1
5.518080167E0,-5.048449157E0,9.015672126E0,1.151178768E0,1.039684545E1
5.528147167E0,-4.938016303E0,8.906140328E0,1.457617307E0,1.028727315E1
5.538215167E0,-4.644922280E0,8.678721061E0,1.637227399E0,9.978778272E0
5.548282167E0,-4.240148191E0,8.337396280E0,1.707792913E0,9.508290595E0
5.558350167E0,-4.226958042E0,7.801393130E0,1.741857769E0,9.042288292E0
5.568417167E0,-3.546508786E0,7.041450393E0,1.617314122E0,8.048319897E0
5.578485167E0,-2.316770337E0,5.870315663E0,1.317315706E0,6.446964514E0
5.588552167E0,-4.650413400E-1,3.704378931E0,1.158455116E0,3.909054229E0
5.598620167E0,2.410065587E0,-4.626819885E-1,4.716316637E-1,2.498985230E0
5.608688167E0,6.170166728E0,-8.118711584E0,-6.487100581E-1,1.021788921E1
5.618755167E0,9.766503732E0,-1.875480387E1,-7.078008500E-1,2.115722679E1
5.628823167E0,1.124514061E1,-2.668324940E1,5.373263741E-1,2.896096865E1
5.638890167E0,1.066351456E1,-2.826587082E1,2.356921413E0,3.030222887E1
5.648958167E0,1.004130299E1,-2.776876861E1,3.995001336E0,2.979752190E1
5.659025167E0,1.124156562E1,-2.740303463E1,4.984695210E0,3.003575021E1
5.669093167E0,1.016326070E1,-2.453618222E1,4.765526365E0,2.698196337E1
5.679160167E0,8.251297199E0,-1.978940553E1,4.613902216E0,2.193154282E1
5.689228167E0,8.187471916E0,-1.690968925E1,4.764284416E0,1.938222621E1
5.699295167E0,8.437965465E0,-1.543070855E1,3.167633185E0,1.787008471E1
5.709363167E0,7.285921310E0,-1.336127485E1,4.960695899E-1,1.522676591E1
5.719431167E0,5.384310300E0,-1.088321199E1,-1.564794431E0,1.224269914E1
5.729498167E0,3.154202131E0,-7.911475151E0,-3.392931082E0,9.168010225E0
5.739566167E0,1.102101917E0,-4.476998432E0,-5.000746987E0,6.801883123E0
5.749633167E0,3.688715994E-2,-6.201627088E-1,-5.626109040E0,5.660306120E0
5.759702000E0,-4.751160926E-1,3.183774424E0,-5.736192230E0,6.577693835E0
5.769769000E0,-1.066101780E0,6.256006193E0,-5.406271273E0,8.336783287E0
5.779837000E0,-2.194691584E0,8.533446988E0,-4.251352626E0,9.783168597E0
5.789904000E0,-3.785847017E0,1.028112069E1,-2.417844722E0,1.121962804E1
5.799972000E0,-5.148948761E0,1.139445745E1,-7.684878588E-1,1.252740625E1
5.810040000E0,-6.297257130E0,1.119114625E1,5.634353248E-1,1.285358554E1
5.820107000E0,-7.357688865E0,1.002216505E1,9.776872015E-1,1.247137723E1
5.830175000E0,-8.078223708E0,9.207672468E0,4.312999455E-1,1.225662883E1
5.840242000E0,-7.964400639E0,9.157953594E0,-5.016174281E-1,1.214707420E1
5.850310000E0,-7.255233368E0,9.618986083E0,-1.801420723E0,1.218229950E1
5.860377000E0,-5.939047344E0,1.028452377E1,-3.393334540E0,1.235145464E1
5.870445000E0,-4.744982173E0,1.075171279E1,-4.648108428E0,1.263800205E1
5.880512000E0,-3.923439018E0,1.076835865E1,-5.403252940E0,1.267067733E1
5.890580000E0,-3.279119123E0,1.051651205E1,-5.343342369E0,1.224340458E1
5.900647000E0,-3.020780949E0,1.026106357E1,-4.154556649E0,1.147496772E1
5.910715000E0,-2.733883805E0,1.002377420E1,-2.734153361E0,1.074363833E1
5.920783000E0,-2.478656934E0,9.691267024E0,-1.654463822E0,1.013911472E1
5.930850000E0,-2.403178151E0,9.354604812E0,-6.723362446E-1,9.681731892E0
5.940918000E0,-2.316751041E0,8.957630324E0,6.917631070E-1,9.278200936E0
5.950985000E0,-2.385618963E0,8.823658919E0,2.228281499E0,9.408154601E0
5.961053000E0,-2.161517406E0,8.891618768E0,3.365301819E0,9.749784518E0
5.971120000E0,-1.633242522E0,8.903123749E0,3.649032111E0,9.759535285E0
5.981188000E0,-1.345091735E0,8.756036455E0,3.178630629E0,9.411755354E0
5.991255000E0,-1.412400203E0,8.612298446E0,2.128471721E0,8.983148152E0
6.001323000E0,-1.664757845E0,7.992866639E0,8.455588388E-1,8.208063446E0
6.011390000E0,-1.920143175E0,6.477226827E0,-1.769718289E-1,6.758160711E0
6.021458000E0,-9.675142157E-1,4.754033078E0,-6.311556204E-1,4.892368719E0
6.031525000E0,1.327191069E0,2.632349828E0,-7.207077746E-1,3.034818190E0
6.041593000E0,4.864478796E0,-1.067741924E0,-1.523309605E0,5.208041755E0
6.051661000E0,8.102494331E0,-7.001966484E0,-2.321786664E0,1.095758378E1
6.061728000E0,1.131381967E1,-1.420365164E1,-2.038563910E0,1.827298492E1
6.071796000E0,1.458662555E1,-2.078728434E1,-1.554036723E0,2.544200985E1
6.081863000E0,1.588172534E1,-2.448954248E1,-1.119647073E0,2.920993839E1
6.091931000E0,1.652915479E1,-2.588922090E1,-1.160667629E0,3.073779215E1
6.101998000E0,1.752095249E1,-2.700471762E1,-3.927399337E-1,3.219305507E1
6.112066000E0,1.572590406E1,-2.381922236E1,1.290321596E0,2.857139028E1
6.122133000E0,1.421995835E1,-1.957054191E1,3.842612371E0,2.449446868E1
6.132201000E0,1.257397650E1,-1.686997496E1,5.688266112E0,2.179580949E1
6.142269000E0,9.338431998E0,-1.504581441E1,5.959309115E0,1.868411648E1
6.152336000E0,4.955393643E0,-1.306228917E1,4.097338135E0,1.455910383E1
6.162404000E0,7.011203331E-1,-1.067006578E1,7.306399282E-1,1.071800859E1
6.172471000E0,-2.685534933E0,-7.324577837E0,-2.390066940E0,8.159286632E0
6.182539000E0,-5.235439020E0,-3.329711571E0,-5.023440031E0,7.983216810E0
6.192606000E0,-5.842924966E0,6.872367042E-1,-6.458054391E0,8.736047903E0
6.202674000E0,-5.399707189E0,4.565754488E0,-6.266669176E0,9.448496935E0
6.212741000E0,-5.220746137E0,8.047071497E0,-4.954072173E0,1.079603543E1
6.222809000E0,-5.618516430E0,1.060073418E1,-3.350203139E0,1.245661082E1
6.232876000E0,-6.581900173E0,1.227154213E1,-1.734875901E0,1.403288818E1
6.242944000E0,-7.847749271E0,1.270819700E1,-5.236099756E-1,1.494522020E1
6.253012000E0,-9.574539642E0,1.198689968E1,-2.131192796E-1,1.534284827E1
6.263079000E0,-1.112749697E1,1.074410089E1,-8.116285428E-1,1.548921023E1
6.273147000E0,-1.196977669E1,9.534656954E0,-1.704199069E0,1.539771190E1
6.283214000E0,-1.211168861E1,8.764703198E0,-2.211833282E0,1.511308141E1
6.293282000E0,-1.138825472E1,8.332636646E0,-2.247656833E0,1.428905666E1
6.303349000E0,-9.682330724E0,8.133025568E0,-2.148091614E0,1.282606451E1
6.313417000E0,-7.377039641E0,8.084539286E0,-1.952131537E0,1.111716272E1
6.323484000E0,-5.118163755E0,7.999462883E0,-1.649560347E0,9.638882506E0
6.333552000E0,-3.411324669E0,7.838501315E0,-1.299247810E0,8.646807719E0
6.343619000E0,-2.334638844E0,7.703103189E0,-7.520397142E-1,8.084175964E0
6.353687000E0,-1.915015751E0,7.510951989E0,7.506655455E-3,7.751241285E0
6.363755000E0,-2.176917218E0,7.316576507E0,1.001943791E0,7.699035765E0
6.373822000E0,-2.488301332E0,7.153982981E0,2.028701996E0,7.841348596E0
6.383890000E0,-2.818854958E0,7.340235511E0,2.648692796E0,8.297022006E0
6.393957000E0,-3.415683183E0,7.616856174E0,2.578836111E0,8.736920812E0
6.404025000E0,-3.700149640E0,7.657787853E0,2.225906360E0,8.791329893E0
6.414092000E0,-3.100099599E0,7.883819575E0,1.918665583E0,8.685994833E0
6.424160000E0,-2.261078532E0,8.270103014E0,1.523012567E0,8.707849749E0
6.434227000E0,-1.375103154E0,8.505262240E0,7.580679743E-1,8.648991936E0
6.444295000E0,-5.046907246E-1,7.792182596E0,-1.712323482E-1,7.810386857E0
6.454362000E0,2.414034677E-1,5.879714477E0,-1.231527697E0,6.012152562E0
6.464430000E0,1.738775409E0,2.242697809E0,-2.024479283E0,3.485907307E0
6.474498000E0,4.052241485E0,-4.463530540E0,-2.174132774E0,6.408636302E0
6.484565000E0,6.683289723E0,-1.452524616E1,-1.885955089E0,1.609987466E1
6.494633000E0,7.405949444E0,-2.266132163E1,-1.072599060E0,2.386491261E1
6.504700000E0,7.586789206E0,-2.330208291E1,4.867922513E-1,2.451088340E1
6.514768000E0,1.112637430E1,-2.322775077E1,1.390948523E0,2.579262198E1
6.524835000E0,1.354592875E1,-2.454282933E1,1.745732865E0,2.808718997E1
6.534903000E0,1.445655190E1,-2.655107426E1,2.204728622E0,3.031191623E1
6.544970000E0,1.163850853E1,-2.473272117E1,1.818337157E0,2.739468429E1
6.555038000E0,8.431131240E0,-2.107703025E1,1.506280174E0,2.275069357E1
6.565105000E0,7.494492077E0,-1.867902162E1,1.437606965E0,2.017770983E1
6.575173000E0,6.966844014E0,-1.638938295E1,9.390477772E-1,1.783341245E1
6.585241000E0,5.727078175E0,-1.327206739E1,4.261766517E-1,1.446128707E1
6.595308000E0,4.035358234E0,-9.601345618E0,2.219534357E-1,1.041725574E1
6.605376000E0,2.400394877E0,-5.565665202E0,-3.784584019E-1,6.073035112E0
6.615443000E0,1.143642291E0,-1.662549351E0,-7.704045761E-1,2.159979455E0
6.625511000E0,6.210970938E-2,2.135180377E0,-6.346215574E-1,2.228362040E0
6.635578000E0,-9.389295173E-1,5.723762804E0,-5.639240424E-1,5.827611826E0
6.645646000E0,-2.044692961E0,8.682423518E0,-1.091314828E0,8.986446211E0
6.655713000E0,-3.231149150E0,1.089529702E1,-1.558533232E0,1.147069518E1
6.665781000E0,-3.907310058E0,1.209151923E1,-1.817791904E0,1.283652120E1
6.675848000E0,-4.374414296E0,1.233258824E1,-2.179583694E0,1.326570081E1
6.685916000E0,-4.571878277E0,1.182819455E1,-2.507827524E0,1.292661813E1
6.695984000E0,-5.162569265E0,1.115940873E1,-2.579917846E0,1.256345895E1
6.706051000E0,-5.970899466E0,1.008804446E1,-1.768660820E0,1.185531284E1
6.716119000E0,-6.393024582E0,9.122131796E0,-8.984386452E-1,1.117547510E1
6.726186000E0,-6.436359467E0,8.669697638E0,-5.672114933E-1,1.081259031E1
6.736254000E0,-5.904685012E0,8.352915959E0,-2.774470206E-1,1.023296081E1
6.746321000E0,-5.278619539E0,8.337187534E0,5.720120573E-1,9.884316770E0
6.756388000E0,-4.614008635E0,8.639135996E0,1.363194129E0,9.888480403E0
6.766455000E0,-3.986555618E0,8.984936821E0,1.757639111E0,9.985540077E0
6.776523000E0,-3.506185217E0,9.216458495E0,1.919627889E0,1.004596502E1
6.786590000E0,-3.464863529E0,9.263189442E0,1.684714830E0,1.003245842E1
6.796658000E0,-3.359214283E0,9.191649928E0,1.205865291E0,9.860266736E0
6.806726000E0,-2.907582947E0,9.517680148E0,7.583313914E-1,9.980748493E0
6.816793000E0,-2.391931032E0,1.005650341E1,7.691849931E-1,1.036562784E1
6.826861000E0,-2.056239458E0,1.013698565E1,1.435024689E0,1.044250424E1
6.836928000E0,-2.292373415E0,1.013973852E1,1.715383623E0,1.053621441E1
6.846996000E0,-2.517653770E0,1.014281884E1,1.292583153E0,1.053024813E1
6.857063000E0,-2.504774108E0,1.011220282E1,7.060888584E-1,1.044170008E1
6.867131000E0,-2.005992579E0,9.972538562E0,5.124053948E-1,1.018518978E1
6.877198000E0,-1.553481823E0,9.574910356E0,1.782607014E-1,9.701751954E0
6.887266000E0,-1.077875149E0,8.663226525E0,-3.966832960E-1,8.739031199E0
6.897333000E0,2.545895237E-1,6.294505430E0,-1.384424200E0,6.449980217E0
6.907401000E0,1.322864129E0,1.946522303E0,-2.375599759E0,3.344008492E0
6.917469000E0,2.510972157E0,-3.878134791E0,-2.386315366E0,5.199943428E0
6.927536000E0,4.589941496E0,-1.091864144E1,-1.868075181E0,1.199057958E1
6.937604000E0,6.821762314E0,-1.634504702E1,-7.932706976E-1,1.772924932E1
6.947671000E0,9.782809862E0,-1.904133381E1,4.173486717E-1,2.141144418E1
6.957739000E0,1.157650232E1,-2.080838343E1,3.739787769E-1,2.381478715E1
6.967806000E0,1.240004288E1,-2.351594366E1,1.198398542E-1,2.658524085E1
6.977874000E0,1.167106817E1,-2.605840424E1,6.505214524E-1,2.856006726E1
6.987941000E0,8.244846550E0,-2.563862327E1,6.683649619E-1,2.693999275E1
6.998009000E0,5.094656194E0,-2.331108295E1,1.464836133E0,2.390623046E1
7.008077000E0,3.918765923E0,-2.110935132E1,2.420063156E0,2.160597475E1
7.018144000E0,3.385819114E0,-1.841771423E1,2.471192379E0,1.888869398E1
7.028212000E0,3.095351075E0,-1.530427070E1,1.977055879E0,1.573882619E1
7.038279000E0,2.963663008E0,-1.180152189E1,1.132599825E0,1.222055644E1
7.048347000E0,2.604451008E0,-7.740428891E0,-2.518280299E-1,8.170729577E0
7.058414000E0,2.394546492E0,-3.565758405E0,-1.479995770E0,4.543002683E0
7.068482000E0,2.474458634E0,4.840909839E-1,-2.631125422E0,3.644188606E0
7.078549000E0,2.290489442E0,4.258235968E0,-3.524039690E0,5.983123865E0
7.088617000E0,1.518426303E0,7.530893918E0,-4.003416649E0,8.662986004E0
7.098684000E0,5.251910627E-1,9.916012359E0,-4.099500436E0,1.074285952E1
7.108752000E0,-5.874726802E-1,1.153126826E1,-3.225898350E0,1.198839823E1
7.118820000E0,-1.706781784E0,1.241094209E1,-2.263528515E0,1.273059893E1
7.128887000E0,-2.701172434E0,1.259762849E1,-1.733080806E0,1.300000558E1
7.138955000E0,-3.647633457E0,1.190551345E1,-1.612618808E0,1.255575644E1
7.149022000E0,-4.586306282E0,1.071071329E1,-1.329860322E0,1.172698226E1
7.159090000E0,-5.325114259E0,9.808148772E0,-7.543342347E-1,1.118595746E1
7.169157000E0,-5.802351136E0,9.265147090E0,-3.551423371E-1,1.093784053E1
7.179225000E0,-6.016317714E0,8.962932580E0,-3.487038217E-2,1.079497361E1
7.189292000E0,-5.742348763E0,8.791331418E0,2.790221143E-1,1.050428154E1
7.199360000E0,-5.274807739E0,8.784339318E0,5.042616852E-1,1.025877643E1
7.209427000E0,-4.522717227E0,8.983562726E0,9.717628026E-1,1.010463722E1
7.219495000E0,-3.759244525E0,8.863912321E0,1.906220223E0,9.815015872E0
7.229562000E0,-3.715178154E0,8.604077260E0,2.709736558E0,9.755786305E0
7.239630000E0,-3.699743258E0,8.396867725E0,3.239432316E0,9.730848344E0
7.249698000E0,-3.545011899E0,8.391850230E0,3.611759620E0,9.799748323E0
7.259765000E0,-3.365493023E0,8.574626589E0,3.725042406E0,9.936131308E0
7.269833000E0,-3.672398170E0,8.828707405E0,3.119842722E0,1.005813111E1
7.279900000E0,-3.815695299E0,9.139103340E0,1.990150280E0,1.010165524E1
7.289968000E0,-3.171250858E0,9.292483993E0,1.561618369E0,9.942119627E0
7.300035000E0,-2.857215031E0,9.660678484E0,1.413243957E0,1.017298604E1
7.310103000E0,-2.242955087E0,9.838666559E0,1.031454542E0,1.014367318E1
7.320170000E0,-1.492054483E0,9.614441627E0,3.149732812E-1,9.734624931E0
7.330238000E0,-7.327391517E-1,8.585858506E0,-4.563947698E-1,8.629146489E0
7.340305000E0,1.556645751E-1,6.196772729E0,-1.267057864E0,6.326899663E0
7.350373000E0,1.687407619E0,1.890481419E0,-2.125203273E0,3.307227452E0
7.360441000E0,4.024367808E0,-4.558865883E0,-2.000555838E0,6.401641825E0
7.370508000E0,7.154970576E0,-1.321294152E1,-1.021559007E0,1.506051162E1
7.380576000E0,9.065211491E0,-2.034970445E1,6.905957834E-1,2.228823575E1
7.390643000E0,1.011957031E1,-2.341067272E1,3.103995599E0,2.569241307E1
7.400711000E0,1.228502114E1,-2.506637733E1,4.704349287E0,2.830858383E1
7.410778000E0,1.388230270E1,-2.660927510E1,4.989448997E0,3.042476706E1
7.420846000E0,1.402025021E1,-2.805783156E1,4.483050885E0,3.168449263E1
7.430913000E0,1.027897710E1,-2.521593039E1,2.419190897E0,2.733775778E1
7.440981000E0,7.234675142E0,-2.182429271E1,1.313351294E0,2.302965845E1
7.451049000E0,5.052379071E0,-1.958382445E1,1.075075063E0,2.025360463E1
7.461116000E0,3.200913198E0,-1.696464606E1,-1.530910693E-2,1.726398840E1
7.471184000E0,1.221300917E0,-1.369953979E1,-1.206770513E0,1.380671074E1
7.481251000E0,-2.892143959E-1,-1.001434148E1,-2.665662585E0,1.036708431E1
7.491319000E0,-1.512092891E0,-6.033816676E0,-4.780663637E0,7.845260569E0
7.501386000E0,-1.911334344E0,-2.106992705E0,-6.340705451E0,6.949616022E0
7.511454000E0,-1.761381329E0,1.701560220E0,-7.137762805E0,7.546219533E0
7.521521000E0,-1.504265808E0,5.162086869E0,-7.390217510E0,9.139216122E0
7.531589000E0,-1.724119948E0,8.138385125E0,-6.689965489E0,1.067527706E1
7.541656000E0,-2.244680015E0,1.037815991E1,-5.388962345E0,1.190738034E1
7.551724000E0,-3.175881268E0,1.164301089E1,-4.073315434E0,1.273726121E1
7.561791000E0,-3.871119302E0,1.183872188E1,-2.679184856E0,1.274044473E1
7.571859000E0,-5.023654624E0,1.167978286E1,-1.528437613E0,1.280587970E1
7.581927000E0,-6.458263721E0,1.122506829E1,-1.018062226E0,1.299029557E1
7.591994000E0,-7.147985492E0,1.049090826E1,-1.208846347E0,1.275202581E1
7.602062000E0,-7.218787673E0,1.016931140E1,-1.782455864E0,1.259773546E1
7.612129000E0,-6.449972370E0,1.015111838E1,-2.168960327E0,1.222095482E1
7.622197000E0,-5.125441200E0,1.020052618E1,-2.056065795E0,1.159949518E1
7.632264000E0,-3.812810867E0,1.018998248E1,-1.621156912E0,1.100006452E1
7.642332000E0,-2.870640239E0,1.005156719E1,-1.024568934E0,1.050353844E1
7.652399000E0,-2.232903723E0,9.812004426E0,-4.515851426E-1,1.007299454E1
7.662467000E0,-2.042194446E0,9.581821765E0,1.593132377E-2,9.797046509E0
7.672534000E0,-2.128283587E0,9.252098444E0,3.360090780E-1,9.499674665E0
7.682602000E0,-2.504916780E0,9.015885549E0,6.807727535E-1,9.382124059E0
7.692670000E0,-2.531218725E0,9.037896808E0,1.571862545E0,9.516375298E0
7.702737000E0,-2.400164496E0,9.216453817E0,2.324716119E0,9.803474670E0
7.712805000E0,-2.120544797E0,9.267478375E0,2.724237653E0,9.889607497E0
7.722872000E0,-1.593350478E0,9.121059417E0,2.933741051E0,9.712843414E0
7.732940000E0,-1.320850348E0,9.071520637E0,2.642171981E0,9.540346172E0
7.743007000E0,-1.406235484E0,8.689323817E0,2.265513206E0,9.089246213E0
7.753075875E0,-2.328296369E0,8.490454751E0,2.239726839E0,9.084336088E0
7.763142875E0,-2.218058812E0,8.410171310E0,1.834054180E0,8.889011255E0
7.773210875E0,-7.906833047E-1,7.757329683E0,9.072973962E-1,7.850129455E0
7.783277875E0,4.397685045E-1,5.976698150E0,-8.535414577E-2,5.993463310E0
7.793345875E0,1.887128041E0,1.687221678E0,-1.256077524E0,2.825898084E0
7.803413875E0,3.591293195E0,-5.009097396E0,-2.563166742E0,6.675197921E0
7.813480875E0,6.021831638E0,-1.313452100E1,-2.378778305E0,1.464365680E1
7.823548875E0,8.098548045E0,-1.968400596E1,-5.084249027E-1,2.129096210E1
7.833615875E0,1.058868540E1,-2.298738343E1,1.495238292E0,2.535302335E1
7.843683875E0,1.385393785E1,-2.542616352E1,2.780079732E0,2.908866152E1
7.853750875E0,1.623116431E1,-2.860919827E1,3.688458717E0,3.309896748E1
7.863818875E0,1.607668555E1,-2.984166035E1,4.110913031E0,3.414504528E1
7.873885875E0,1.384419756E1,-2.531503836E1,3.514577726E0,2.906656550E1
7.883953875E0,1.205243644E1,-2.023958968E1,3.588437415E0,2.382811570E1
7.894021875E0,9.850887240E0,-1.712356870E1,2.772536824E0,1.994852237E1
7.904088875E0,6.491914448E0,-1.515143267E1,2.506163406E-1,1.648555955E1
7.914156875E0,2.467560673E0,-1.266930249E1,-2.863284441E0,1.322113758E1
7.924223875E0,-1.222238810E0,-9.650106134E0,-4.847728862E0,1.086825153E1
7.934291875E0,-4.182104636E0,-6.158244841E0,-6.619662076E0,9.961621590E0
7.944358875E0,-5.514174036E0,-2.172157584E0,-7.768073941E0,9.770739820E0
7.954426875E0,-5.797244763E0,1.698612054E0,-7.530284053E0,9.653937418E0
7.964493875E0,-6.262866731E0,5.049931426E0,-6.354832324E0,1.025227784E1
7.974561875E0,-7.042999905E0,7.830953729E0,-4.512319708E0,1.145812869E1
7.984628875E0,-7.845484645E0,9.963190033E0,-3.036142169E0,1.303974479E1
7.994696875E0,-8.205952041E0,1.096858368E1,-2.148933613E0,1.386597968E1
8.004763875E0,-8.163164456E0,1.099316772E1,-1.305804877E0,1.375471253E1
8.014831875E0,-7.887656518E0,1.060250120E1,-7.729622944E-1,1.323728174E1
8.024899875E0,-7.731101997E0,1.005526497E1,-8.892059648E-1,1.271491168E1
8.034966875E0,-7.364195647E0,9.317120651E0,-1.348234613E0,1.195231573E1
8.045034875E0,-6.727859539E0,8.519996638E0,-1.548810336E0,1.096600429E1
8.055101875E0,-5.849412451E0,8.304517386E0,-1.625801794E0,1.028707279E1
8.065169875E0,-5.303570192E0,8.259349399E0,-1.491563902E0,9.928215960E0
8.075236875E0,-4.705111763E0,8.131012956E0,-6.994521224E-1,9.420227262E0
8.085304875E0,-3.718195902E0,8.206472443E0,5.536880529E-1,9.026502157E0
8.095371875E0,-2.881956940E0,8.610614448E0,2.067419919E0,9.312496018E0
8.105439875E0,-2.478294992E0,8.907787489E0,3.092568970E0,9.749595214E0
8.115506875E0,-2.495826114E0,8.871286830E0,3.541575490E0,9.872772405E0
8.125574875E0,-2.926519740E0,8.614454314E0,3.776663965E0,9.850712239E0
8.135642875E0,-3.395966372E0,8.471018606E0,3.840614963E0,9.901568922E0
8.145709875E0,-3.617564735E0,8.407799680E0,3.535964502E0,9.812283884E0
8.155777875E0,-3.181567685E0,8.459756868E0,2.843712641E0,9.475049382E0
8.165844875E0,-2.664731709E0,8.768950031E0,2.112205059E0,9.405141675E0
8.175912875E0,-2.207073063E0,9.127680219E0,1.549570766E0,9.517714392E0
8.185979875E0,-1.823171781E0,9.282934320E0,1.154661369E0,9.530480985E0
8.196047875E0,-1.831041548E0,8.975262018E0,6.173431814E-1,9.180912485E0
8.206114875E0,-1.689771064E0,7.709324627E0,6.726651505E-2,7.892625497E0
8.216182875E0,-1.103596466E0,5.412974521E0,-8.780398294E-2,5.525027408E0
8.226249875E0,-2.003858346E-1,1.785011682E0,-8.817455024E-3,1.796245789E0
8.236317875E0,8.309215039E-1,-3.176891082E0,-6.562069926E-1,3.348682593E0
8.246384875E0,2.389575189E0,-9.252710062E0,-1.632081850E0,9.694658542E0
8.256452875E0,4.859294069E0,-1.525573179E1,-1.427446990E0,1.607444233E1
8.266520875E0,7.292565501E0,-1.969295220E1,-7.675781782E-1,2.101387766E1
8.276587875E0,9.726652619E0,-2.220943477E1,-5.107319216E-1,2.425134246E1
8.286655875E0,1.200808765E1,-2.345361701E1,-1.604850197E-1,2.634942268E1
8.296722875E0,1.346745912E1,-2.500390100E1,-4.334565814E-1,2.840344002E1
8.306790875E0,1.333061322E1,-2.551517452E1,2.655479367E-1,2.878888492E1
8.316857875E0,1.144069138E1,-2.295717203E1,1.021559153E0,2.567030873E1
8.326925875E0,1.031877910E1,-2.027124183E1,1.964849377E0,2.283114278E1
8.336992875E0,9.278396296E0,-1.815658109E1,1.701142290E0,2.046079079E1
8.347060875E0,7.484486321E0,-1.549884499E1,2.049121642E-1,1.721260353E1
8.357128875E0,5.328088152E0,-1.227761154E1,-8.598891950E-1,1.341147561E1
8.367195875E0,3.304067438E0,-8.375590292E0,-2.137158490E0,9.253908406E0
8.377263875E0,1.771311071E0,-4.007498006E0,-3.580922574E0,5.658673842E0
8.387330875E0,1.103758433E0,3.384526294E-1,-4.526754144E0,4.671652379E0
8.397398875E0,6.629643273E-1,3.960151931E0,-4.922741622E0,6.352614430E0
8.407465875E0,-1.909314716E-1,6.590511952E0,-4.637375278E0,8.060803439E0
8.417533875E0,-1.520052706E0,8.473234116E0,-3.781705434E0,9.402529054E0
8.427600875E0,-2.973323193E0,9.989736392E0,-2.336271386E0,1.068146282E1
8.437668875E0,-4.177034515E0,1.119370733E1,-7.848575775E-1,1.197341650E1
8.447735875E0,-4.825380803E0,1.177602569E1,5.750860848E-2,1.272644445E1
8.457803875E0,-5.261419369E0,1.171092513E1,3.301759688E-1,1.284279243E1
8.467871875E0,-5.552286188E0,1.155564413E1,2.946550839E-1,1.282371299E1
8.477938875E0,-5.896017684E0,1.138211047E1,-5.373311980E-1,1.282981637E1
8.488006875E0,-6.342630354E0,1.111135515E1,-1.493238691E0,1.288103004E1
8.498073875E0,-6.099120135E0,1.051914096E1,-1.108049705E0,1.220980619E1
8.508141875E0,-6.116850062E0,1.001394737E1,-5.774756956E-1,1.174855203E1
8.518208875E0,-6.027312818E0,9.553245837E0,1.446684475E-1,1.129663378E1
8.528276875E0,-5.907745444E0,9.063002998E0,9.679025439E-1,1.086169024E1
8.538343875E0,-5.700679166E0,8.625946432E0,1.600997028E0,1.046269020E1
8.548411875E0,-5.449158261E0,8.247218766E0,2.098290732E0,1.010508620E1
8.558478875E0,-5.625852932E0,7.947943650E0,2.066830519E0,9.954487324E0
8.568546875E0,-5.739661968E0,7.688411475E0,1.778754430E0,9.758040676E0
8.578613875E0,-5.348466868E0,7.493317956E0,2.394140110E0,9.512508538E0
8.588681875E0,-5.081066680E0,7.807799925E0,2.738639345E0,9.709743752E0
8.598749875E0,-4.374790857E0,8.306411884E0,2.342566499E0,9.675892270E0
8.608816875E0,-3.454322169E0,8.680227304E0,1.915519781E0,9.536661037E0
8.618884875E0,-2.856523306E0,8.924281315E0,1.680322402E0,9.519769207E0
8.628951875E0,-1.988342759E0,8.940692695E0,1.812583204E0,9.336752683E0
8.639019875E0,-4.895815194E-1,8.826984816E0,2.593265870E0,9.213054807E0
8.649086875E0,9.175316316E-1,8.948262500E0,3.202412424E0,9.548230800E0
8.659154875E0,2.596668949E0,8.550601550E0,2.928379154E0,9.403769508E0
8.669221875E0,4.076275880E0,6.094038320E0,1.661474633E0,7.517567828E0
8.679289875E0,4.420330727E0,5.358435202E-1,-3.368171632E-1,4.465411270E0
8.689356875E0,4.838849865E0,-7.696359011E0,-2.045318467E0,9.318354880E0
8.699424875E0,5.580212490E0,-1.654136728E1,-1.678179836E0,1.753772764E1
8.709492875E0,5.219383151E0,-2.080235846E1,3.359349646E-2,2.144717246E1
8.719559875E0,6.521687300E0,-2.130924657E1,1.239935993E0,2.231936011E1
8.729627875E0,9.756641818E0,-2.302047165E1,1.672610071E0,2.505856738E1
8.739694875E0,1.282139324E1,-2.504317557E1,2.661426862E0,2.826007715E1
8.749762875E0,1.368443526E1,-2.452979238E1,2.922482822E0,2.824031495E1
8.759828917E0,1.288524718E1,-2.134020641E1,2.280755289E0,2.503269560E1
8.769896917E0,1.200178084E1,-1.820971707E1,1.358108221E0,2.185133857E1
8.779963917E0,1.074794485E1,-1.568348836E1,-4.709566757E-2,1.901295200E1
8.790031917E0,9.803829433E0,-1.320059921E1,-8.910803629E-1,1.646708582E1
8.800098917E0,8.359263112E0,-1.021057988E1,-1.251727488E0,1.325518928E1
8.810166917E0,6.693859150E0,-6.847102393E0,-2.077912163E0,9.798381522E0
8.820234917E0,4.693307989E0,-3.225079740E0,-3.436744269E0,6.651277350E0
8.830301917E0,2.731497556E0,2.929373181E-1,-4.470259516E0,5.246914456E0
8.840369917E0,8.569942385E-1,3.536712946E0,-4.988132204E0,6.174483012E0
8.850436917E0,-1.096199153E0,6.449077746E0,-4.977452849E0,8.219932677E0
8.860504917E0,-3.066176392E0,8.715857897E0,-4.506373090E0,1.027983536E1
8.870571917E0,-4.847463983E0,1.010248708E1,-3.493428347E0,1.173721406E1
8.880639917E0,-6.330261154E0,1.056130874E1,-2.259954697E0,1.251881958E1
8.890706917E0,-7.540396228E0,1.072007000E1,-1.638889178E0,1.320846069E1
8.900774917E0,-8.218067472E0,1.090249377E1,-1.570372674E0,1.374289175E1
8.910841917E0,-8.410643181E0,1.079280702E1,-2.299693544E0,1.387487631E1
8.920909917E0,-8.296575698E0,1.028304676E1,-3.651969752E0,1.370806704E1
8.930977917E0,-8.076965972E0,9.653080612E0,-4.424354196E0,1.334144875E1
8.941044917E0,-7.534328572E0,9.205665704E0,-4.408344519E0,1.268636628E1
8.951112917E0,-6.748900745E0,8.724579604E0,-3.982297676E0,1.172709023E1
8.961179917E0,-5.908758182E0,7.914670655E0,-2.926986347E0,1.030158647E1
8.971247917E0,-5.402531978E0,7.079365493E0,-1.639045883E0,9.054901378E0
8.981314917E0,-5.007780018E0,6.508273203E0,-3.489980829E-1,8.219323601E0
8.991382917E0,-4.570998856E0,6.375490537E0,9.182467461E-1,7.898359780E0
9.001449917E0,-4.392942953E0,6.644871762E0,2.028689132E0,8.219966430E0
9.011517917E0,-3.995408303E0,7.149734395E0,2.888292983E0,8.684712187E0
9.021584917E0,-3.480405428E0,7.826588198E0,3.309534584E0,9.182686096E0
9.031652917E0,-3.121050757E0,8.626127111E0,3.589433781E0,9.850637625E0
9.041719917E0,-2.514747704E0,9.364363815E0,3.457032938E0,1.029399545E1
9.051787917E0,-1.920481728E0,9.892981346E0,2.519539497E0,1.038784912E1
9.061855917E0,-1.752567821E0,1.008580147E1,1.550926005E0,1.035375568E1
9.071922917E0,-1.574245285E0,9.798962796E0,9.997920156E-1,9.974843566E0
9.081990917E0,-1.617553858E0,9.487020857E0,4.851809780E-1,9.636153061E0
9.092057917E0,-1.529773702E0,9.060731354E0,-6.719293515E-1,9.213498212E0
9.102125917E0,9.882437646E-2,7.221906577E0,-2.539617666E0,7.656066794E0
9.112192917E0,2.287461753E0,3.094527202E0,-4.286725942E0,5.760607536E0
9.122260917E0,4.560928196E0,-3.189414064E0,-4.696267265E0,7.282125672E0
9.132327917E0,6.837483723E0,-9.892328796E0,-3.101123446E0,1.241878896E1
9.142395917E0,9.116688623E0,-1.521203906E1,-3.484713949E-2,1.773475001E1
9.152462917E0,1.083619570E1,-1.718239169E1,2.900505477E0,2.052000618E1
9.162530917E0,1.433356156E1,-1.843052314E1,4.949470414E0,2.386697358E1
9.172598917E0,1.771930525E1,-2.091795791E1,5.645305449E0,2.798935897E1
9.182665917E0,1.880900873E1,-2.295492670E1,3.453378428E0,2.987696926E1
9.192733917E0,1.849235744E1,-2.230388602E1,1.825702163E0,2.903039448E1
9.202800917E0,1.610933874E1,-1.983325497E1,1.422084800E0,2.559084060E1
9.212868917E0,1.342006627E1,-1.816779488E1,1.068438400E0,2.261213192E1
9.222935917E0,1.133095201E1,-1.706705419E1,8.667443244E-1,2.050429364E1
9.233003917E0,8.319551162E0,-1.499816428E1,7.978910943E-1,1.716963871E1
9.243070917E0,4.807158540E0,-1.216402470E1,1.144739668E0,1.312945921E1
9.253138917E0,1.231121900E0,-8.616325423E0,1.367780685E0,8.810649745E0
9.263205917E0,-1.657812522E0,-4.644313585E0,1.003441848E0,5.032383786E0
9.273273917E0,-3.774332680E0,-6.936411595E-1,7.282827694E-2,3.838232562E0
9.283341917E0,-5.274219509E0,3.000035028E0,-1.037452762E0,6.155802939E0
9.293408917E0,-6.164322436E0,6.027609857E0,-2.257599438E0,8.912222333E0
9.303476917E0,-7.085790414E0,8.448324392E0,-3.428934728E0,1.154730290E1
9.313543917E0,-7.889508916E0,1.019705527E1,-4.312466555E0,1.359491283E1
9.323611917E0,-7.889825251E0,1.112791329E1,-4.680670402E0,1.442180544E1
9.333678917E0,-7.449365605E0,1.138048962E1,-4.556741005E0,1.434477189E1
9.343746917E0,-7.115705354E0,1.100296063E1,-4.176177313E0,1.375277653E1
9.353813917E0,-6.750219877E0,1.005760502E1,-3.808707876E0,1.269752507E1
9.363881917E0,-6.423800817E0,9.003051496E0,-3.401203723E0,1.157101292E1
9.373948917E0,-6.109941577E0,8.082371138E0,-2.654812492E0,1.047397435E1
9.384016917E0,-5.874232128E0,7.586132564E0,-1.649735763E0,9.735380756E0
9.394084917E0,-5.507853781E0,7.311726242E0,-5.165909779E-1,9.168678211E0
9.404151917E0,-5.213463430E0,6.934179128E0,5.173499465E-1,8.690839550E0
9.414219917E0,-4.954620641E0,6.656794235E0,1.305671561E0,8.400354362E0
9.424286917E0,-4.959817062E0,6.680752031E0,2.050997429E0,8.569645468E0
9.434354917E0,-4.970543779E0,6.870151532E0,3.108842940E0,9.031621779E0
9.444421917E0,-5.083252369E0,7.100531244E0,3.305301200E0,9.337130963E0
9.454489917E0,-5.601415663E0,7.411917112E0,2.715913557E0,9.679285054E0
9.464556917E0,-6.025566840E0,7.487981202E0,1.545110364E0,9.734715417E0
9.474624917E0,-6.522168526E0,7.258611304E0,4.663249500E-1,9.769522983E0
9.484691917E0,-6.660585569E0,7.455014015E0,-1.219682407E-1,9.997775270E0
9.494759917E0,-6.006090934E0,8.306716524E0,-7.804220990E-1,1.028025906E1
9.504826917E0,-5.135889004E0,9.085341700E0,-1.670620848E0,1.056937859E1
9.514894917E0,-4.428878771E0,9.344426563E0,-2.288414265E0,1.059103936E1
9.524962917E0,-3.877392780E0,8.716601663E0,-2.828177758E0,9.950472791E0
9.535029917E0,-2.977228548E0,7.054962723E0,-2.920600019E0,8.195504458E0
9.545097917E0,-1.883345477E0,4.530084718E0,-1.989401690E0,5.293994411E0
9.555164917E0,-1.615211463E-1,4.698103291E-1,-3.921809399E-1,6.329429008E-1
9.565232917E0,2.604953284E0,-5.498697626E0,4.270035211E-1,6.099490897E0
9.575299917E0,5.659159257E0,-1.261482281E1,8.969768413E-1,1.385512199E1
9.585367917E0,8.287685591E0,-1.841235467E1,1.355517905E0,2.023704439E1
9.595434917E0,1.170507324E1,-2.136501965E1,1.144250913E0,2.438815521E1
9.605502917E0,1.479798135E1,-2.218395261E1,1.677612948E0,2.671932616E1
9.615570917E0,1.540444988E1,-2.202398448E1,3.109737564E0,2.705593163E1
9.625637917E0,1.665787306E1,-2.333186395E1,4.486938114E0,2.901711950E1
9.635705917E0,1.499116633E1,-2.148753285E1,3.638270895E0,2.645158126E1
9.645772917E0,1.245079204E1,-1.815784525E1,1.459107031E0,2.206487163E1
9.655840917E0,1.063937141E1,-1.600974896E1,-7.698924331E-1,1.923800978E1
9.665907917E0,8.958676391E0,-1.393897157E1,-2.750779334E0,1.679641623E1
9.675975917E0,6.806511022E0,-1.148178678E1,-3.248448722E0,1.373726462E1
9.686042917E0,4.483115789E0,-8.435902568E0,-2.775294371E0,9.948117317E0
9.696110917E0,2.576908869E0,-5.117805905E0,-2.435284628E0,6.225994525E0
9.706177917E0,1.142326668E0,-1.761845013E0,-2.381517141E0,3.175001096E0
9.716245917E0,2.799067980E-1,1.548929181E0,-2.121526544E0,2.641666955E0
9.726312917E0,-6.791383106E-1,4.763682738E0,-1.418143923E0,5.016476279E0
9.736380917E0,-2.273850605E0,7.722943962E0,-4.963256979E-1,8.066015076E0
9.746448917E0,-3.793931378E0,9.774530205E0,2.640414747E-1,1.048833037E1
9.756516750E0,-4.954449903E0,1.065072553E1,7.712734723E-1,1.177197481E1
9.766584750E0,-5.650063328E0,1.069416216E1,8.782189735E-1,1.212681279E1
9.776651750E0,-6.190512700E0,1.016582880E1,7.613109863E-1,1.192669766E1
9.786719750E0,-6.845423073E0,9.464366405E0,4.528680217E-1,1.168927448E1
9.796786750E0,-7.657128287E0,8.839178599E0,-1.977002815E-1,1.169622919E1
9.806854750E0,-8.503927320E0,8.386820455E0,-1.062948961E0,1.199105490E1
9.816921750E0,-8.923435223E0,8.168773690E0,-1.726570516E0,1.222037665E1
9.826989750E0,-8.844413611E0,8.016086517E0,-2.012693489E0,1.210504978E1
9.837056750E0,-8.042770870E0,7.730483361E0,-2.014426603E0,1.133598036E1
9.847124750E0,-6.860327625E0,7.727747449E0,-2.043467385E0,1.053365723E1
9.857192750E0,-6.034310181E0,7.982611792E0,-1.735533128E0,1.015613438E1
9.867259750E0,-5.490813240E0,7.730389221E0,-7.286752637E-1,9.509937707E0
9.877327750E0,-5.238220541E0,7.493210367E0,-7.844500266E-2,9.142937693E0
9.887394750E0,-4.772631317E0,7.691076052E0,2.601342921E-1,9.055292948E0
9.897462750E0,-4.468522893E0,8.148110214E0,7.800818641E-1,9.325659474E0
9.907529750E0,-4.501290690E0,8.277711995E0,1.330841485E0,9.515948340E0
9.917597750E0,-4.236440472E0,8.133463524E0,1.890128832E0,9.363399157E0
9.927664750E0,-3.975367556E0,8.255781428E0,1.965700586E0,9.371523515E0
9.937732750E0,-3.887303225E0,8.391977114E0,1.993786078E0,9.461056451E0
9.947799750E0,-3.645789830E0,8.172822302E0,2.149844609E0,9.203729663E0
9.957867750E0,-3.671007702E0,8.032093270E0,1.906069511E0,9.034595775E0
9.967934750E0,-3.484706640E0,8.085111144E0,1.480724334E0,8.927751516E0
9.978002750E0,-2.994885385E0,7.578620061E0,8.300696377E-1,8.191082719E0
9.988070750E0,-2.107130114E0,6.135158864E0,-5.136251970E-1,6.507225403E0
9.998137750E0,-4.394474924E-1,3.965910854E0,-1.722614290E0,4.346143462E0
1.000820575E1,1.041564524E0,1.083921170E0,-2.571883771E0,2.978981016E0
1.001827275E1,3.407303538E0,-2.968182321E0,-2.591457911E0,5.209172467E0
1.002834075E1,7.187648910E0,-9.180962387E0,-1.087338867E0,1.171045144E1
1.003840775E1,1.052481159E1,-1.590628833E1,1.044319732E0,1.910163006E1
1.004847575E1,1.398155567E1,-2.175326775E1,3.185681201E0,2.605450291E1
1.005854275E1,1.563497401E1,-2.414725584E1,3.551185974E0,2.898539802E1
1.006861075E1,1.631225232E1,-2.366842501E1,1.527569886E0,2.878571500E1
1.007867775E1,1.774725143E1,-2.416232528E1,-1.536695051E-1,2.998010191E1
1.008874575E1,1.638862515E1,-2.088651627E1,-5.864090717E-1,2.655517787E1
1.009881375E1,1.516156589E1,-1.622817053E1,-2.846790031E-2,2.220872373E1
1.010888075E1,1.469289051E1,-1.378744916E1,9.843271534E-1,2.017284526E1
1.011894875E1,1.364077995E1,-1.237114828E1,1.770949713E0,1.850006622E1
1.012901575E1,1.117814906E1,-1.059760124E1,1.820560999E0,1.551046778E1
1.013908375E1,7.333099569E0,-8.582709780E0,1.136181829E0,1.134584354E1
1.014915075E1,3.457004871E0,-6.497735351E0,2.806944180E-1,7.365476001E0
1.015921875E1,1.475995106E-1,-4.193738841E0,-1.839710192E-1,4.200366224E0
1.016928575E1,-2.362085674E0,-1.351724231E0,-4.950650382E-1,2.766170009E0
1.017935375E1,-3.827616017E0,1.573452403E0,-7.561432171E-1,4.206916853E0
1.018942075E1,-4.830925133E0,4.180804215E0,-1.125142286E0,6.487133935E0
1.019948875E1,-5.814913294E0,6.394243142E0,-1.294955953E0,8.739363415E0
1.020955675E1,-6.605519416E0,7.969796450E0,-1.499692701E0,1.045942735E1
1.021962375E1,-7.339080101E0,8.783338274E0,-1.558169535E0,1.155149429E1
1.022969175E1,-8.093556277E0,8.987724189E0,-1.312098820E0,1.216578985E1
1.023975875E1,-8.519194985E0,8.719767346E0,-1.081706829E0,1.223850953E1
1.024982675E1,-8.878744953E0,8.369114501E0,-1.141822053E0,1.225471122E1
1.025989375E1,-9.014568756E0,8.183394653E0,-1.420820779E0,1.225761517E1
1.026996175E1,-8.809137359E0,8.140550934E0,-1.766277788E0,1.212391058E1
1.028002875E1,-8.245683872E0,8.357800139E0,-1.886959641E0,1.189137260E1
1.029009675E1,-7.439110174E0,8.594529927E0,-1.873355509E0,1.152023288E1
1.030016375E1,-6.486542026E0,8.709585589E0,-1.853174429E0,1.101664033E1
1.031023175E1,-5.788654618E0,8.817477243E0,-1.731912532E0,1.068905741E1
1.032029875E1,-5.410556113E0,8.832822676E0,-1.605278213E0,1.048187922E1
1.033036675E1,-4.974042168E0,8.690034254E0,-9.375682855E-1,1.005668062E1
1.034043475E1,-4.915422662E0,8.169683517E0,-1.134769507E-1,9.535092329E0
1.035050175E1,-5.028325379E0,7.614705568E0,3.951933889E-1,9.133672581E0
1.036056975E1,-5.006405337E0,7.355498498E0,7.791730607E-1,8.931660720E0
1.037063675E1,-4.851773965E0,7.152620580E0,1.171040663E0,8.721870671E0
1.038070475E1,-4.879825982E0,6.904491060E0,1.505345789E0,8.587826522E0
1.039077175E1,-5.134667521E0,7.029684625E0,1.535661263E0,8.839656781E0
1.040083975E1,-5.448567107E0,7.438922478E0,1.304596843E0,9.312702297E0
1.041090675E1,-5.003182937E0,7.347776080E0,1.069996099E0,8.953577189E0
1.042097475E1,-4.494400916E0,7.319879599E0,1.036433008E0,8.651847798E0
1.043104175E1,-3.956024382E0,7.634160424E0,8.120741737E-1,8.636550165E0
1.044110975E1,-2.707859602E0,7.211158226E0,9.926818013E-2,7.703451223E0
1.045117675E1,-1.369343061E0,5.486153010E0,-1.147687980E0,5.769762817E0
1.046124475E1,3.964868295E-1,2.559274251E0,-2.457447914E0,3.570173210E0
1.047131275E1,3.195618544E0,-2.004474642E0,-3.057933573E0,4.856012171E0
1.048137975E1,6.492682187E0,-8.162125990E0,-2.993217759E0,1.085055645E1
1.049144775E1,1.010505752E1,-1.506371391E1,-2.526122292E0,1.831417369E1
1.050151475E1,1.210789494E1,-2.041312569E1,-1.239312680E0,2.376620954E1
1.051158275E1,1.305063216E1,-2.340591075E1,5.390406315E-1,2.680384716E1
1.052164975E1,1.380127432E1,-2.502074098E1,2.592468309E0,2.869204670E1
1.053171775E1,1.588263751E1,-2.757201682E1,4.743386468E0,3.217101181E1
1.054178475E1,1.560632149E1,-2.727711133E1,4.985083466E0,3.181900580E1
1.055185275E1,1.341307417E1,-2.306914154E1,3.727232773E0,2.694416660E1
1.056192075E1,1.178386330E1,-1.872037313E1,1.921858163E0,2.220372363E1
1.057198775E1,1.092398580E1,-1.513759582E1,-2.409438765E-1,1.866918120E1
1.058205575E1,9.707362069E0,-1.140045318E1,-1.882039794E0,1.509123205E1
1.059212275E1,7.989018586E0,-7.549057124E0,-2.720584313E0,1.132317360E1
1.060219075E1,5.655524043E0,-3.893373805E0,-3.063130578E0,7.518382853E0
1.061225775E1,3.105084935E0,-5.512129265E-1,-2.864077324E0,4.260085335E0
1.062232575E1,5.025775409E-1,2.448375374E0,-2.128128051E0,3.282690232E0
1.063239275E1,-1.965496518E0,4.914097098E0,-1.223669039E0,5.432208830E0
1.064246075E1,-4.158958433E0,7.285137198E0,-1.144094281E0,8.466351691E0
1.065252775E1,-6.215992527E0,9.184974162E0,-1.305570989E0,1.116722119E1
1.066259575E1,-7.815035854E0,1.021331638E1,-1.219047400E0,1.291792140E1
1.067266275E1,-8.970595356E0,1.048761277E1,-1.176659764E0,1.385085307E1
1.068273075E1,-9.115268335E0,1.024160872E1,-9.826058793E-1,1.374569679E1
1.069279875E1,-8.745316755E0,9.949771843E0,-8.791674650E-1,1.327597305E1
1.070286575E1,-8.354749061E0,1.004938852E1,-9.154096770E-1,1.310076396E1
1.071293375E1,-7.616568491E0,1.017952766E1,-1.429245447E0,1.279365630E1
1.072300075E1,-6.976076183E0,1.004933355E1,-2.143288711E0,1.241967915E1
1.073306875E1,-6.382346397E0,9.844172298E0,-3.018423936E0,1.211416348E1
1.074313575E1,-5.430226731E0,9.724076920E0,-3.461356369E0,1.166301943E1
1.075320375E1,-4.255134020E0,9.558956813E0,-2.955325463E0,1.087261558E1
1.076326992E1,-3.392759174E0,9.214411969E0,-1.816483151E0,9.985780580E0
1.077333792E1,-2.996116224E0,8.804266044E0,-6.924331248E-1,9.325839192E0
1.078340492E1,-2.677155873E0,8.264975005E0,4.117457966E-1,8.697500216E0
1.079347292E1,-2.660217074E0,7.723678372E0,1.593441110E0,8.322921184E0
1.080354092E1,-2.765371646E0,7.531121374E0,2.457326292E0,8.390680664E0
1.081360792E1,-2.474269769E0,7.821004692E0,3.464109238E0,8.904503248E0
1.082367592E1,-2.013698040E0,8.340660195E0,4.708785277E0,9.787453758E0
1.083374292E1,-1.760092603E0,8.722385729E0,5.248714539E0,1.033087330E1
1.084381092E1,-1.914567854E0,8.954558197E0,4.867190734E0,1.037011226E1
1.085387792E1,-2.372543419E0,9.105215217E0,4.258764557E0,1.032816450E1
1.086394592E1,-2.686407922E0,9.244282470E0,3.586614254E0,1.027313719E1
1.087401292E1,-2.846664900E0,9.425459617E0,2.568294750E0,1.017540800E1
1.088408092E1,-2.646561486E0,9.080784965E0,1.851900905E0,9.638178264E0
1.089414792E1,-2.201136385E0,7.720053098E0,1.062172451E0,8.097680627E0
1.090421592E1,-1.581352576E0,5.295311585E0,-2.542474616E-1,5.532236666E0
1.091428292E1,-2.777170157E-1,1.594399468E0,-1.413259306E0,2.148613104E0
1.092435092E1,1.412203737E0,-4.117122774E0,-2.086364897E0,4.826793741E0
1.093441892E1,3.287090047E0,-1.208809627E1,-2.781312325E0,1.283209767E1
1.094448592E1,5.574518471E0,-1.978024645E1,-2.628042769E0,2.071810838E1
1.095455392E1,9.363224192E0,-2.309618842E1,-1.410142593E0,2.496181862E1
1.096462092E1,1.392092005E1,-2.342387574E1,-5.440038943E-1,2.725373203E1
1.097468892E1,1.691914419E1,-2.350529705E1,3.930195037E-1,2.896395853E1
1.098475592E1,2.001766212E1,-2.554036198E1,1.472732359E0,3.248362399E1
1.099482392E1,1.931612254E1,-2.368258930E1,1.142106228E0,3.058238108E1
1.100489092E1,1.653074055E1,-1.909067729E1,5.171265829E-1,2.525839985E1
1.101495892E1,1.379855186E1,-1.703426184E1,4.463015620E-1,2.192636073E1
1.102502592E1,1.054267717E1,-1.658867009E1,-9.742466998E-1,1.967946071E1
1.103509392E1,6.178247581E0,-1.463694786E1,-2.529121914E0,1.608749338E1
1.104516192E1,4.272507852E-1,-1.104218843E1,-3.986706476E0,1.174760815E1
1.105522892E1,-4.140505790E0,-7.349237884E0,-5.926403909E0,1.030909060E1
1.106529692E1,-5.374384652E0,-3.143268422E0,-6.197315351E0,8.784694890E0
1.107536392E1,-4.424389279E0,1.334359170E0,-4.729031553E0,6.612070350E0
1.108543192E1,-3.335003302E0,5.278053528E0,-2.780339933E0,6.834499704E0
1.109549892E1,-3.132913004E0,8.372123478E0,-1.122854855E0,9.009350612E0
1.110556692E1,-3.561167171E0,1.036957269E1,1.050703540E-1,1.096453324E1
1.111563392E1,-3.926300645E0,1.128315921E1,3.158724368E-1,1.195095368E1
1.112570192E1,-4.470299862E0,1.143115106E1,-4.802248049E-1,1.228354230E1
1.113576892E1,-5.048925120E0,1.099881613E1,-1.575696564E0,1.220444266E1
1.114583692E1,-5.181064593E0,1.015032666E1,-2.514396871E0,1.167025078E1
1.115590392E1,-5.256448066E0,9.372072784E0,-3.187916592E0,1.120842570E1
1.116597192E1,-5.528432472E0,8.824334273E0,-3.502731852E0,1.098642669E1
1.117603992E1,-5.655488375E0,8.423548570E0,-3.531985472E0,1.074316716E1
1.118610692E1,-5.433453809E0,8.185520115E0,-3.279540122E0,1.035763213E1
1.119617492E1,-4.825539263E0,8.166604958E0,-2.670543256E0,9.854494761E0
1.120624192E1,-3.824453843E0,8.306753946E0,-1.736498503E0,9.308277787E0
1.121630992E1,-3.097068402E0,8.711059672E0,-8.367681348E-1,9.283026134E0
1.122637692E1,-2.943517596E0,9.231509228E0,-5.875282288E-2,9.689608369E0
1.123644492E1,-3.042662984E0,9.322134054E0,6.836716568E-1,9.829923107E0
1.124651192E1,-3.161635112E0,9.020920587E0,1.249928885E0,9.640293928E0
1.125657992E1,-3.267315933E0,8.913310769E0,1.263727144E0,9.577028169E0
1.126664692E1,-3.631038474E0,8.979514698E0,1.217306099E0,9.762067340E0
1.127671492E1,-4.092569146E0,9.149267555E0,1.202416749E0,1.009475235E1
1.128678192E1,-4.393894880E0,9.472588175E0,1.027843448E0,1.049250690E1
1.129684992E1,-4.488706897E0,9.618976142E0,6.279675722E-1,1.063332191E1
1.130691792E1,-4.419546615E0,9.633543311E0,6.392878274E-2,1.059913373E1
1.131698492E1,-4.188551191E0,9.434857846E0,-4.684566987E-1,1.033343870E1
1.132705292E1,-3.610486681E0,8.835855626E0,-8.328247726E-1,9.581312845E0
1.133711992E1,-3.003128790E0,7.782653389E0,-1.052906953E0,8.408156121E0
1.134718792E1,-1.479198210E0,5.957405847E0,-1.035877522E0,6.225090683E0
1.135725492E1,5.043819916E-1,3.107050184E0,-1.033468469E0,3.313037748E0
1.136732292E1,2.279317752E0,-1.112043353E0,-7.540089834E-1,2.645838124E0
1.137738992E1,4.301828130E0,-6.863336602E0,-4.716808534E-1,8.113790570E0
1.138745792E1,7.172956027E0,-1.394769094E1,6.923582073E-1,1.569932293E1
1.139752492E1,9.381127197E0,-1.999307575E1,3.171426859E0,2.231113116E1
1.140759292E1,1.162256084E1,-2.364084018E1,5.338925382E0,2.687893914E1
1.141766092E1,1.454109679E1,-2.543906950E1,6.797375332E0,3.007979495E1
1.142772792E1,1.720923392E1,-2.589359462E1,7.479564135E0,3.197780252E1
1.143779592E1,1.801757406E1,-2.363814579E1,6.522095436E0,3.042914130E1
1.144786292E1,1.652898873E1,-1.867331123E1,4.689794397E0,2.537507029E1
1.145793092E1,1.492318427E1,-1.561037478E1,3.512116048E0,2.187967524E1
1.146799792E1,1.302921966E1,-1.436997452E1,1.636809908E0,1.946627543E1
1.147806592E1,1.075528895E1,-1.357997592E1,-4.585738079E-1,1.732923184E1
1.148813292E1,7.980320268E0,-1.240855877E1,-9.773562491E-1,1.478556957E1
1.149820092E1,4.816788905E0,-1.071021159E1,-1.246814657E0,1.180951458E1
1.150826792E1,1.711307529E0,-7.627953604E0,-2.118521075E0,8.099529690E0
1.151833592E1,-3.633635223E-1,-3.664782756E0,-2.629978198E0,4.525422745E0
1.152840392E1,-1.853369726E0,5.041574585E-1,-2.702630437E0,3.315624430E0
1.153847092E1,-3.232016877E0,4.304623684E0,-2.840520646E0,6.086400882E0
1.154853892E1,-5.203395109E0,7.385252055E0,-3.519876473E0,9.695710338E0
1.155860592E1,-6.221397693E0,9.364724003E0,-4.069434053E0,1.195676120E1
1.156867392E1,-6.641182753E0,1.045069579E1,-4.416304334E0,1.314633389E1
1.157874092E1,-7.087289055E0,1.058121734E1,-5.223045847E0,1.376488411E1
1.158880892E1,-7.419554161E0,9.921650244E0,-6.100445114E0,1.380957487E1
1.159887592E1,-7.418908628E0,9.005623686E0,-6.166585894E0,1.319728172E1
1.160894392E1,-7.516802128E0,8.296640017E0,-5.758957195E0,1.258976321E1
1.161901092E1,-7.870645214E0,7.854375336E0,-5.456118786E0,1.238577814E1
1.162907892E1,-8.146738458E0,7.498988585E0,-5.076290674E0,1.218084169E1
1.163914592E1,-8.131538621E0,7.158608129E0,-4.432816286E0,1.170544535E1
1.164921392E1,-7.845950668E0,6.984282750E0,-3.615296016E0,1.110898342E1
1.165928192E1,-7.517876261E0,7.062985103E0,-2.574899765E0,1.063176048E1
1.166934892E1,-7.126957735E0,7.222591286E0,-1.393023115E0,1.024206351E1
1.167941692E1,-6.767674985E0,7.290137152E0,-4.256889939E-1,9.956341473E0
1.168948392E1,-6.594337201E0,7.524490047E0,4.252446055E-1,1.001419326E1
1.169955192E1,-6.701834752E0,7.980051296E0,1.179678097E0,1.048749008E1
1.170961892E1,-7.043272970E0,8.422147577E0,1.827627944E0,1.113016118E1
1.171968692E1,-7.479761186E0,8.955908904E0,2.166869363E0,1.186804342E1
1.172975392E1,-8.027320772E0,9.549283764E0,1.756719929E0,1.259812542E1
1.173982192E1,-8.264801928E0,9.814923356E0,1.544889339E0,1.292386763E1
1.174988892E1,-8.128370599E0,9.006141749E0,1.004700168E0,1.217334877E1
1.175995788E1,-7.531686215E0,7.415400299E0,-5.778569341E-2,1.056966405E1
1.177002488E1,-7.054670947E0,6.106189418E0,-1.007849406E0,9.384545371E0
1.178009288E1,-6.430656677E0,5.222726004E0,-1.286845865E0,8.383685615E0
1.179016088E1,-4.999120876E0,4.953725433E0,-9.842034117E-1,7.106283245E0
1.180022788E1,-2.405245142E0,4.257075296E0,-6.613091268E-2,4.890017134E0
1.181029588E1,8.022561139E-1,1.433838435E0,6.257525738E-1,1.758144992E0
1.182036288E1,4.009425833E0,-3.512631773E0,4.569387802E-1,5.350034629E0
1.183043088E1,7.064033509E0,-1.005530005E1,-1.120618880E-1,1.228910845E1
1.184049788E1,9.462569556E0,-1.712300503E1,1.633373646E-1,1.956436053E1
1.185056588E1,1.109027593E1,-2.123311582E1,1.979241568E0,2.403657265E1
1.186063288E1,1.321139668E1,-2.259710751E1,3.762666900E0,2.644480918E1
1.187070088E1,1.491312238E1,-2.318931819E1,4.628641877E0,2.795657387E1
1.188076788E1,1.713939828E1,-2.431785186E1,5.410391221E0,3.023886945E1
1.189083588E1,1.714722420E1,-2.355908675E1,4.831921499E0,2.953650845E1
1.190090288E1,1.536528406E1,-2.040270361E1,3.347798764E0,2.575985297E1
1.191097088E1,1.405976803E1,-1.742585922E1,2.795684781E0,2.256442998E1
1.192103888E1,1.296191353E1,-1.537770822E1,1.666089256E0,2.018070776E1
1.193110588E1,1.088524916E1,-1.362869024E1,8.053662479E-2,1.744237178E1
1.194117388E1,8.175240710E0,-1.089521048E1,-1.344660795E0,1.368752296E1
1.195124088E1,5.542452925E0,-7.353091784E0,-2.547174023E0,9.553786617E0
1.196130888E1,3.239210122E0,-3.546365529E0,-3.471510644E0,5.926261624E0
1.197137588E1,1.641130416E0,3.867757738E-1,-3.543927240E0,3.924579573E0
1.198144388E1,1.872968423E-1,4.296354552E0,-3.561737859E0,5.583880292E0
1.199151088E1,-1.250911217E0,7.618671734E0,-3.713763127E0,8.567436865E0
1.200157888E1,-2.521947380E0,1.001131963E1,-3.914670534E0,1.104134887E1
1.201164588E1,-3.853365401E0,1.143501841E1,-4.379835835E0,1.283709597E1
1.202171388E1,-5.039494731E0,1.234384413E1,-5.199062322E0,1.431073876E1
1.203178188E1,-5.683884793E0,1.252810392E1,-6.011846348E0,1.501340171E1
1.204184888E1,-6.101766585E0,1.177709924E1,-6.394567662E0,1.472488090E1
1.205191688E1,-6.130050736E0,1.064396966E1,-5.919484899E0,1.363495191E1
1.206198388E1,-6.037116260E0,9.838501668E0,-5.160501105E0,1.264411561E1
1.207205188E1,-6.080443543E0,9.340356901E0,-4.367208772E0,1.197023697E1
1.208211888E1,-5.930647234E0,8.754233174E0,-3.423951731E0,1.111452296E1
1.209218688E1,-5.637214072E0,8.384774514E0,-2.289528159E0,1.035975701E1
1.210225388E1,-5.200803623E0,8.302915249E0,-1.175049441E0,9.867497208E0
1.211232187E1,-4.884869206E0,8.255369784E0,-2.443574810E-1,9.595456634E0
1.212238888E1,-4.648269811E0,8.117123480E0,6.652657914E-1,9.377456179E0
1.213245688E1,-4.530042619E0,8.158801264E0,1.888830750E0,9.521292233E0
1.214252388E1,-4.181844435E0,8.146984625E0,3.290327650E0,9.730747012E0
1.215259188E1,-4.090064199E0,8.010347475E0,3.789269392E0,9.759756880E0
1.216265988E1,-4.086412028E0,7.940776718E0,3.814483756E0,9.711075351E0
1.217272688E1,-3.866484214E0,8.087999083E0,3.905761131E0,9.778568370E0
1.218279487E1,-3.583960202E0,8.454266918E0,3.840086374E0,9.953173525E0
1.219286188E1,-3.462165624E0,9.034893093E0,3.091886015E0,1.015754120E1
1.220292988E1,-3.555610562E0,9.369338626E0,1.748803968E0,1.017276698E1
1.221299688E1,-3.738162389E0,9.281170800E0,9.199038470E-1,1.004789593E1
1.222306488E1,-3.959842613E0,9.383666643E0,6.332766613E-2,1.018516390E1
1.223313188E1,-3.932802165E0,9.478421942E0,-6.081864417E-1,1.027994680E1
1.224319988E1,-2.904483338E0,8.634434250E0,-1.123072371E0,9.178821811E0
1.225326688E1,-6.989504313E-1,6.579607480E0,-1.713491464E0,6.834897167E0
1.226333488E1,1.462582762E0,3.565354947E0,-2.068345533E0,4.373666366E0
1.227340188E1,3.725722438E0,-1.258102123E0,-1.708550566E0,4.287537017E0
1.228346988E1,6.142627512E0,-7.980275829E0,-7.345652372E-1,1.009733931E1
1.229353788E1,7.860362885E0,-1.533672508E1,1.638050687E-1,1.723447919E1
1.230360488E1,8.002546704E0,-2.043498492E1,1.324145254E0,2.198596650E1
1.231367288E1,7.816959003E0,-2.255149455E1,2.563884780E0,2.400517152E1
1.232373988E1,8.328936528E0,-2.310733087E1,3.811357834E0,2.485651569E1
1.233380788E1,1.025691439E1,-2.394846688E1,5.231517878E0,2.657258244E1
1.234387488E1,1.158923756E1,-2.390909640E1,5.255031871E0,2.708450993E1
1.235394288E1,1.242745697E1,-2.093884651E1,3.551711054E0,2.460673955E1
1.236400988E1,1.370646523E1,-1.873870064E1,2.498490690E0,2.335055773E1
1.237407788E1,1.408382815E1,-1.679462774E1,8.241428268E-1,2.193383112E1
1.238414488E1,1.305671561E1,-1.408594251E1,-1.109224995E0,1.923855449E1
1.239421288E1,1.064022744E1,-1.087339569E1,-1.925262412E0,1.533466038E1
1.240428088E1,7.402867962E0,-7.779066707E0,-1.514553984E0,1.084482396E1
1.241434788E1,4.453044729E0,-4.650350250E0,-7.399967158E-1,6.480969059E0
1.242441588E1,1.882136858E0,-1.488452598E0,-4.693758810E-1,2.445044786E0
1.243448288E1,-5.596527976E-1,1.725101110E0,-4.458156218E-1,1.867601848E0
1.244455088E1,-2.481919096E0,4.820409501E0,-6.359572808E-1,5.459002823E0
1.245461788E1,-4.349525623E0,7.368178770E0,-1.444252326E0,8.677228608E0
1.246468588E1,-6.100874884E0,9.455983252E0,-2.430088792E0,1.151267237E1
1.247475288E1,-7.195558439E0,1.083855330E1,-2.774310869E0,1.330214643E1
1.248482088E1,-7.713385518E0,1.144626846E1,-2.758226933E0,1.407555305E1
1.249488788E1,-7.909995806E0,1.130023775E1,-3.063229396E0,1.412964194E1
1.250495588E1,-8.045293359E0,1.050857036E1,-3.294185643E0,1.363849168E1
1.251502288E1,-7.718329339E0,9.554427559E0,-3.200517341E0,1.269263586E1
1.252509088E1,-7.110575007E0,8.881544600E0,-2.888509330E0,1.173821100E1
1.253515788E1,-6.344005035E0,8.426652272E0,-2.465632846E0,1.083209184E1
1.254522588E1,-5.657048997E0,8.181636395E0,-2.093762210E0,1.016490126E1
1.255529388E1,-5.087726659E0,8.054709715E0,-1.433222723E0,9.634180740E0
1.256536087E1,-4.401054795E0,7.880878426E0,-6.300883573E-1,9.048455084E0
1.257542888E1,-4.311683028E0,7.860020238E0,1.572661275E-1,8.966340464E0
1.258549588E1,-4.293490001E0,7.883637727E0,9.073750180E-1,9.022700794E0
1.259556388E1,-4.183180524E0,8.047683116E0,1.648063459E0,9.218476881E0
1.260563088E1,-4.171340497E0,8.192221609E0,2.063166654E0,9.421742571E0
1.261569888E1,-4.417134054E0,7.933682292E0,1.834149343E0,9.263827058E0
1.262576588E1,-4.619733059E0,7.716783335E0,1.074653333E0,9.057900329E0
1.263583387E1,-4.376202375E0,7.820831029E0,5.627985996E-1,8.979603971E0
1.264590088E1,-4.262412634E0,8.094500602E0,2.586422288E-1,9.151830269E0
1.265596888E1,-4.077545310E0,8.247050366E0,-1.535081220E-1,9.201292313E0
1.266603588E1,-3.632378656E0,8.193091090E0,-7.760687739E-1,8.995732269E0
1.267610388E1,-3.424494352E0,7.993236768E0,-1.247027496E0,8.784877527E0
1.268617188E1,-2.669922867E0,7.127230216E0,-1.304505626E0,7.721893135E0
1.269623888E1,-1.641125153E0,5.554706935E0,-1.220660062E0,5.919296571E0
1.270630688E1,2.347803265E-1,2.738694894E0,-1.144220581E0,2.977383459E0
1.271637388E1,2.177881424E0,-1.951609381E0,-9.829239678E-1,3.085139575E0
1.272644188E1,3.783905742E0,-7.996917005E0,-6.053598976E-1,8.867642576E0
1.273650888E1,5.278669825E0,-1.421767911E1,3.727599978E-2,1.516601938E1
1.274657688E1,6.549808314E0,-1.867677161E1,1.066847885E0,1.982069502E1
1.275664388E1,7.558381678E0,-2.117735677E1,2.398876355E0,2.261336289E1
1.276671200E1,8.083272194E0,-2.224566646E1,3.805504771E0,2.397271016E1
1.277677900E1,1.108395860E1,-2.439203665E1,4.836580560E0,2.722532097E1
1.278684700E1,1.374360440E1,-2.597159180E1,4.582888584E0,2.973908388E1
1.279691500E1,1.422879349E1,-2.333340060E1,4.160447134E0,2.764444733E1
1.280698200E1,1.441486476E1,-1.925418766E1,4.064574432E0,2.439329486E1
1.281705000E1,1.462309814E1,-1.563864723E1,3.674159351E0,2.172329932E1
1.282711700E1,1.389573141E1,-1.257831981E1,2.708062500E0,1.893776870E1
1.283718500E1,1.144461252E1,-9.453354928E0,1.829621260E0,1.495635615E1
1.284725200E1,8.342821911E0,-6.454617398E0,1.038326921E0,1.059919270E1
1.285732000E1,5.439190512E0,-3.262018356E0,2.216865834E-1,6.346235272E0
1.286738700E1,2.858970366E0,-2.066517109E-1,-4.190746236E-1,2.896901797E0
1.287745500E1,9.138081247E-1,2.735943779E0,-1.014705851E0,3.057787045E0
1.288752200E1,-1.016201642E0,5.685903252E0,-1.707564141E0,6.023116873E0
1.289759000E1,-2.908514993E0,8.262794579E0,-2.452681848E0,9.096641246E0
1.290765700E1,-4.734082378E0,9.989504843E0,-3.259798753E0,1.152510438E1
1.291772500E1,-6.324671801E0,1.081653269E1,-3.978793439E0,1.314646911E1
1.292779300E1,-7.925117875E0,1.098980206E1,-4.984434425E0,1.443702979E1
1.293786000E1,-8.939187621E0,1.054172524E1,-5.520503647E0,1.488331304E1
1.294792800E1,-9.285108899E0,9.878875523E0,-5.330836928E0,1.456788424E1
1.295799500E1,-9.142321063E0,9.180536710E0,-4.980468843E0,1.388053884E1
1.296806300E1,-8.644917723E0,8.641805835E0,-4.593152202E0,1.305804188E1
1.297813000E1,-7.864977508E0,8.284539789E0,-4.361080306E0,1.222744831E1
1.298819800E1,-7.054403145E0,8.103722246E0,-4.301183183E0,1.157303308E1
1.299826500E1,-6.246674622E0,8.147329026E0,-3.801548545E0,1.094767945E1
1.300833300E1,-5.474768481E0,8.432884820E0,-2.999708169E0,1.049213445E1
1.301840000E1,-4.827499834E0,8.887327496E0,-2.081867219E0,1.032586635E1
1.302846800E1,-4.217296688E0,9.333195232E0,-9.283893263E-1,1.028377515E1
1.303853500E1,-4.014970163E0,9.628146915E0,1.549313708E-1,1.043289040E1
1.304860300E1,-4.242931466E0,9.867738916E0,1.054849398E0,1.079293500E1
1.305867100E1,-4.129625291E0,9.644807387E0,1.577074753E0,1.060958432E1
1.306873800E1,-4.195376061E0,9.178781376E0,1.664126930E0,1.022841758E1
1.307880600E1,-4.426097251E0,8.857596744E0,1.597157600E0,1.002986886E1
1.308887300E1,-4.292753837E0,8.716464838E0,1.222371542E0,9.792787497E0
1.309894100E1,-4.395505203E0,8.614479457E0,5.054251349E-1,9.684274721E0
1.310900800E1,-4.731454055E0,8.287376273E0,-3.276013666E-1,9.548538402E0
1.311907600E1,-4.747381285E0,7.820012419E0,-9.672206855E-1,9.199224922E0
1.312914300E1,-4.264628145E0,7.298972880E0,-1.250608916E0,8.545529882E0
1.313921100E1,-3.381926038E0,6.742021496E0,-1.170087494E0,7.632914405E0
1.314927800E1,-2.558575509E0,5.806498566E0,-1.278707126E0,6.472775768E0
1.315934600E1,-1.054502074E0,3.948985503E0,-1.323507907E0,4.296293089E0
1.316941300E1,1.587983903E0,8.335340399E-1,-1.248477606E0,2.185215826E0
1.317948100E1,4.846190459E0,-4.292727524E0,-7.863663054E-1,6.521613568E0
1.318954900E1,8.153808326E0,-1.131783553E1,3.971101427E-1,1.395477294E1
1.319961600E1,9.923094506E0,-1.831888459E1,1.913569150E0,2.092154593E1
1.320968400E1,1.015680187E1,-2.321367535E1,3.413470012E0,2.556730578E1
1.321975100E1,1.065862512E1,-2.497495260E1,4.169716140E0,2.747255138E1
1.322981900E1,1.271570833E1,-2.563079502E1,5.002145641E0,2.904562536E1
1.323988600E1,1.531603296E1,-2.708510982E1,6.247754602E0,3.173670552E1
1.324995400E1,1.509516491E1,-2.430838639E1,6.106989902E0,2.925845140E1
1.326002100E1,1.419318278E1,-1.986293310E1,5.298884819E0,2.498120752E1
1.327008900E1,1.355993634E1,-1.724603395E1,4.210111045E0,2.233881366E1
1.328015600E1,1.222935798E1,-1.542212952E1,2.408027247E0,1.982921760E1
1.329022400E1,9.801549604E0,-1.303092003E1,7.492575359E-1,1.632288695E1
1.330029100E1,6.923648293E0,-1.036582696E1,-6.011727065E-1,1.247993121E1
1.331035900E1,4.096287391E0,-7.471413701E0,-1.891898784E0,8.728165563E0
1.332042700E1,1.844035816E0,-4.251270180E0,-2.712040361E0,5.369257784E0
1.333049400E1,4.419629645E-1,-7.854547244E-1,-3.026913509E0,3.158239347E0
1.334056200E1,-7.494218427E-1,2.909704317E0,-3.106661344E0,4.321962172E0
1.335062900E1,-2.209713666E0,6.560043281E0,-3.104353448E0,7.586436097E0
1.336069700E1,-3.459466549E0,9.476755486E0,-2.768482949E0,1.046141965E1
1.337076400E1,-4.546588485E0,1.132383712E1,-2.550293512E0,1.246614419E1
1.338083200E1,-5.889402144E0,1.224693705E1,-2.869923370E0,1.388916790E1
1.339089900E1,-7.253442366E0,1.207537273E1,-3.529683423E0,1.452190475E1
1.340096700E1,-7.898748102E0,1.083533967E1,-4.097839242E0,1.402095196E1
1.341103400E1,-8.244982790E0,9.450535401E0,-4.621105986E0,1.336588871E1
1.342110200E1,-8.752862586E0,8.362669115E0,-4.976723117E0,1.308872076E1
1.343116900E1,-8.643833649E0,7.634914130E0,-4.659463720E0,1.243858417E1
1.344123700E1,-8.220959505E0,7.569701888E0,-4.134903572E0,1.191561956E1
1.345130500E1,-7.423172418E0,7.747068404E0,-3.733657109E0,1.136049088E1
1.346137200E1,-6.171026854E0,7.794570599E0,-3.314604120E0,1.047967097E1
1.347144000E1,-5.373475994E0,7.759464501E0,-2.685382320E0,9.812991991E0
1.348150700E1,-5.042700759E0,7.841711437E0,-1.514980831E0,9.445445258E0
1.349157500E1,-4.462609604E0,7.998192283E0,3.175915182E-2,9.158983181E0
1.350164200E1,-4.003624810E0,8.148004965E0,1.237529864E0,9.162449273E0
1.351171000E1,-3.807703909E0,8.282870994E0,1.980139115E0,9.328746533E0
1.352177700E1,-3.722625752E0,8.356058253E0,2.499234456E0,9.483028255E0
1.353184500E1,-3.831727780E0,8.382957784E0,2.642944983E0,9.588601419E0
1.354191200E1,-3.933108559E0,8.271546106E0,2.472394567E0,9.486862116E0
1.355198000E1,-3.857509323E0,8.474993543E0,1.628422662E0,9.452917756E0
1.356204700E1,-3.877099834E0,8.826170883E0,6.477136195E-1,9.661921575E0
1.357211500E1,-3.966202630E0,8.758801603E0,-4.715136230E-2,9.615071091E0
1.358218200E1,-3.891892705E0,8.523062333E0,-7.027505368E-1,9.395918193E0
1.359225000E1,-3.568963848E0,8.332644832E0,-1.222935798E0,9.146914497E0
1.360231800E1,-2.715224170E0,8.080201821E0,-1.127201090E0,8.598411834E0
1.361238500E1,-1.245988446E0,7.120715248E0,-1.071510454E0,7.307886665E0
1.362245300E1,4.626270247E-1,4.798850232E0,-1.521876453E0,5.055600384E0
1.363252000E1,2.757123563E0,7.623336643E-1,-1.798494776E0,3.378974167E0
1.364258800E1,5.729510032E0,-4.976674585E0,-1.470641395E0,7.730288561E0
1.365265500E1,8.408451644E0,-1.197889718E1,-7.249950993E-1,1.465338372E1
1.366272300E1,1.007383339E1,-1.809705292E1,9.544737554E-1,2.073394472E1
1.367279000E1,1.265204502E1,-2.124822970E1,3.833993576E0,2.502520760E1
1.368285800E1,1.658743282E1,-2.228241504E1,6.380282915E0,2.850187639E1
1.369292500E1,1.988524140E1,-2.241471180E1,6.897389617E0,3.074761965E1
1.370299300E1,2.165866448E1,-2.257365550E1,5.564498098E0,3.177469605E1
1.371306100E1,1.965048037E1,-1.937749375E1,3.060563650E0,2.776680919E1
1.372312800E1,1.690019804E1,-1.582119848E1,1.045152376E0,2.317367814E1
1.373319600E1,1.471208809E1,-1.429564588E1,-4.511243820E-2,2.051372863E1
1.374326300E1,1.211010987E1,-1.345933967E1,1.455664337E-1,1.810607012E1
1.375333100E1,8.443029739E0,-1.172865857E1,5.980052698E-1,1.446387891E1
1.376339750E1,4.810042387E0,-8.960807117E0,4.521184087E-1,1.018022510E1
1.377346550E1,1.439499124E0,-5.399268647E0,-5.566502523E-1,5.615524834E0
1.378353250E1,-8.421528357E-1,-1.698277009E0,-2.226427932E0,2.924097730E0
1.379360050E1,-1.793888340E0,1.741955125E0,-3.849938348E0,4.590693664E0
1.380366750E1,-2.511784335E0,4.826335069E0,-4.699076267E0,7.189150750E0
1.381373550E1,-3.202590179E0,7.444869096E0,-4.515964862E0,9.277747483E0
1.382380250E1,-4.178376451E0,9.553021304E0,-4.098059682E0,1.120326466E1
1.383387050E1,-5.394328335E0,1.100274545E1,-3.477153207E0,1.273773057E1
1.384393850E1,-6.556512147E0,1.155389932E1,-2.406780621E0,1.350085309E1
1.385400550E1,-7.288377725E0,1.072731119E1,-1.954076321E0,1.311541343E1
1.386407350E1,-8.207407998E0,8.967496916E0,-2.240360677E0,1.236109878E1
1.387414050E1,-9.478697346E0,7.428997414E0,-2.494523939E0,1.229871358E1
1.388420850E1,-1.069530821E1,6.716400166E0,-2.637834517E0,1.290185335E1
1.389427550E1,-1.131562295E1,6.491261898E0,-2.625054842E0,1.330679212E1
1.390434350E1,-1.115300954E1,6.418229005E0,-2.411350805E0,1.309190200E1
1.391441050E1,-1.044087715E1,6.400700807E0,-2.178032282E0,1.243883881E1
1.392447850E1,-9.466527536E0,6.372633587E0,-1.819559371E0,1.155579503E1
1.393454550E1,-8.586847855E0,6.319847263E0,-1.492914609E0,1.076583576E1
1.394461350E1,-7.696760715E0,6.400161694E0,-9.694777107E-1,1.005694199E1
1.395468050E1,-6.986112928E0,6.579063689E0,-2.460625474E-1,9.599499968E0
1.396474850E1,-6.597004116E0,6.611725066E0,1.838995735E-1,9.341798044E0
1.397481550E1,-6.109873164E0,6.601709370E0,5.172190054E-1,9.010029533E0
1.398488350E1,-5.835762126E0,6.610005400E0,1.011522700E0,8.875329242E0
1.399495150E1,-6.039959176E0,6.473474084E0,1.226496753E0,8.938191531E0
1.400501850E1,-6.202810564E0,6.389785810E0,1.022216088E0,8.963768589E0
1.401508650E1,-6.122645822E0,6.479649328E0,8.042494297E-1,8.950947683E0
1.402515350E1,-6.061703217E0,6.629424587E0,6.672246087E-1,9.007702533E0
1.403522150E1,-5.929789447E0,6.754097165E0,4.035105050E-1,8.996835674E0
1.404528850E1,-5.712587020E0,6.780409636E0,-1.660773698E-1,8.867648335E0
1.405535650E1,-4.893451164E0,6.664598513E0,-4.483223963E-1,8.280321891E0
1.406542350E1,-3.532241580E0,5.704914304E0,-8.660439742E-1,6.765560580E0
1.407549150E1,-1.680355293E0,3.377126643E0,-1.298918027E0,3.989456894E0
1.408555850E1,1.094033344E0,-4.010529202E-1,-1.419648997E0,1.836615277E0
1.409562650E1,4.196741971E0,-6.039610682E0,-1.322890441E0,7.472588540E0
1.410569350E1,7.126968260E0,-1.325022687E1,-2.010717130E-1,1.504668131E1
1.411576150E1,9.108994272E0,-1.967690978E1,1.450628715E0,2.173151810E1
1.412582950E1,1.062368684E1,-2.343285238E1,3.571562351E0,2.597532195E1
1.413589650E1,1.382310198E1,-2.512126631E1,5.496865693E0,2.919540549E1
1.414596450E1,1.612685583E1,-2.505796669E1,5.395904160E0,3.028354265E1
1.415603150E1,1.802358266E1,-2.477593911E1,3.919581610E0,3.088785863E1
1.416609950E1,1.617056727E1,-2.131464472E1,1.720308148E0,2.680971439E1
1.417616650E1,1.336919315E1,-1.671961498E1,6.327061558E-1,2.141684308E1
1.418623450E1,1.210306280E1,-1.461700417E1,1.004186783E0,1.900392936E1
1.419630150E1,1.091061672E1,-1.375127127E1,1.165139580E0,1.759251458E1
1.420636950E1,9.346615176E0,-1.200549265E1,5.845204210E-1,1.522605442E1
1.421643650E1,6.781093760E0,-9.169806485E0,-3.697849345E-1,1.141075477E1
1.422650450E1,4.196699871E0,-6.223707928E0,-1.525446178E0,7.659883564E0
1.423657150E1,1.827948956E0,-2.746175821E0,-2.390802519E0,4.074164419E0
1.424663950E1,5.250583309E-1,9.235630345E-1,-2.625159507E0,2.831981174E0
1.425670750E1,-5.335923421E-1,4.501347408E0,-2.856696383E0,5.357943962E0
1.426677450E1,-1.609734376E0,7.691720415E0,-2.816635939E0,8.347888698E0
1.427684250E1,-2.578583511E0,1.019046897E1,-2.373849687E0,1.077635899E1
1.428690950E1,-3.619626464E0,1.191591682E1,-2.051659334E0,1.262141337E1
1.429697750E1,-4.974691794E0,1.292954101E1,-1.733129337E0,1.396153023E1
1.430704450E1,-6.050968314E0,1.292354176E1,-1.168474247E0,1.431773311E1
1.431711250E1,-6.393697012E0,1.178119346E1,-8.394683790E-1,1.343058405E1
1.432717950E1,-6.701491520E0,1.053523016E1,-1.092159896E0,1.253370960E1
1.433724750E1,-7.525700421E0,9.617845876E0,-1.970640898E0,1.237022844E1
1.434731450E1,-8.175290412E0,8.717703863E0,-3.037517434E0,1.233127107E1
1.435738250E1,-8.231075188E0,7.983387133E0,-3.600535305E0,1.201869058E1
1.436744950E1,-8.039587061E0,7.631187699E0,-3.477926209E0,1.161748495E1
1.437751750E1,-7.313497948E0,7.710273045E0,-2.859461532E0,1.100509350E1
1.438758550E1,-6.708094196E0,7.998854188E0,-1.920432612E0,1.061453049E1
1.439765250E1,-6.021184936E0,8.071042743E0,-8.791253650E-1,1.010788110E1
1.440772050E1,-5.246599601E0,8.107259227E0,-8.285976011E-2,9.657190341E0
1.441778750E1,-4.667717650E0,8.257879409E0,7.112892258E-1,9.512417819E0
1.442785550E1,-4.027134125E0,8.490863471E0,1.265908155E0,9.482357049E0
1.443792250E1,-3.618406734E0,8.710166802E0,1.663766742E0,9.577473195E0
1.444799050E1,-3.810786561E0,8.786893381E0,1.843338243E0,9.753434543E0
1.445805750E1,-4.031254073E0,8.726175309E0,1.931456952E0,9.804471984E0
1.446812550E1,-4.062391081E0,8.731602110E0,1.867193713E0,9.809704841E0
1.447819250E1,-3.939798943E0,8.953296368E0,1.520007098E0,9.899189519E0
1.448826050E1,-3.481193048E0,9.018847164E0,1.334474945E0,9.759053878E0
1.449832750E1,-3.054439276E0,8.694154787E0,1.495907214E0,9.335719852E0
1.450839550E1,-2.118935058E0,7.850326139E0,1.436076164E0,8.257107304E0
1.451846250E1,-3.550470275E-1,6.152194142E0,1.017388626E0,6.245849083E0
1.452853050E1,9.229882532E-1,3.713591804E0,1.935790177E-1,3.831467635E0
1.453859850E1,2.861721480E0,2.294272006E-1,-3.247953244E-1,2.889217658E0
1.454866550E1,6.267138707E0,-5.336128074E0,-1.839487632E-1,8.233172386E0
1.455873350E1,9.068662518E0,-1.251292806E1,1.113005440E-1,1.545400907E1
1.456880050E1,1.157182923E1,-1.941482471E1,1.077319078E0,2.262748918E1
1.457886850E1,1.414507657E1,-2.284855883E1,2.321973774E0,2.697278988E1
1.458893550E1,1.633652412E1,-2.225671068E1,3.081081530E0,2.778014136E1
1.459900350E1,1.694207346E1,-2.132050597E1,3.521913643E0,2.745909146E1
1.460907050E1,1.703215333E1,-2.186427363E1,3.179729905E0,2.789715740E1
1.461913850E1,1.607566112E1,-2.061059785E1,2.440421991E0,2.625222436E1
1.462920550E1,1.448275210E1,-1.778536475E1,1.332842402E0,2.297489449E1
1.463927350E1,1.210592209E1,-1.616437156E1,-2.499801636E-1,2.019660238E1
1.464934050E1,9.075547029E0,-1.495119360E1,-2.436704332E0,1.765902806E1
1.465940850E1,5.758473630E0,-1.305266232E1,-4.380187837E0,1.492374141E1
1.466947650E1,2.470093687E0,-1.034868761E1,-5.012132100E0,1.176087438E1
1.467954350E1,-5.706391311E-1,-7.120890080E0,-4.761353792E0,8.585056463E0
1.468961150E1,-2.989358012E0,-3.837716498E0,-4.144903480E0,6.390974425E0
1.469967850E1,-4.601259366E0,-4.501262623E-1,-3.300086069E0,5.680208576E0
1.470974650E1,-5.334783214E0,2.741469398E0,-2.595767893E0,6.535562513E0
1.471981350E1,-5.786577687E0,5.648283436E0,-1.733984785E0,8.270084059E0
1.472988150E1,-6.009833152E0,8.257557228E0,-5.584172809E-1,1.022825380E1
1.473994850E1,-5.858569776E0,1.030129709E1,2.819930845E-1,1.185407448E1
1.475001650E1,-5.329768057E0,1.144715840E1,7.754460454E-1,1.265089640E1
1.476008304E1,-4.791810184E0,1.183131462E1,6.502805471E-1,1.278140506E1
1.477015104E1,-4.223382470E0,1.159908661E1,9.448632717E-2,1.234441968E1
1.478021804E1,-3.960934289E0,1.108885155E1,-6.738541818E-1,1.179430832E1
1.479028604E1,-3.898443341E0,1.040627332E1,-1.045021398E0,1.116156148E1
1.480035304E1,-4.115699562E0,9.885099299E0,-1.090309253E0,1.076303606E1
1.481042104E1,-4.841731957E0,9.416606348E0,-1.115209036E0,1.064699651E1
1.482048904E1,-5.774552888E0,8.862412511E0,-1.376911697E0,1.066694438E1
1.483055604E1,-6.313910585E0,8.362885462E0,-1.621262162E0,1.060338678E1
1.484062404E1,-6.362484575E0,8.137369464E0,-1.194064586E0,1.039825860E1
1.485069104E1,-6.010330165E0,8.138161177E0,-2.750354461E-1,1.012074012E1
1.486075904E1,-5.718537732E0,8.256618165E0,6.769005811E-1,1.006636040E1
1.487082604E1,-5.540626840E0,8.319959882E0,1.346151835E0,1.008624821E1
1.488089404E1,-5.163469736E0,8.207460038E0,1.783262780E0,9.859201090E0
1.489096104E1,-4.864161292E0,8.220884076E0,2.264927169E0,9.816969753E0
1.490102904E1,-5.030612226E0,8.435088050E0,2.439328562E0,1.011968841E1
1.491109604E1,-5.739463162E0,8.493446186E0,2.577887692E0,1.057003172E1
1.492116404E1,-6.303251696E0,8.325186124E0,2.676716162E0,1.077981982E1
1.493123104E1,-5.875272347E0,8.200898877E0,3.048321919E0,1.053877764E1
1.494129904E1,-5.521643854E0,8.126100125E0,3.420115957E0,1.040284804E1
1.495136604E1,-5.029347473E0,7.768573294E0,3.411455061E0,9.863219183E0
1.496143404E1,-4.342545801E0,6.912539168E0,3.194978274E0,8.766344047E0
1.497150204E1,-3.598404579E0,5.476050190E0,2.582270765E0,7.042993931E0
1.498156904E1,-1.175738243E0,3.119316473E0,1.609418042E0,3.701718804E0
1.499163704E1,2.601725037E0,-9.251014370E-1,6.920401919E-1,2.846700803E0
1.500170404E1,6.469419039E0,-7.053106232E0,5.742258132E-1,9.587983392E0
1.501177204E1,8.964466889E0,-1.467325907E1,5.958885777E-1,1.720526900E1
1.502183904E1,9.058074380E0,-2.026361004E1,9.969631326E-1,2.221838291E1
1.503190704E1,9.960191581E0,-2.244835201E1,1.454056352E0,2.460179270E1
1.504197404E1,1.163578139E1,-2.389457192E1,2.162748245E0,2.666494807E1
1.505204204E1,1.222244657E1,-2.550537926E1,2.038590807E0,2.835610029E1
1.506210904E1,1.125033294E1,-2.615697894E1,1.933801686E0,2.853939606E1
1.507217704E1,8.581844977E0,-2.381657942E1,1.195231690E0,2.534375855E1
1.508224404E1,6.590331273E0,-2.121049411E1,1.615531890E0,2.226942905E1
1.509231204E1,6.205138341E0,-1.930153491E1,1.867613543E0,2.036027927E1
1.510238004E1,5.756297881E0,-1.727035135E1,1.119842370E0,1.823880610E1
1.511244704E1,4.660721456E0,-1.450777000E1,1.677601254E-1,1.523895857E1
1.512251504E1,3.731193677E0,-1.112215028E1,-1.006635597E0,1.177443622E1
1.513258204E1,3.250549627E0,-6.889956636E0,-2.315428401E0,7.962335336E0
1.514265004E1,3.041896414E0,-2.251291462E0,-3.183762730E0,4.945481995E0
1.515271704E1,2.631162844E0,2.207798118E0,-3.648140411E0,5.010620610E0
1.516278504E1,2.226069497E0,6.133360845E0,-4.267175192E0,7.796299428E0
1.517285204E1,2.456852083E0,9.483242387E0,-4.551655682E0,1.080210988E1
1.518292004E1,1.618119283E0,1.231932558E1,-4.292017672E0,1.314555090E1
1.519298704E1,7.982279670E-1,1.406090824E1,-3.596543410E0,1.453552314E1
1.520305504E1,5.951763868E-1,1.451344297E1,-3.430884190E0,1.492532171E1
1.521312204E1,5.980280739E-1,1.374196952E1,-3.730128314E0,1.425177958E1
1.522319004E1,1.476521355E-1,1.253468555E1,-4.136650720E0,1.320045538E1
1.523325704E1,-8.330031127E-1,1.149153760E1,-4.486251651E0,1.236429474E1
1.524332504E1,-2.292188058E0,1.043732087E1,-4.812216967E0,1.171960858E1
1.525339304E1,-3.456924765E0,9.386466874E0,-4.922257472E0,1.114830516E1
1.526346004E1,-3.925518873E0,8.785271364E0,-4.410422620E0,1.058501389E1
1.527352804E1,-3.926585990E0,8.232858589E0,-3.795560997E0,9.879489934E0
1.528359504E1,-3.784564723E0,7.904228112E0,-2.935798686E0,9.242221925E0
1.529366304E1,-3.966082177E0,8.095860665E0,-2.202512235E0,9.280292446E0
1.530373004E1,-4.401685125E0,8.224136882E0,-1.694827736E0,9.480701474E0
1.531379804E1,-4.878049598E0,7.957458825E0,-1.203265765E0,9.410864324E0
1.532386504E1,-5.422140616E0,7.823381585E0,-5.625360962E-1,9.535269013E0
1.533393304E1,-5.758285350E0,7.884307818E0,1.514381345E-1,9.764378805E0
1.534400004E1,-5.635406113E0,7.893428305E0,6.038963395E-1,9.717443246E0
1.535406804E1,-5.339226514E0,8.023913015E0,8.253087616E-1,9.673244254E0
1.536413504E1,-5.025798213E0,8.400154445E0,4.815269798E-1,9.800668886E0
1.537420304E1,-4.651698618E0,8.594312995E0,-3.790510172E-1,9.779785047E0
1.538427004E1,-4.426942173E0,8.394891951E0,-8.340591198E-1,9.527207487E0
1.539433804E1,-4.458958603E0,8.227355774E0,-6.713235068E-1,9.382023774E0
1.540440604E1,-4.219737900E0,7.931277916E0,-8.399876118E-1,9.023133409E0
1.541447304E1,-3.493789705E0,7.189294901E0,-1.053150782E0,8.062360340E0
1.542454104E1,-2.426141921E0,6.108092687E0,-8.160485262E-1,6.622755929E0
1.543460804E1,-7.762383431E-1,4.306731021E0,-7.287899423E-1,4.436396379E0
1.544467604E1,1.304282262E0,1.235175190E0,-7.732492465E-1,1.955690253E0
1.545474304E1,3.876475351E0,-3.367233739E0,-6.984966874E-2,5.135192614E0
1.546481104E1,6.211718797E0,-9.570350697E0,2.111759355E0,1.160330084E1
1.547487804E1,7.818244221E0,-1.556190604E1,4.077008536E0,1.788630372E1
1.548494604E1,9.495109311E0,-1.954614499E1,5.624408669E0,2.244644421E1
1.549501304E1,1.041220591E1,-2.202122694E1,6.698063883E0,2.526286855E1
1.550508104E1,1.017100709E1,-2.308493837E1,6.567145894E0,2.606705143E1
1.551514804E1,1.002102601E1,-2.468129607E1,6.238615404E0,2.735886804E1
1.552521604E1,8.477901948E0,-2.448196917E1,6.499904083E0,2.671124087E1
1.553528404E1,6.910234196E0,-2.171751320E1,6.043245896E0,2.357800961E1
1.554535104E1,6.804111909E0,-1.909214612E1,5.295187039E0,2.094862735E1
1.555541904E1,6.720274531E0,-1.705943176E1,4.192579923E0,1.880861580E1
1.556548604E1,6.396849831E0,-1.485757851E1,2.740335038E0,1.640660730E1
1.557555404E1,5.683171433E0,-1.174329999E1,1.760986058E0,1.316452066E1
1.558562104E1,4.513096218E0,-7.958783219E0,9.009670544E-1,9.193585233E0
1.559568904E1,3.584792846E0,-4.221448211E0,-8.212034315E-1,5.598726625E0
1.560575604E1,2.454882740E0,-5.187117630E-1,-2.746890936E0,3.720338825E0
1.561582404E1,7.664372402E-1,3.149222057E0,-3.759836263E0,4.964009905E0
1.562589104E1,-7.938507414E-1,6.470042937E0,-4.149703460E0,7.727334173E0
1.563595904E1,-9.379653114E-1,8.937656820E0,-4.032892463E0,9.850162942E0
1.564602604E1,-1.877294778E0,1.104935010E1,-3.874733466E0,1.185858056E1
1.565609404E1,-3.473103426E0,1.197273772E1,-3.770161861E0,1.302394012E1
1.566616104E1,-4.180659204E0,1.148181485E1,-4.131124517E0,1.289868882E1
1.567622904E1,-5.373288884E0,1.010356531E1,-4.742953774E0,1.238748868E1
1.568629704E1,-6.686031482E0,8.703828421E0,-4.947653684E0,1.203905823E1
1.569636404E1,-7.750993055E0,7.854461290E0,-4.767275267E0,1.202070584E1
1.570643204E1,-8.534580179E0,7.382952345E0,-4.380607082E0,1.210523699E1
1.571649904E1,-8.778457019E0,7.246968328E0,-3.767696090E0,1.199063766E1
1.572656704E1,-8.462143117E0,7.336629533E0,-3.175048040E0,1.164108797E1
1.573663404E1,-7.863749592E0,7.415129573E0,-2.141899998E0,1.101864056E1
1.574670204E1,-7.329897049E0,7.459615774E0,-1.394697758E0,1.055075543E1
1.575676904E1,-6.803243013E0,7.628658779E0,-8.941082704E-1,1.026060329E1
1.576683775E1,-6.600864447E0,7.660993881E0,-4.983727716E-1,1.012475255E1
1.577690475E1,-6.566849440E0,7.418190005E0,-2.202295486E-1,9.909669802E0
1.578697275E1,-6.374600006E0,7.199534546E0,1.256145644E-1,9.616891490E0
1.579703975E1,-6.370112268E0,7.369472759E0,4.631386560E-1,9.752023198E0
1.580710775E1,-6.388864288E0,7.700057375E0,5.221463810E-1,1.001903724E1
1.581717475E1,-6.297243097E0,7.913265569E0,4.595835489E-1,1.012354975E1
1.582724275E1,-6.136764509E0,8.056603044E0,3.934164566E-1,1.013526062E1
1.583731075E1,-5.613659733E0,8.163327593E0,-8.617392540E-2,9.907599050E0
1.584737775E1,-4.763253552E0,8.561986663E0,-4.866561574E-1,9.809843742E0
1.585744575E1,-4.015294098E0,8.696331121E0,-6.632397312E-1,9.601491999E0
1.586751275E1,-3.165952111E0,8.132953647E0,-8.022584528E-1,8.764234502E0
1.587758075E1,-2.021497641E0,7.037614619E0,-8.958764684E-1,7.376792453E0
1.588764775E1,-3.007094371E-1,5.153814229E0,-7.799027932E-1,5.221156542E0
1.589771575E1,1.672504236E0,1.671553479E0,-4.344142091E-1,2.404179103E0
1.590778275E1,4.113198123E0,-3.564610596E0,-8.816548705E-2,5.443585276E0
1.591785075E1,6.778292944E0,-1.020783988E1,5.679447341E-1,1.226653217E1
1.592791775E1,9.087418047E0,-1.642575964E1,1.799877058E0,1.885805674E1
1.593798575E1,1.113523868E1,-2.043836695E1,3.615608257E0,2.355404439E1
1.594805275E1,1.249927832E1,-2.211016075E1,4.838510141E0,2.585541234E1
1.595812075E1,1.425489313E1,-2.306573144E1,5.476366525E0,2.766261982E1
1.596818775E1,1.580719206E1,-2.522772773E1,4.466442454E0,3.010406410E1
1.597825575E1,1.441256330E1,-2.526597320E1,2.615045578E0,2.920496269E1
1.598832275E1,1.217607347E1,-2.189521710E1,1.492738023E0,2.509752107E1
1.599839075E1,1.129167275E1,-1.901962427E1,3.991133988E-1,2.212255122E1
1.600845875E1,1.069864580E1,-1.714352992E1,-4.717592061E-1,2.021346573E1
1.601852575E1,9.253711690E0,-1.531277606E1,-1.040665222E0,1.792192163E1
1.602859375E1,6.954112287E0,-1.339096117E1,-1.178817387E0,1.513496379E1
1.603866075E1,4.769498963E0,-1.034709950E1,-7.323883188E-1,1.141696024E1
1.604872875E1,3.133819907E0,-6.323336881E0,-2.511963844E-2,7.057339975E0
1.605879575E1,1.828041342E0,-1.907488046E0,5.026640797E-1,2.689408293E0
1.606886375E1,3.562883914E-2,2.416685219E0,5.827785355E-1,2.486215535E0
1.607893075E1,-1.655450832E0,6.226557276E0,3.680085504E-1,6.453368366E0
1.608899875E1,-3.247538896E0,9.347310995E0,-4.654593794E-1,9.906330509E0
1.609906575E1,-4.658441042E0,1.191610627E1,-1.819123753E0,1.292299782E1
1.610913375E1,-5.470750859E0,1.345800534E1,-2.908041953E0,1.481565829E1
1.611920075E1,-5.914828176E0,1.344494500E1,-4.209713434E0,1.527983722E1
1.612926875E1,-6.028516760E0,1.250745624E1,-5.647582355E0,1.498915149E1
1.613933575E1,-6.657605828E0,1.181073009E1,-6.547566492E0,1.505615115E1
1.614940375E1,-6.842307091E0,1.119120355E1,-6.673123754E0,1.471702361E1
1.615947175E1,-6.459920238E0,1.033247679E1,-6.122843458E0,1.363744324E1
1.616953875E1,-5.707466614E0,9.729360464E0,-5.342682218E0,1.248118117E1
1.617960675E1,-4.750888445E0,9.207192997E0,-4.534969482E0,1.130969903E1
1.618967375E1,-3.857432140E0,8.627160314E0,-3.356464922E0,1.002863573E1
1.619974175E1,-3.032286515E0,8.541814939E0,-1.621896585E0,9.208035213E0
1.620980875E1,-3.047244862E0,8.454105535E0,-5.446155131E-1,9.003011035E0
1.621987675E1,-3.331687930E0,7.969243303E0,3.862377842E-2,8.637735530E0
1.622994375E1,-3.554447551E0,7.735627157E0,6.745061463E-1,8.539846805E0
1.624001175E1,-3.598064271E0,7.719928553E0,1.416321931E0,8.634195456E0
1.625007875E1,-3.573156302E0,7.760523432E0,2.044186592E0,8.784752058E0
1.626014675E1,-3.724218534E0,7.920600316E0,2.552135385E0,9.116968141E0
1.627021375E1,-3.960708586E0,8.199642895E0,2.619170204E0,9.475305202E0
1.628028175E1,-4.068968614E0,8.526196441E0,2.252798874E0,9.712241456E0
1.629034875E1,-4.046966127E0,8.902741342E0,1.734858359E0,9.932093020E0
1.630041675E1,-4.065928647E0,9.232199784E0,8.892258453E-1,1.012699418E1
1.631048475E1,-4.130476061E0,9.497042985E0,-3.048556978E-1,1.036086845E1
1.632055175E1,-4.166951576E0,9.441450582E0,-1.216274650E0,1.039152532E1
1.633061975E1,-3.857612234E0,9.117775036E0,-1.804418006E0,1.006334527E1
1.634068675E1,-3.833778398E0,8.218066887E0,-2.203148997E0,9.332113676E0
1.635075475E1,-3.836943496E0,7.327209084E0,-2.075492585E0,8.527473120E0
1.636082175E1,-3.042653044E0,5.738062170E0,-1.498082378E0,6.665384146E0
1.637088975E1,-1.707745405E0,2.121832353E0,-1.097033551E0,2.936332664E0
1.638095675E1,5.338192141E-1,-2.913830697E0,-5.566525912E-1,3.014172256E0
1.639102475E1,4.575357370E0,-9.900745279E0,5.530811119E-1,1.092083105E1
1.640109175E1,9.468505064E0,-1.802453926E1,1.859157300E0,2.044487881E1
1.641115975E1,1.256754807E1,-2.317286646E1,2.392414012E0,2.646976859E1
1.642122675E1,1.540191803E1,-2.480321520E1,2.480346780E0,2.930137682E1
1.643129475E1,1.751213957E1,-2.552195027E1,2.883361441E0,3.108631131E1
1.644136175E1,1.911991571E1,-2.741228024E1,2.825186323E0,3.354081041E1
1.645142975E1,1.727884736E1,-2.682667692E1,2.371711360E0,3.199772141E1
1.646149775E1,1.323476683E1,-2.331920590E1,2.062110647E0,2.689231707E1
1.647156475E1,1.056509306E1,-2.023336824E1,2.008222708E0,2.291382422E1
1.648163275E1,8.313516836E0,-1.836132134E1,1.668411770E0,2.022464540E1
1.649169975E1,6.137710589E0,-1.675036782E1,1.244497991E0,1.788281546E1
1.650176775E1,3.709295270E0,-1.383109044E1,1.117644986E0,1.436339321E1
1.651183475E1,1.347483246E0,-9.828902879E0,1.115869771E0,9.983396629E0
1.652190275E1,-3.298566377E-1,-5.164654967E0,9.759961867E-1,5.266406259E0
1.653196975E1,-1.204429361E0,-4.944265223E-1,5.222580993E-1,1.402804759E0
1.654203775E1,-2.072111140E0,3.646370459E0,-1.708860469E-1,4.197483072E0
1.655210475E1,-3.081578543E0,6.938315449E0,-1.186720483E0,7.684051867E0
1.656217275E1,-4.344871239E0,9.539599020E0,-2.124804493E0,1.069563695E1
1.657223975E1,-5.642463702E0,1.091158502E1,-3.376975200E0,1.273986051E1
1.658230775E1,-6.654721397E0,1.095911587E1,-4.387003351E0,1.355113781E1
1.659237475E1,-7.270917354E0,1.060047807E1,-4.827187593E0,1.373091820E1
1.660244275E1,-7.472229972E0,1.041382325E1,-4.758322011E0,1.367199926E1
1.661251075E1,-7.177012240E0,1.025475793E1,-4.683368307E0,1.336426218E1
1.662257775E1,-6.169308942E0,1.001182366E1,-4.163887635E0,1.247537359E1
1.663264575E1,-4.997678368E0,9.951237155E0,-3.534073513E0,1.168304693E1
1.664271275E1,-3.487201062E0,9.905632381E0,-3.059842688E0,1.093822478E1
1.665278075E1,-2.302907174E0,1.009207904E1,-1.926063480E0,1.052915767E1
1.666284775E1,-2.030266126E0,1.035940321E1,-7.403744459E-1,1.058240851E1
1.667291575E1,-2.548330017E0,1.013983910E1,-2.405779322E-2,1.045518539E1
1.668298275E1,-3.394436156E0,9.467719198E0,5.845204210E-1,1.007479865E1
1.669305075E1,-4.354830801E0,8.948943701E0,1.279017613E0,1.003414325E1
1.670311775E1,-5.097435960E0,8.609916290E0,1.601313801E0,1.013305076E1
1.671318575E1,-5.731382310E0,8.173078995E0,1.860904448E0,1.015435516E1
1.672325275E1,-6.049261512E0,7.828726525E0,1.995130792E0,1.009272365E1
1.673332075E1,-6.130464719E0,7.979556622E0,1.852940540E0,1.023177942E1
1.674338775E1,-5.999902241E0,8.458259981E0,1.358387718E0,1.045878607E1
1.675345575E1,-5.704690356E0,9.050948378E0,2.806909096E-1,1.070242711E1
1.676352304E1,-5.095783537E0,9.589716675E0,-9.117411339E-1,1.089774966E1
1.677359104E1,-4.590385884E0,9.964360646E0,-1.870072297E0,1.112911928E1
