"Time (s)","Linear Acceleration x (m/s^2)","Linear Acceleration y (m/s^2)","Linear Acceleration z (m/s^2)","Absolute acceleration (m/s^2)"
5.414999992E-3,6.171516851E0,8.261783595E0,2.275362578E1,2.498143660E1
1.548300000E-2,5.737284490E0,8.336126264E0,2.311024980E1,2.522877485E1
2.555100000E-2,4.808000832E0,7.629835238E0,2.238991025E1,2.413792325E1
3.561799999E-2,3.076855162E0,6.661578426E0,1.925799420E1,2.060859057E1
4.568600000E-2,9.788500665E-1,6.010935937E0,1.407469714E1,1.533579466E1
5.575400000E-2,-3.776642038E-1,5.067552010E0,8.212024959E0,9.657125222E0
6.582100000E-2,-5.906614593E-1,3.543098105E0,2.994909943E0,4.676741463E0
7.588900000E-2,-2.905373284E-1,2.018613210E0,-4.830525184E-1,2.095841350E0
8.595699999E-2,4.226557508E-2,3.438794303E-1,-2.895464008E0,2.916119213E0
9.602400000E-2,-8.732392654E-2,-1.369090462E0,-5.235701560E0,5.412449075E0
1.060920000E-1,-1.372277194E-1,-2.741385198E0,-7.339208740E0,7.835688175E0
1.161590000E-1,-5.498924790E-1,-3.690324563E0,-8.312875396E0,9.111793153E0
1.262270000E-1,-1.729800371E0,-4.695205995E0,-8.574541805E0,9.927735685E0
1.362950000E-1,-3.306420942E0,-5.731799802E0,-8.743405300E0,1.096508480E1
1.463620000E-1,-4.489047790E0,-5.694343708E0,-8.922241806E0,1.149710830E1
1.564300000E-1,-4.625305456E0,-5.128158985E0,-9.733395628E0,1.193442314E1
1.664980000E-1,-4.539909795E0,-4.716675802E0,-1.124012955E1,1.300762560E1
1.765650000E-1,-3.828075901E0,-4.204445093E0,-1.300123021E1,1.419026112E1
1.866330000E-1,-3.097520977E0,-3.627771050E0,-1.441174702E1,1.518070523E1
1.967010000E-1,-2.757107483E0,-3.326110856E0,-1.521882885E1,1.582015823E1
2.067680000E-1,-2.762493939E0,-3.678786253E0,-1.476920837E1,1.546914208E1
2.168360000E-1,-2.825834487E0,-4.070024621E0,-1.279833416E1,1.372398624E1
2.269030000E-1,-2.674281381E0,-4.226794320E0,-1.084524485E1,1.194306942E1
2.369710000E-1,-2.585755121E0,-4.556820527E0,-9.428821766E0,1.078672438E1
2.470390000E-1,-2.653369399E0,-4.962933628E0,-8.046710140E0,9.819400360E0
2.571060000E-1,-2.664420637E0,-4.908874950E0,-6.885118065E0,8.865722835E0
2.671740000E-1,-2.335624392E0,-4.708583255E0,-6.089596190E0,8.044195381E0
2.772420000E-1,-1.243612284E0,-4.349237940E0,-5.621115518E0,7.215218765E0
2.873090000E-1,-3.059991208E-1,-3.662205303E0,-5.609161470E0,6.705824002E0
2.973770000E-1,1.458928545E-1,-3.424560426E0,-5.919429935E0,6.840215610E0
3.074440000E-1,4.628069727E-1,-3.238259949E0,-6.048499619E0,6.876399162E0
3.175120000E-1,3.052958469E-1,-2.949799844E0,-5.658386840E0,6.388416572E0
3.275800000E-1,-1.660846058E-1,-2.809889422E0,-4.766632074E0,5.535688212E0
3.376470000E-1,-1.904533155E-1,-2.972599892E0,-3.244938054E0,4.404798016E0
3.477150000E-1,-5.579777165E-1,-2.354484878E0,-1.011950131E0,2.622781203E0
3.577830000E-1,-1.026219238E0,-4.058382815E-1,1.730744258E0,2.052633996E0
3.678500000E-1,-9.787319528E-1,2.098791400E0,3.641275195E0,4.315289865E0
3.779180000E-1,-4.377639328E-1,4.906393976E0,5.175010386E0,7.144583375E0
3.879860000E-1,6.796303537E-1,7.611560935E0,7.866213609E0,1.096699931E1
3.980530000E-1,3.483683670E0,9.257884263E0,1.293864629E1,1.628659083E1
4.081210000E-1,6.301312174E0,1.006559115E1,1.923466381E1,2.260519746E1
4.181880000E-1,7.033059053E0,9.235304655E0,2.512545291E1,2.767748464E1
4.282560000E-1,6.026769612E0,7.876703514E0,2.839086090E1,3.007333358E1
4.383240000E-1,5.049824422E0,7.996407713E0,2.710158259E1,2.870433838E1
4.483910000E-1,6.085080385E0,8.016843731E0,2.250469811E1,2.465277721E1
4.584590000E-1,8.050049484E0,7.130745562E0,1.726325166E1,2.033889591E1
4.685270000E-1,8.533286190E0,6.282703410E0,1.272237416E1,1.655741947E1
4.785940000E-1,6.088904464E0,5.244371227E0,8.933680129E0,1.201619024E1
4.886620000E-1,2.585183556E0,3.348938971E0,6.757737642E0,7.972802787E0
4.987300000E-1,7.626611084E-2,1.025047309E0,5.514202688E0,5.609186197E0
5.087970000E-1,-1.180224227E0,-6.324021006E-1,3.540170989E0,3.784926984E0
5.188650000E-1,-1.188395711E0,-1.472582670E0,1.158900601E0,2.218971538E0
5.289320000E-1,-8.235519657E-1,-1.832240227E0,-6.344854635E-1,2.106635682E0
5.390000000E-1,-3.669399717E-1,-2.139505563E0,-1.727975017E0,2.774531790E0
5.490680000E-1,-2.862146281E-1,-2.485823574E0,-3.120630342E0,3.999946423E0
5.591350000E-1,-7.508912480E-1,-2.961018604E0,-5.261228165E0,6.083748075E0
5.692030000E-1,-1.400583419E0,-3.269451044E0,-7.377002218E0,8.189695096E0
5.792710000E-1,-2.299194338E0,-3.514097377E0,-8.987738807E0,9.920414500E0
5.893380000E-1,-3.252782679E0,-3.864541769E0,-1.023904997E1,1.141724234E1
5.994060000E-1,-3.711624801E0,-4.332097996E0,-1.097824211E1,1.237194534E1
6.094740000E-1,-3.680198063E0,-4.599199685E0,-1.105284908E1,1.252445481E1
6.195413333E-1,-3.522973743E0,-4.662761550E0,-1.054954999E1,1.206008682E1
6.296093333E-1,-3.539486865E0,-4.673406991E0,-1.011539072E1,1.169144258E1
6.396763333E-1,-3.800247248E0,-4.964604177E0,-1.024011300E1,1.199787848E1
6.497443333E-1,-3.894660484E0,-5.332977009E0,-1.054878985E1,1.244532006E1
6.598123333E-1,-3.850295613E0,-5.337405691E0,-1.088607245E1,1.272081952E1
6.698793333E-1,-3.246039962E0,-5.111015534E0,-1.073308239E1,1.232308049E1
6.799473333E-1,-2.545157318E0,-4.775685318E0,-1.031127829E1,1.164506144E1
6.900153333E-1,-2.398048827E0,-4.468625804E0,-9.867950585E0,1.109485031E1
7.000823333E-1,-2.053993542E0,-4.142222240E0,-9.273108659E0,1.036182603E1
7.101503333E-1,-1.327088011E0,-3.610258055E0,-8.126753259E0,8.991064695E0
7.202183333E-1,-9.761751115E-1,-3.059390406E0,-6.744206600E0,7.469746326E0
7.302853333E-1,-7.781501634E-1,-2.488895701E0,-5.918124252E0,6.467172037E0
7.403533333E-1,-3.594077347E-1,-2.130741756E0,-6.325380483E0,6.684285497E0
7.504203333E-1,1.983613823E-1,-2.084145294E0,-6.615149195E0,6.938530660E0
7.604883333E-1,6.430088036E-1,-2.081173155E0,-5.963519111E0,6.348881965E0
7.705563333E-1,1.470512756E0,-1.695719436E0,-4.944738847E0,5.430314396E0
7.806233333E-1,2.541391711E0,-8.841972399E-1,-3.425277879E0,4.355801320E0
7.906913333E-1,2.983761350E0,2.757351020E-1,-1.262712652E0,3.251661864E0
8.007593333E-1,2.421293410E0,1.857187958E0,1.278129421E0,3.308386873E0
8.108263333E-1,7.329310866E-1,3.405142407E0,4.427563732E0,5.633427322E0
8.208943333E-1,-1.579435713E0,4.626891806E0,7.591117315E0,9.029275001E0
8.309623333E-1,-2.890987380E0,5.768552476E0,9.527183043E0,1.150657301E1
8.410293333E-1,-1.493977048E0,7.454427540E0,9.744783080E0,1.235966240E1
8.510973333E-1,2.203504800E0,9.006755122E0,9.282324455E0,1.312016077E1
8.611643333E-1,5.523378139E0,1.002417649E1,9.810327444E0,1.507429418E1
8.712323333E-1,6.072243408E0,9.943815869E0,1.234043988E1,1.697168437E1
8.813003333E-1,4.440304523E0,8.551636507E0,1.532756835E1,1.810472708E1
8.913673333E-1,3.028356017E0,7.093442080E0,1.800451021E1,1.958699182E1
9.014353333E-1,2.460532613E0,6.291766010E0,1.945102833E1,2.059084854E1
9.115033333E-1,1.722005887E0,5.554384754E0,1.808864813E1,1.900041277E1
9.215703333E-1,2.137460645E-1,4.843645459E0,1.427077767E1,1.507188389E1
9.316383333E-1,-9.912896524E-1,3.924380127E0,9.718798639E0,1.052798469E1
9.417063333E-1,-2.791288260E-1,2.781229587E0,5.761789586E0,6.404012035E0
9.517733333E-1,7.474751584E-1,1.844586039E0,2.991860620E0,3.593389311E0
9.618413333E-1,1.492162803E0,6.167768785E-1,1.484012223E0,2.193001556E0
9.719083333E-1,1.432525443E0,-6.019275820E-1,4.141629624E-1,1.608097297E0
9.819763333E-1,5.740696925E-1,-1.543493609E0,-4.421547532E-1,1.705118576E0
9.920443333E-1,-3.275130737E-1,-2.247752435E0,-1.389585537E0,2.662818767E0
1.002111333E0,-9.744270864E-1,-2.640055874E0,-2.544557979E0,3.793966061E0
1.012179333E0,-9.504592033E-1,-2.633409929E0,-3.991995283E0,4.875884216E0
1.022247333E0,-5.070674716E-1,-2.033206691E0,-5.516587182E0,5.901167766E0
1.032314333E0,-1.751887205E-1,-1.455821919E0,-7.032371421E0,7.183617219E0
1.042382333E0,-5.638046131E-2,-1.124030145E0,-8.746509587E0,8.818619647E0
1.052450333E0,-1.221771325E-1,-1.077457950E0,-1.023839742E1,1.029566048E1
1.062517333E0,-6.244824855E-1,-1.344357324E0,-1.129467354E1,1.139152867E1
1.072585333E0,-1.249631554E0,-1.732826744E0,-1.204425034E1,1.223226200E1
1.082652333E0,-1.462305897E0,-2.197867499E0,-1.218264575E1,1.246538477E1
1.092720333E0,-1.653311774E0,-2.711733382E0,-1.174342279E1,1.216531613E1
1.102788333E0,-1.959371852E0,-3.191405041E0,-1.094610582E1,1.156898598E1
1.112855333E0,-2.030583922E0,-3.550531086E0,-1.030687066E1,1.108878374E1
1.122923333E0,-1.672298706E0,-3.872776403E0,-9.604503114E0,1.049006483E1
1.132991333E0,-1.155607303E0,-4.074663510E0,-8.760001452E0,9.730156031E0
1.143058333E0,-7.399524231E-1,-4.189844595E0,-7.827070593E0,8.908723892E0
1.153126333E0,-7.898623556E-1,-4.484121803E0,-7.247047850E0,8.558675916E0
1.163194333E0,-6.515524627E-1,-4.767074708E0,-7.134273772E0,8.605078973E0
1.173261333E0,2.906709373E-2,-4.317002825E0,-7.102529823E0,8.311635709E0
1.183329333E0,5.336503758E-1,-3.884019137E0,-7.038896329E0,8.057074463E0
1.193396333E0,6.267884812E-1,-4.149583592E0,-6.821865225E0,8.009354090E0
1.203464333E0,4.748200773E-1,-4.146031408E0,-6.078076590E0,7.372790895E0
1.213532333E0,3.248502517E-1,-3.910921884E0,-4.431265604E0,5.919202017E0
1.223599333E0,1.756988901E-1,-3.713413464E0,-2.924246927E0,4.729855150E0
1.233667333E0,4.127374113E-1,-2.522736170E0,-1.329583749E0,2.881378645E0
1.243735333E0,1.753395787E-1,-3.840720212E-1,3.791393101E-2,4.239018183E-1
1.253802333E0,-4.345573197E-1,1.685614278E0,8.574357033E-1,1.940446223E0
1.263870333E0,-1.054909917E0,3.913137978E0,2.899812582E0,4.983412163E0
1.273938333E0,-1.396132372E0,5.855004144E0,7.473412279E0,9.595944467E0
1.284005333E0,5.238038108E-2,6.970493261E0,1.263056468E1,1.442642313E1
1.294073333E0,1.296072333E0,8.052959644E0,1.561392755E1,1.761603519E1
1.304140333E0,6.105636272E-1,8.671362925E0,1.695921048E1,1.905728583E1
1.314208333E0,-1.031536403E0,8.377866613E0,1.811785965E1,1.998773511E1
1.324276333E0,-1.411966340E0,7.764529359E0,1.850839285E1,2.012069012E1
1.334343333E0,-9.617833596E-1,7.252402146E0,1.810497239E1,1.952722175E1
1.344411333E0,-4.676918098E-1,7.067013835E0,1.768320337E1,1.904880840E1
1.354479333E0,6.501981745E-1,6.697558683E0,1.754771871E1,1.879368196E1
1.364546333E0,9.215401903E-1,5.980514628E0,1.656676291E1,1.763727374E1
1.374614333E0,8.830041155E-2,4.738315178E0,1.376468011E1,1.455767310E1
1.384681333E0,-3.785556849E-1,3.516274296E0,9.874995310E0,1.048918594E1
1.394749333E0,3.640732281E-1,2.223259910E0,6.208867695E0,6.604958137E0
1.404817333E0,1.372896414E0,1.195471426E0,2.907201709E0,3.430133856E0
1.414884333E0,1.451325703E0,9.214013189E-2,2.283817184E-1,1.472071435E0
1.424952333E0,7.392495147E-1,-1.024878033E0,-2.113260335E0,2.462261983E0
1.435020333E0,-2.989494252E-1,-1.854384510E0,-4.569231243E0,4.940241575E0
1.445087333E0,-7.283022114E-1,-2.231898879E0,-6.868803164E0,7.258943010E0
1.455155333E0,-3.571540716E-1,-2.162477519E0,-8.703616167E0,8.975344140E0
1.465223333E0,-3.306965902E-2,-2.017091179E0,-9.896997213E0,1.010051010E1
1.475290333E0,-3.015545060E-1,-2.147399889E0,-1.071299019E1,1.093025252E1
1.485358333E0,-3.636827803E-1,-2.357847612E0,-1.142405371E1,1.167050615E1
1.495425333E0,2.323712736E-2,-2.294210610E0,-1.164498140E1,1.186884721E1
1.505493333E0,1.508771673E-1,-2.212897182E0,-1.141458356E1,1.162808651E1
1.515561333E0,-1.347322740E-1,-2.527737001E0,-1.122811235E1,1.150991373E1
1.525628333E0,-6.843243523E-1,-2.747147044E0,-1.088384349E1,1.124602889E1
1.535696333E0,-9.719913556E-1,-2.969093024E0,-1.040365611E1,1.086261207E1
1.545764333E0,-1.010794429E0,-3.206358125E0,-9.643232147E0,1.021246121E1
1.555831333E0,-1.028629606E0,-3.256436311E0,-8.481449454E0,9.143163629E0
1.565899333E0,-1.012314997E0,-3.319790308E0,-7.339397020E0,8.118653704E0
1.575967333E0,-1.649232610E0,-3.537502320E0,-6.805365552E0,7.845182673E0
1.586034333E0,-1.937338082E0,-3.653493244E0,-6.863985643E0,8.013463087E0
1.596102333E0,-1.018846045E0,-3.107791026E0,-6.659717842E0,7.419451062E0
1.606169333E0,1.354815947E-1,-2.492511912E0,-6.295839765E0,6.772633848E0
1.616237333E0,9.862998578E-1,-2.128909531E0,-5.901912262E0,6.351189774E0
1.626305958E0,1.885558210E0,-2.117164521E0,-5.368135732E0,6.070798680E0
1.636372958E0,2.237325680E0,-2.043278520E0,-5.270114179E0,6.079039132E0
1.646440958E0,1.818918955E0,-2.333676099E0,-5.136569036E0,5.927803283E0
1.656508958E0,1.229714475E0,-2.725393648E0,-4.859679401E0,5.705826154E0
1.666575958E0,3.618312594E-1,-2.882374431E0,-4.335760692E0,5.218986971E0
1.676643958E0,-2.079218723E-1,-2.627957108E0,-3.294194414E0,4.219135800E0
1.686711958E0,-5.733389367E-1,-1.084349186E0,-1.060756840E0,1.621646005E0
1.696778958E0,-9.529770143E-1,-8.680483997E-2,8.920646685E-1,1.308235316E0
1.706846958E0,-1.174529331E0,8.518042499E-1,1.993139230E0,2.465297876E0
1.716913958E0,-1.346938139E0,2.928676777E0,3.168465829E0,4.520018333E0
1.726981958E0,1.857821211E-2,5.259314371E0,5.770318335E0,7.807516026E0
1.737049958E0,2.992290098E0,7.112848989E0,9.209175203E0,1.201479624E1
1.747116958E0,4.818889225E0,8.693316296E0,1.250874496E1,1.597698789E1
1.757184958E0,3.603241396E0,9.003723341E0,1.515899078E1,1.799570460E1
1.767252958E0,7.263256332E-1,7.436840869E0,1.757691035E1,1.909926513E1
1.777319958E0,-1.755102297E0,5.154595417E0,1.933760755E1,2.008963175E1
1.787387958E0,-3.185354050E0,4.560689922E0,2.081491594E1,2.154546585E1
1.797454958E0,-2.640384488E0,4.570836303E0,2.222330905E1,2.284162078E1
1.807522958E0,-1.942330873E0,4.239407934E0,2.206486120E1,2.255223555E1
1.817590958E0,-2.059761528E0,4.012025797E0,1.938832162E1,1.990592836E1
1.827657958E0,-1.669436787E0,3.704897579E0,1.455869574E1,1.511518795E1
1.837725958E0,-2.209271032E-1,3.283341105E0,8.541392185E0,9.153388337E0
1.847793958E0,1.040654405E0,2.735676561E0,2.906844444E0,4.125122114E0
1.857860958E0,1.076912112E0,1.864770919E0,-1.529773702E0,2.641461311E0
1.867928958E0,1.416062607E-1,4.996255741E-1,-4.296914715E0,4.328181387E0
1.877996958E0,-1.010925553E0,-1.110316086E0,-5.686338869E0,5.881260241E0
1.888063958E0,-1.694221818E0,-2.409023320E0,-6.800399512E0,7.410749925E0
1.898131958E0,-1.683902506E0,-2.960702270E0,-8.105870513E0,8.792407086E0
1.908198958E0,-8.212328137E-1,-2.990737078E0,-9.253871319E0,9.759767723E0
1.918266958E0,2.826627004E-1,-2.771681668E0,-9.739861479E0,1.013049945E1
1.928334958E0,7.161991328E-1,-2.500262981E0,-9.524765804E0,9.873470504E0
1.938401958E0,4.904151861E-1,-2.432477379E0,-8.956571978E0,9.293956900E0
1.948469958E0,2.115595713E-1,-2.401841770E0,-8.291616089E0,8.635073753E0
1.958537958E0,1.828292772E-2,-2.317390142E0,-7.848411176E0,8.183409395E0
1.968604958E0,1.215834939E-1,-2.265778524E0,-7.972024823E0,8.288649748E0
1.978672958E0,3.809569171E-1,-2.227695608E0,-8.564633113E0,8.857804257E0
1.988739958E0,3.437984464E-1,-2.395659801E0,-9.135644127E0,9.450787103E0
1.998807958E0,9.741633039E-2,-2.689151728E0,-9.250299255E0,9.633746066E0
2.008875958E0,-2.275353705E-1,-3.113544394E0,-8.962788153E0,9.490916843E0
2.018942958E0,-4.452346279E-1,-3.406020952E0,-8.680077615E0,9.335039368E0
2.029010958E0,-5.193596345E-1,-3.378621191E0,-8.311198999E0,8.986703756E0
2.039078958E0,-6.132305422E-1,-3.570060201E0,-7.883969849E0,8.676310398E0
2.049145958E0,-1.003706873E0,-3.970833625E0,-7.764247524E0,8.778296348E0
2.059213958E0,-1.267935385E0,-4.068545276E0,-8.156278190E0,9.202477640E0
2.069281958E0,-5.945963796E-1,-3.671983310E0,-7.709312932E0,8.559819634E0
2.079348958E0,3.462824897E-1,-3.571871961E0,-6.317911835E0,7.265961108E0
2.089416958E0,8.355611233E-1,-3.669189802E0,-5.582857770E0,6.732712461E0
2.099483958E0,1.063274213E0,-3.361007624E0,-5.473258730E0,6.510260012E0
2.109551958E0,1.190818651E0,-2.845281157E0,-5.432222970E0,6.246816815E0
2.119619958E0,1.511368860E0,-2.533353544E0,-5.274899540E0,6.043730732E0
2.129686958E0,1.469161318E0,-2.419248639E0,-4.380932772E0,5.215723431E0
2.139754958E0,2.048124509E-1,-1.516191497E0,-1.952897522E0,2.480845326E0
2.149822958E0,-1.229971314E0,5.004602641E-2,1.193019104E0,1.714242871E0
2.159889958E0,-1.635453208E0,1.388758156E0,4.151332494E0,4.672998811E0
2.169957958E0,-1.598580227E0,3.319301773E0,6.801293551E0,7.735038266E0
2.180024958E0,-6.559054224E-1,5.836033437E0,9.585062876E0,1.124112666E1
2.190092958E0,1.755337355E0,7.674833071E0,1.246773727E1,1.474546522E1
2.200160958E0,2.991310105E0,8.707674719E0,1.440899182E1,1.709943216E1
2.210227958E0,2.139245069E0,8.743939735E0,1.571257241E1,1.810850031E1
2.220295958E0,5.645261595E-1,7.466728912E0,1.841625476E1,1.988037147E1
2.230363958E0,-1.146545580E0,6.481792917E0,2.004026746E1,2.109361339E1
2.240430958E0,-1.600443589E0,6.093973415E0,1.905169391E1,2.006651371E1
2.250498958E0,-8.869694048E-1,5.917483397E0,1.699716008E1,1.801962195E1
2.260565958E0,3.480930801E-1,5.346868240E0,1.497463859E1,1.590440096E1
2.270633958E0,2.079277634E0,5.087509142E0,1.330098187E1,1.439174289E1
2.280701958E0,2.797823400E0,4.461186976E0,1.144540775E1,1.259870483E1
2.290768958E0,2.341643954E0,2.831168609E0,8.651805158E0,9.399603428E0
2.300836958E0,1.974711584E0,1.035123816E0,5.412254144E0,5.853499985E0
2.310904958E0,1.655821253E0,-4.878089359E-1,2.466015839E0,3.010138817E0
2.320971958E0,9.153254771E-1,-1.724955222E0,2.294552672E-1,1.966199626E0
2.331039958E0,4.395980582E-1,-2.550020447E0,-1.220249003E0,2.860919147E0
2.341107958E0,2.198507769E-1,-3.085782691E0,-2.260272785E0,3.831347315E0
2.351174958E0,-3.990465944E-1,-3.491241488E0,-3.351307093E0,4.855848489E0
2.361242958E0,-1.190421186E0,-3.568107816E0,-4.659820400E0,5.988524205E0
2.371309958E0,-1.788211863E0,-3.437302678E0,-5.980875401E0,7.126262831E0
2.381377958E0,-1.967031266E0,-3.270787717E0,-7.207321283E0,8.155534585E0
2.391445958E0,-1.481524525E0,-3.241505738E0,-8.391849060E0,9.117313476E0
2.401512958E0,-8.406477624E-1,-3.132490250E0,-9.094513643E0,9.655535315E0
2.411580958E0,-4.751836279E-1,-2.847166591E0,-9.438225258E0,9.869764592E0
2.421648958E0,-3.160709497E-1,-2.760164115E0,-9.824766558E0,1.021001688E1
2.431715958E0,-3.997302800E-1,-2.724223912E0,-1.052862748E1,1.088270081E1
2.441783958E0,-6.853749508E-1,-3.005118305E0,-1.112866407E1,1.154762482E1
2.451850958E0,-1.038452344E0,-3.460445081E0,-1.138843482E1,1.194778268E1
2.461918958E0,-1.250071703E0,-3.811057872E0,-1.126087664E1,1.195383553E1
2.471986958E0,-1.434844594E0,-4.155619673E0,-1.078126111E1,1.164317590E1
2.482053958E0,-1.577900088E0,-4.484722019E0,-9.988853463E0,1.106253559E1
2.492121958E0,-1.260719629E0,-4.735829526E0,-8.930778741E0,1.018706553E1
2.502189958E0,-8.298276360E-1,-4.995751711E0,-7.798637338E0,9.298650084E0
2.512256958E0,-3.142804227E-1,-5.248384756E0,-6.790793706E0,8.588317291E0
2.522324958E0,2.074642911E-1,-5.513520318E0,-6.613143600E0,8.612526691E0
2.532391958E0,1.380015984E-1,-5.606921986E0,-7.420060530E0,9.301285764E0
2.542459958E0,-3.773531319E-1,-5.649317808E0,-8.390232890E0,1.012191657E1
2.552527958E0,-6.569193296E-1,-5.493314095E0,-8.228097201E0,9.915121093E0
2.562594958E0,-5.922144797E-1,-5.088431833E0,-6.844899162E0,8.549590695E0
2.572662958E0,-3.437542268E-1,-4.427601154E0,-5.315113766E0,6.926200495E0
2.582730958E0,1.863168490E-1,-3.506751228E0,-4.035846477E0,5.349773353E0
2.592797958E0,9.783964688E-1,-1.545200996E0,-2.231276443E0,2.885047718E0
2.602865958E0,2.372174021E0,1.810727736E0,-1.435438818E-1,2.987733149E0
2.612933958E0,3.425328750E0,4.789107601E0,2.263484076E0,6.308073305E0
2.623000250E0,2.719384464E0,6.979093931E0,5.991539553E0,9.591733429E0
2.633068250E0,1.599603929E0,8.281142557E0,1.122492679E1,1.404047849E1
2.643135250E0,1.355571699E0,8.269769138E0,1.690300003E1,1.886632095E1
2.653203250E0,1.066899779E0,8.598857451E0,2.096215351E1,2.268238313E1
2.663271250E0,3.820406985E-1,9.497911881E0,2.174115466E1,2.372833941E1
2.673338250E0,-1.791160029E-1,9.539602529E0,2.019715059E1,2.233743474E1
2.683406250E0,6.022542587E-2,9.179955497E0,1.840738103E1,2.056956213E1
2.693474250E0,-9.756505067E-2,8.534124681E0,1.735446472E1,1.933955141E1
2.703541250E0,-1.672381152E-1,7.909552002E0,1.757935565E1,1.927751868E1
2.713609250E0,2.153287962E-1,7.095392711E0,1.766046472E1,1.903373264E1
2.723676250E0,5.867068411E-1,6.387903006E0,1.611965440E1,1.734914371E1
2.733744250E0,1.178522687E0,5.554401711E0,1.256917477E1,1.379218795E1
2.743812250E0,2.154855673E0,4.375934865E0,8.263503846E0,9.595712830E0
2.753879250E0,2.959489850E0,3.021993077E0,4.372957170E0,6.083894866E0
2.763947250E0,3.307861404E0,1.448932145E0,1.098701177E0,3.774717963E0
2.774015250E0,3.034782984E0,-1.956533906E-1,-1.548926842E0,3.412823226E0
2.784082250E0,1.854029584E0,-1.656501869E0,-3.490018836E0,4.285050246E0
2.794150250E0,3.915549955E-1,-3.058912689E0,-4.910288807E0,5.798378939E0
2.804217250E0,-7.986923821E-1,-3.850565462E0,-6.349059368E0,7.468287538E0
2.814285250E0,-1.477892966E0,-4.198588521E0,-7.429402626E0,8.660735337E0
2.824353250E0,-1.590204383E0,-4.320561440E0,-7.724204621E0,8.992182058E0
2.834420250E0,-1.164162802E0,-4.030249522E0,-8.070150458E0,9.095356763E0
2.844488250E0,-7.068386176E-1,-3.604905514E0,-9.010039503E0,9.730147812E0
2.854556250E0,-2.327402329E-1,-3.363799084E0,-1.020340067E1,1.074610150E1
2.864623250E0,-2.206429285E-1,-3.133142799E0,-1.117280237E1,1.160589418E1
2.874691250E0,-4.351107587E-1,-3.053656042E0,-1.181588499E1,1.221184977E1
2.884759250E0,-3.519556046E-1,-3.048741750E0,-1.229677638E1,1.267396577E1
2.894826250E0,-3.909816760E-1,-3.197368324E0,-1.219409342E1,1.261237271E1
2.904894250E0,-7.543703413E-1,-3.719939834E0,-1.144520075E1,1.205817761E1
2.914961250E0,-1.215786115E0,-4.136725565E0,-1.070581332E1,1.154145022E1
2.925029250E0,-1.532043884E0,-4.487766080E0,-1.004849740E1,1.111123318E1
2.935097250E0,-1.325904535E0,-4.751027317E0,-9.221389452E0,1.045773909E1
2.945164250E0,-1.004401960E0,-4.878463289E0,-8.425499786E0,9.787608186E0
2.955232250E0,-8.435617223E-1,-4.865414350E0,-8.060056994E0,9.452426774E0
2.965300250E0,-3.867142318E-1,-4.839787173E0,-7.532677903E0,8.961825940E0
2.975367250E0,-6.267601222E-2,-4.644898306E0,-6.649992753E0,8.111806961E0
2.985435250E0,2.608795197E-1,-4.330608711E0,-5.603270985E0,7.086527758E0
2.995502250E0,5.644149162E-1,-3.875883029E0,-4.562622135E0,6.013198333E0
3.005570250E0,7.704159781E-1,-3.372811106E0,-3.661758576E0,5.037645422E0
3.015638250E0,7.365117753E-1,-2.861857136E0,-3.028468283E0,4.231346831E0
3.025705250E0,7.277327657E-1,-2.442507693E0,-2.227913709E0,3.385120132E0
3.035773250E0,3.063407443E-1,-1.237982731E0,-8.222465748E-1,1.517410730E0
3.045841250E0,-6.061815776E-1,7.657317737E-1,7.629593164E-1,1.239317624E0
3.055908250E0,-1.244255624E0,2.301518168E0,1.956499992E0,3.266963445E0
3.065976250E0,-1.949258654E0,3.801406166E0,4.207545871E0,5.996143794E0
3.076043250E0,-2.471078358E0,5.452586483E0,8.368882366E0,1.028956363E1
3.086111250E0,-1.191903309E0,5.984600662E0,1.319471224E1,1.453741757E1
3.096179250E0,-9.339728326E-2,6.640733103E0,1.689112200E1,1.814987773E1
3.106246250E0,3.668838385E-1,7.660930731E0,1.926019977E1,2.073113018E1
3.116314250E0,-1.504218154E-1,7.947772912E0,2.019988709E1,2.170772119E1
3.126382250E0,-6.826179886E-1,7.103244937E0,1.934589890E1,2.062003541E1
3.136449250E0,-1.772283755E-1,6.369918725E0,1.834193197E1,1.941735675E1
3.146517250E0,9.386462197E-1,6.255241377E0,1.812526574E1,1.919724875E1
3.156584250E0,1.670729168E0,5.955242962E0,1.732425567E1,1.839527355E1
3.166652250E0,1.615854364E0,5.539407696E0,1.496235126E1,1.603645778E1
3.176720250E0,1.088836631E0,4.791232187E0,1.133539823E1,1.235446171E1
3.186787250E0,5.040723450E-1,3.649068656E0,7.589516932E0,8.436264473E0
3.196855250E0,1.534474571E-1,2.287173778E0,4.309830630E0,4.881531529E0
3.206923250E0,4.112067564E-1,9.863451737E-1,1.608740934E0,1.931324724E0
3.216990250E0,6.314017881E-1,-1.645125818E-1,-5.272738409E-1,8.388982721E-1
3.227058250E0,4.434092733E-1,-1.316893245E0,-2.521574913E0,2.879090072E0
3.237125250E0,1.122003208E-1,-2.325441173E0,-4.413938550E0,4.990302505E0
3.247193250E0,-1.328332445E-1,-2.938448060E0,-5.953905703E0,6.640867021E0
3.257261250E0,-1.471117431E-1,-3.352922971E0,-7.345127292E0,8.075557519E0
3.267328250E0,-2.745428547E-2,-3.390850643E0,-8.734911634E0,9.370021509E0
3.277396250E0,1.920444891E-2,-3.113590879E0,-9.943926966E0,1.042000482E1
3.287464250E0,1.201129192E-1,-3.044787278E0,-1.059428820E1,1.102379695E1
3.297531250E0,1.932833679E-1,-3.174828184E0,-1.098128851E1,1.143265454E1
3.307599250E0,-9.134637237E-2,-3.377551736E0,-1.147145241E1,1.195869643E1
3.317666250E0,-5.270115933E-1,-3.570461320E0,-1.213278069E1,1.265821087E1
3.327734250E0,-8.634890333E-1,-3.678439805E0,-1.258404774E1,1.313905592E1
3.337802250E0,-1.350129842E0,-3.970372279E0,-1.242764408E1,1.311613678E1
3.347869250E0,-1.902416025E0,-4.258253218E0,-1.169690819E1,1.259244092E1
3.357937250E0,-2.258672110E0,-4.373507101E0,-1.114762192E1,1.218600174E1
3.368005250E0,-1.979792083E0,-4.286624200E0,-1.068251684E1,1.167950726E1
3.378072250E0,-1.464225830E0,-4.061829456E0,-9.498456842E0,1.043374804E1
3.388140250E0,-5.785469055E-1,-3.778390940E0,-8.111053485E0,8.966612697E0
3.398208250E0,1.008096962E0,-3.187448815E0,-6.478928366E0,7.290583118E0
3.408275250E0,2.175818965E0,-2.714289785E0,-4.884673909E0,5.996798846E0
3.418343250E0,1.923085055E0,-2.563572247E0,-2.940464180E0,4.349308955E0
3.428410250E0,7.017661580E-1,-2.894976642E0,-9.105588269E-1,3.114880877E0
3.438478250E0,-1.436381773E-1,-3.189939144E0,2.038456321E-1,3.199671344E0
3.448546250E0,6.362706184E-2,-3.095559821E0,2.101746583E-1,3.103338910E0
3.458613250E0,7.107368101E-1,-2.648530536E0,-4.954989016E-1,2.786643137E0
3.468681250E0,9.172283073E-1,-1.645684812E0,-1.564573991E0,2.448974896E0
3.478748250E0,9.313145421E-1,-3.265579310E-1,-2.184993392E0,2.397536857E0
3.488816250E0,8.340731531E-1,1.257301639E0,-1.873200558E0,2.405278729E0
3.498884250E0,1.755509555E-1,2.804434262E0,2.912030339E-2,2.810074316E0
3.508951250E0,-1.269608566E0,4.575345384E0,3.448094299E0,5.868138170E0
3.519019250E0,-3.437486281E0,6.925629330E0,7.381169529E0,1.068935532E1
3.529087250E0,-4.501112350E0,8.840128187E0,1.033081033E1,1.432248305E1
3.539154250E0,-3.670080918E0,9.821247704E0,1.245148786E1,1.627777473E1
3.549222250E0,-2.828881763E0,1.066054301E1,1.463689055E1,1.832725605E1
3.559290250E0,-3.199925019E0,1.057371068E1,1.668462290E1,2.001048523E1
3.569357250E0,-3.903181340E0,9.421860071E0,1.829173480E1,2.094263197E1
3.579425250E0,-3.334512720E0,7.715563606E0,1.922501357E1,2.098213629E1
3.589492250E0,-1.795646159E0,6.865501242E0,1.977717316E1,2.101180693E1
3.599560250E0,-3.987923867E-1,6.071159919E0,1.881625811E1,1.977547945E1
3.609628250E0,3.930325869E-1,4.750536151E0,1.601107277E1,1.670558349E1
3.619695708E0,1.034341605E0,3.749798640E0,1.269440108E1,1.327699782E1
3.629763708E0,1.985660349E0,2.648190813E0,9.134199280E0,9.715418575E0
3.639831708E0,2.749576562E0,1.291389152E0,6.206862684E0,6.910354665E0
3.649898708E0,3.454789946E0,-1.912858129E-1,4.391855956E0,5.591114609E0
3.659966708E0,3.715002737E0,-1.990942431E0,3.016601359E0,5.183143917E0
3.670033708E0,3.326103255E0,-3.418990368E0,1.381687703E0,4.966036539E0
3.680101708E0,2.946667783E0,-4.272438563E0,-7.426805878E-1,5.242914910E0
3.690169708E0,2.811502084E0,-4.907271059E0,-3.376412113E0,6.586805900E0
3.700236708E0,3.004729757E0,-5.067563120E0,-6.450620241E0,8.736080264E0
3.710304708E0,2.926522663E0,-4.698221405E0,-9.606905150E0,1.108740032E1
3.720372708E0,2.409823366E0,-4.261987542E0,-1.218575179E1,1.313256765E1
3.730439708E0,1.636145664E0,-4.016979851E0,-1.385264328E1,1.451581295E1
3.740507708E0,1.067612043E0,-4.027002271E0,-1.426236704E1,1.485838673E1
3.750574708E0,5.726874107E-1,-4.117914487E0,-1.318132913E1,1.382145536E1
3.760642708E0,3.702832635E-1,-4.214087736E0,-1.148944897E1,1.224349145E1
3.770710708E0,2.601082720E-1,-4.228680047E0,-1.011131638E1,1.096303380E1
3.780777708E0,2.625079693E-1,-4.236453921E0,-9.317087322E0,1.023838700E1
3.790845708E0,1.709863266E-1,-4.605558532E0,-8.921679304E0,1.004175121E1
3.800913708E0,-1.386561211E-2,-4.957934843E0,-8.597216722E0,9.924386406E0
3.810980708E0,-4.100020107E-2,-5.047019513E0,-8.348913540E0,9.755944049E0
3.821048708E0,1.298947263E-1,-5.084235871E0,-8.743519320E0,1.011511034E1
3.831115708E0,4.528554502E-1,-5.139010248E0,-9.321333570E0,1.065372066E1
3.841183708E0,8.731617898E-1,-5.210584846E0,-9.543014379E0,1.090787465E1
3.851251708E0,1.066871420E0,-5.305814939E0,-9.472025673E0,1.090913182E1
3.861318708E0,1.079024565E0,-5.279198413E0,-9.381682683E0,1.081897407E1
3.871386708E0,1.199656425E0,-4.934723151E0,-9.526694216E0,1.079576634E1
3.881454708E0,1.758977539E0,-4.500419455E0,-8.954412602E0,1.017493402E1
3.891521708E0,1.836011682E0,-4.243194591E0,-7.645384154E0,8.934625795E0
3.901589708E0,1.383347143E0,-4.077834747E0,-7.026251140E0,8.240788229E0
3.911656708E0,1.767031201E0,-3.660897866E0,-6.371677567E0,7.557965829E0
3.921724708E0,2.326938499E0,-2.728651716E0,-5.045435502E0,6.190040579E0
3.931792708E0,1.974584699E0,-1.460191836E0,-3.869152883E0,4.582738152E0
3.941859708E0,1.037770704E0,-8.929283023E-3,-3.498182133E0,3.648880103E0
3.951927708E0,-5.464931637E-1,1.786495705E0,-3.484383874E0,3.953625256E0
3.961995708E0,-2.833670340E0,4.233222165E0,-2.733806621E0,5.781310936E0
3.972062708E0,-5.194963424E0,6.630209869E0,-7.898956847E-1,8.459980087E0
3.982130708E0,-5.807945167E0,7.859529072E0,3.271363376E0,1.030564130E1
3.992197708E0,-4.834464161E0,7.896730227E0,1.012167998E1,1.371782773E1
4.002265708E0,-3.579582392E0,7.927059150E0,1.794818515E1,1.994464908E1
4.012333708E0,-2.652121019E0,7.402083850E0,2.448603883E1,2.571751716E1
4.022400708E0,-2.090331795E0,6.837621133E0,2.772592021E1,2.863300895E1
4.032468708E0,-6.959508097E-1,6.086949155E0,2.758696230E1,2.825908326E1
4.042536708E0,7.520349634E-1,6.377383865E0,2.643722429E1,2.720594438E1
4.052603708E0,1.690076142E0,6.693484343E0,2.461817655E1,2.556782562E1
4.062671708E0,1.767620308E0,6.237547118E0,2.097607222E1,2.195511515E1
4.072738708E0,9.031711623E-1,5.462927284E0,1.580486253E1,1.674673019E1
4.082806708E0,-1.222525616E-1,4.114219632E0,1.022720936E1,1.102440748E1
4.092874708E0,-5.850392152E-1,2.318433870E0,4.994848316E0,5.537681481E0
4.102941708E0,-4.144433364E-1,5.748388937E-1,5.689305747E-1,9.087821695E-1
4.113009708E0,-3.282232180E-2,-6.815675363E-1,-2.376576244E0,2.472595044E0
4.123077708E0,3.879323530E-1,-1.515875455E0,-3.586962163E0,3.913395899E0
4.133144708E0,8.922925638E-1,-2.276956938E0,-4.248040763E0,4.901690447E0
4.143212708E0,1.534654373E0,-3.029083411E0,-5.422165759E0,6.397686447E0
4.153279708E0,2.300124484E0,-3.632713994E0,-6.832965580E0,8.073202724E0
4.163347708E0,2.748704742E0,-3.772585824E0,-8.159949657E0,9.400668059E0
4.173415708E0,3.023478854E0,-3.554753360E0,-9.002833394E0,1.014044895E1
4.183482708E0,2.551718771E0,-3.229561339E0,-9.060272348E0,9.951375289E0
4.193550708E0,1.973706301E0,-3.240391259E0,-8.704926528E0,9.495862148E0
4.203618708E0,1.421491600E0,-3.481341275E0,-8.456111130E0,9.254522726E0
4.213685708E0,7.966648601E-1,-3.670254580E0,-8.383356564E0,9.186191314E0
4.223753708E0,1.750608127E-1,-3.843917470E0,-8.540246716E0,9.367078614E0
4.233820708E0,-2.712869971E-1,-4.029884948E0,-8.819281694E0,9.700170046E0
4.243888708E0,-2.477085203E-1,-4.110259605E0,-8.771224598E0,9.689683920E0
4.253956708E0,7.623906747E-2,-4.035927753E0,-8.554649577E0,9.459204756E0
4.264023708E0,2.520712741E-1,-3.767305496E0,-8.538477348E0,9.336044454E0
4.274091708E0,2.772287732E-1,-3.364673536E0,-8.729751467E0,9.359831433E0
4.284159708E0,2.972901316E-1,-2.977525879E0,-8.626258088E0,9.130518626E0
4.294226708E0,6.159606072E-1,-2.834871066E0,-7.776742439E0,8.300218334E0
4.304294708E0,8.985663338E-1,-2.717175094E0,-6.844966405E0,7.419166195E0
4.314361708E0,1.071620967E0,-2.429283630E0,-6.302160020E0,6.838641047E0
4.324429708E0,1.390211774E0,-2.309685851E0,-5.578703908E0,6.195907908E0
4.334497708E0,1.636742080E0,-2.215706185E0,-4.784147993E0,5.520538973E0
4.344564708E0,1.350661061E0,-2.234804653E0,-3.629370264E0,4.471125770E0
4.354632708E0,4.112816007E-1,-2.279577368E0,-1.885708337E0,2.986891605E0
4.364700708E0,-8.753425089E-1,-2.058687395E0,-6.065123838E-1,2.317816983E0
4.374767708E0,-1.518808419E0,-1.380524692E0,8.414728045E-2,2.054192835E0
4.384835708E0,-1.661061235E0,-3.251069444E-1,4.374044752E-1,1.748182378E0
4.394902708E0,-1.554330107E0,1.189785009E0,6.632455784E-1,2.066742642E0
4.404970708E0,-1.892970871E0,3.236759261E0,1.219085407E0,3.942856637E0
4.415038708E0,-2.391793330E0,5.251383793E0,2.070430650E0,6.130610912E0
4.425105708E0,-2.027914960E0,5.995640790E0,3.521963344E0,7.243229485E0
4.435173708E0,-1.877323722E0,5.960595503E0,6.172665244E0,8.783782745E0
4.445240708E0,-2.585363358E0,6.458735007E0,9.367820104E0,1.166856525E1
4.455308708E0,-3.416539215E0,6.585992054E0,1.226064643E1,1.433078792E1
4.465376708E0,-3.919517291E0,4.948962291E0,1.450383833E1,1.581822272E1
4.475443708E0,-4.665995645E0,2.991363022E0,1.493813910E1,1.593322842E1
4.485511708E0,-4.137659073E0,2.822477308E0,1.481535693E1,1.563909850E1
4.495579708E0,-1.535527216E0,3.040034661E0,1.429704103E1,1.469710981E1
4.505646708E0,2.234216131E0,3.435418705E0,1.309810688E1,1.372422046E1
4.515714708E0,5.911956024E0,4.080785252E0,1.145951474E1,1.352495879E1
4.525781708E0,7.409146117E0,4.033181900E0,9.353687968E0,1.259577235E1
4.535849708E0,6.191626010E0,2.975257159E0,6.881686335E0,9.723476468E0
4.545917708E0,3.777015967E0,1.457429611E0,4.526155390E0,6.072563981E0
4.555984708E0,1.951856864E0,1.108421588E-1,2.985845590E0,3.568936128E0
4.566052708E0,6.594975132E-1,-7.164283437E-1,2.166304522E0,2.375096171E0
4.576120708E0,-6.543727210E-1,-8.728027707E-1,1.689600910E0,2.011153791E0
4.586187708E0,-1.857050548E0,-9.694487670E-1,1.102013624E0,2.367044925E0
4.596255708E0,-2.518288193E0,-1.428736739E0,2.810972911E-1,2.908965414E0
4.606322708E0,-2.688891527E0,-1.465526251E0,-5.673635209E-1,3.114451187E0
4.616390708E0,-2.633799938E0,-1.193920452E0,-1.781187018E0,3.396317911E0
4.626459083E0,-2.610751383E0,-1.053411568E0,-3.636021472E0,4.598516158E0
4.636526083E0,-2.503004740E0,-1.091005656E0,-5.289483665E0,5.952643406E0
4.646594083E0,-2.066287605E0,-1.060078855E0,-6.662286524E0,7.055449906E0
4.656662083E0,-1.555439470E0,-1.173632076E0,-7.773421805E0,8.013918564E0
4.666729083E0,-1.387824648E0,-1.567160507E0,-8.399811214E0,8.656724423E0
4.676797083E0,-1.518973895E0,-2.055533406E0,-8.895779062E0,9.255667690E0
4.686864083E0,-1.539765863E0,-2.266467326E0,-9.240391148E0,9.638079769E0
4.696932083E0,-1.252746512E0,-2.495501009E0,-9.270848125E0,9.682227227E0
4.707000083E0,-9.452475800E-1,-2.935647828E0,-8.999865348E0,9.513626934E0
4.717067083E0,-6.716446652E-1,-3.227441431E0,-8.584682631E0,9.195882808E0
4.727135083E0,-2.497825277E-1,-3.238485652E0,-8.430760526E0,9.034816195E0
4.737203083E0,1.030063051E-1,-3.204605715E0,-8.457954172E0,9.045280364E0
4.747270083E0,7.614083424E-2,-3.308694924E0,-8.466078878E0,9.089980808E0
4.757338083E0,3.761652701E-1,-3.534225248E0,-8.326533907E0,9.053364862E0
4.767405083E0,1.071887600E0,-3.395876909E0,-7.894792460E0,8.660754644E0
4.777473083E0,1.336587690E0,-3.085552311E0,-7.405271167E0,8.132966296E0
4.787541083E0,1.528180920E0,-3.156199248E0,-6.916765535E0,7.754906582E0
4.797608083E0,1.817577603E0,-3.285369796E0,-6.493791988E0,7.501105081E0
4.807676083E0,2.110331611E0,-3.326531855E0,-5.721429180E0,6.946514634E0
4.817744083E0,2.571986098E0,-2.538172819E0,-4.166062800E0,5.514844784E0
4.827811083E0,2.371102373E0,-1.595431502E0,-2.680792841E0,3.918440812E0
4.837879083E0,1.729862498E0,-5.426099181E-1,-1.578164089E0,2.403633017E0
4.847946083E0,4.399859113E-1,7.245989504E-1,-1.794083637E-1,8.664978950E-1
4.858014083E0,-1.817168152E0,2.346456943E0,2.138570593E0,3.658065672E0
4.868082083E0,-4.300097647E0,4.183036974E0,5.547005568E0,8.170551320E0
4.878149083E0,-6.040048639E0,5.588931273E0,9.869012439E0,1.284973723E1
4.888217083E0,-5.284850916E0,6.514863015E0,1.443506806E1,1.669563653E1
4.898285083E0,-4.166213658E0,7.899991804E0,1.697085814E1,1.917751894E1
4.908352083E0,-3.992094978E0,9.684241594E0,1.806417052E1,2.088146580E1
4.918420083E0,-3.971031553E0,9.520858694E0,1.876422724E1,2.141289485E1
4.928487083E0,-3.789174960E0,8.717215621E0,1.876560719E1,2.103558195E1
4.938555083E0,-2.437267565E0,8.642520365E0,1.828954326E1,2.037500489E1
4.948623083E0,-9.013433227E-1,8.062058496E0,1.768346299E1,1.945543806E1
4.958690083E0,-7.715292880E-1,6.847196533E0,1.630752193E1,1.770352025E1
4.968758083E0,-1.008098278E0,5.305771669E0,1.348783900E1,1.452891173E1
4.978826083E0,-7.120902944E-1,3.696599795E0,9.672535468E0,1.037929983E1
4.988893083E0,1.124259868E-1,2.004559427E0,5.928016571E0,6.258776124E0
4.998961083E0,1.844082009E0,3.506622005E-1,2.847090577E0,3.410209259E0
5.009028083E0,3.686185612E0,-1.139942173E0,3.085821283E-1,3.870743527E0
5.019096083E0,4.561170856E0,-2.361296884E0,-1.991982651E0,5.508901654E0
5.029164083E0,4.411711054E0,-2.963249025E0,-4.180873797E0,6.761933519E0
5.039231083E0,3.911829956E0,-3.251551255E0,-5.838940088E0,7.743915064E0
5.049299083E0,3.265860561E0,-3.556366022E0,-6.963257332E0,8.473519762E0
5.059366083E0,2.584580123E0,-4.138829393E0,-7.828106720E0,9.224381712E0
5.069434083E0,1.517102640E0,-4.431060367E0,-8.473788432E0,9.681992914E0
5.079502083E0,4.351356094E-1,-4.232005359E0,-8.943818616E0,9.904095304E0
5.089569083E0,-1.573898326E-1,-4.066416889E0,-9.053116525E0,9.925695779E0
5.099637083E0,-8.564270586E-2,-4.012284536E0,-8.879058949E0,9.743892943E0
5.109705083E0,-1.125985162E-1,-3.925458062E0,-8.716984656E0,9.560738513E0
5.119772083E0,-1.388539763E-1,-3.882389810E0,-8.818349648E0,9.636156992E0
5.129840083E0,1.828292772E-1,-3.941058433E0,-9.156650834E0,9.970437433E0
5.139907083E0,7.955163208E-1,-3.998355884E0,-9.450978035E0,1.029274899E1
5.149975083E0,9.857114817E-1,-3.929742317E0,-9.441139510E0,1.027373433E1
5.160043083E0,7.249220091E-1,-4.101358681E0,-9.163086280E0,1.006522752E1
5.170110083E0,4.986951359E-1,-4.541214309E0,-8.916129127E0,1.001841718E1
5.180178083E0,3.037599295E-1,-4.770803477E0,-8.956657348E0,1.015256356E1
5.190246083E0,1.037546025E-1,-4.672007752E0,-8.437252690E0,9.644980788E0
5.200313083E0,-8.611647651E-2,-4.837871625E0,-7.745860954E0,9.132950226E0
5.210381083E0,-9.465428844E-2,-5.004766363E0,-7.346824154E0,8.890020862E0
5.220448083E0,2.303485756E-1,-4.881394790E0,-6.959477692E0,8.503846501E0
5.230516083E0,6.851976340E-1,-4.701382409E0,-6.549138224E0,8.090964332E0
5.240584083E0,1.280092331E0,-4.386305779E0,-6.261154082E0,7.751152508E0
5.250651083E0,1.926209953E0,-3.759881287E0,-6.067460386E0,7.393312357E0
5.260719083E0,2.359305615E0,-3.277933307E0,-5.573113970E0,6.882642594E0
5.270787083E0,2.564688188E0,-2.823772466E0,-5.040059572E0,6.320879443E0
5.280854083E0,1.848504258E0,-1.992896571E0,-4.312727340E0,5.097864440E0
5.290922083E0,8.634296840E-1,-4.469822145E-1,-3.311891012E0,3.451655544E0
5.300989083E0,-5.181097922E-1,1.905587116E0,-2.082774122E0,2.870130321E0
5.311057083E0,-2.767752924E0,4.169551833E0,9.330138892E-1,5.090789100E0
5.321125083E0,-4.932902328E0,5.713252434E0,6.167593954E0,9.747512192E0
5.331192083E0,-5.354688306E0,6.385585170E0,1.135324978E1,1.408348911E1
5.341260083E0,-4.071007831E0,7.386713274E0,1.501810329E1,1.722440316E1
5.351327083E0,-2.891575025E0,8.887332759E0,1.726590747E1,1.963307033E1
5.361395083E0,-2.195958968E0,9.460146469E0,1.865287170E1,2.102965120E1
5.371463083E0,-1.777051575E0,9.148339602E0,1.854001927E1,2.075047817E1
5.381530083E0,-1.478397434E0,8.963027889E0,1.622150120E1,1.859189687E1
5.391598083E0,-9.281896439E-1,9.517438658E0,1.302986285E1,1.616231730E1
5.401666083E0,8.437035173E-2,9.472347854E0,1.051181323E1,1.415029009E1
5.411733083E0,5.846701097E-1,9.107571060E0,9.801085335E0,1.339219786E1
5.421801083E0,2.527330327E-1,8.240567558E0,1.032207810E1,1.321045510E1
5.431868083E0,-6.264019802E-1,6.142309424E0,9.978795083E0,1.173442354E1
5.441936083E0,-1.515864199E0,3.835250727E0,8.507052072E0,9.453937136E0
5.452004083E0,-1.695449880E0,1.605380539E0,7.203478492E0,7.572443421E0
5.462071083E0,-9.574881412E-1,-2.163443479E-1,6.019549470E0,6.099062570E0
5.472139083E0,-1.253824300E-1,-1.508355936E0,4.261946027E0,4.522725099E0
5.482207083E0,4.265165211E-1,-2.391284915E0,2.471233310E0,3.465134046E0
5.492274083E0,8.760728261E-1,-2.948469310E0,6.305040944E-1,3.139826473E0
5.502342083E0,9.926345851E-1,-3.391941733E0,-1.718213090E0,3.929738969E0
5.512409083E0,9.123733641E-1,-3.616426867E0,-4.376225764E0,5.749984380E0
5.522477083E0,6.551140018E-1,-3.520157432E0,-6.806113411E0,7.690504695E0
5.532545083E0,3.494758004E-1,-3.353498337E0,-8.720990583E0,9.350067443E0
5.542612083E0,1.813839917E-1,-3.366850162E0,-1.014931392E1,1.069472549E1
5.552680083E0,2.311557837E-1,-3.489180345E0,-1.091573421E1,1.146215799E1
5.562748083E0,4.373902957E-1,-3.627748246E0,-1.083646351E1,1.143594373E1
5.572815083E0,7.425348459E-1,-3.741525707E0,-1.017961653E1,1.087083094E1
5.582883083E0,1.289497139E0,-3.787590657E0,-9.279380382E0,1.010522371E1
5.592950083E0,1.520805827E0,-3.907802979E0,-8.774458108E0,9.724962189E0
5.603018083E0,1.738115843E0,-4.227415295E0,-8.689519114E0,9.818341469E0
5.613086083E0,1.954380961E0,-4.371788896E0,-8.752177877E0,9.976610682E0
5.623152750E0,2.073568851E0,-4.469209356E0,-8.935020311E0,1.020333808E1
5.633220750E0,2.299534646E0,-4.751764358E0,-9.559730984E0,1.092042035E1
5.643287750E0,2.619615762E0,-4.795182858E0,-1.066313332E1,1.198159328E1
5.653355750E0,2.208715985E0,-4.724094749E0,-1.154776209E1,1.267068691E1
5.663423750E0,1.028332860E0,-5.061872025E0,-1.201962654E1,1.308248597E1
5.673490750E0,1.587567655E-1,-5.385086811E0,-1.198947947E1,1.314427562E1
5.683558750E0,-1.360993530E-1,-5.500789175E0,-1.092154751E1,1.222936648E1
5.693626750E0,-3.190736412E-1,-5.396309956E0,-8.976119805E0,1.047820099E1
5.703693750E0,-6.110968933E-1,-5.186030633E0,-6.611480652E0,8.424964662E0
5.713761750E0,-7.186802526E-1,-4.872147419E0,-4.655036793E0,6.776701950E0
5.723828750E0,-4.497453162E-1,-4.114781549E0,-2.905700144E0,5.057350232E0
5.733896750E0,-1.711488792E-1,-2.967846690E0,-1.023657426E0,3.144086583E0
5.743964750E0,-1.072287257E-1,-1.428861870E0,1.252982885E0,1.903446966E0
5.754031750E0,-3.394329152E-1,5.875387537E-1,3.454861282E0,3.520863952E0
5.764099750E0,-4.580813992E-1,2.636665074E0,5.875442501E0,6.456211417E0
5.774167750E0,-1.077747679E0,5.288939874E0,7.643815346E0,9.357474985E0
5.784234750E0,-1.701774228E0,8.125110192E0,8.902087038E0,1.217212409E1
5.794302750E0,-8.202199298E-1,9.354331162E0,1.073836945E1,1.426495183E1
5.804369750E0,7.832614338E-1,1.051456727E1,1.278186841E1,1.656942314E1
5.814437750E0,1.572644025E0,1.162972134E1,1.414185826E1,1.837704499E1
5.824505750E0,1.610667592E0,1.120039421E1,1.507356296E1,1.884821956E1
5.834572750E0,2.966605327E-1,1.029851265E1,1.595061490E1,1.898866730E1
5.844640750E0,-1.421490577E0,9.929428210E0,1.769047731E1,2.033635089E1
5.854708750E0,-2.001296388E0,9.064671793E0,1.959989143E1,2.168707463E1
5.864775750E0,-2.118492424E0,7.707764005E0,2.007495080E1,2.160789869E1
5.874843750E0,-2.547299738E0,6.208292913E0,1.872855689E1,1.989448366E1
5.884910750E0,-3.253469726E0,4.800145975E0,1.558745837E1,1.663115525E1
5.894978750E0,-3.007249030E0,3.393795301E0,1.153926140E1,1.239822354E1
5.905046750E0,-1.201490404E0,2.121668631E0,7.821587074E0,8.192818888E0
5.915113750E0,1.177002119E0,1.062846050E0,4.949665126E0,5.197514846E0
5.925181750E0,2.353290877E0,-7.421929300E-2,2.145938669E0,3.185677201E0
5.935248750E0,2.397297022E0,-1.355358860E0,-9.866813886E-1,2.925332599E0
5.945316750E0,1.876761951E0,-2.582704629E0,-4.016280524E0,5.130605019E0
5.955384750E0,9.527230990E-1,-3.651683823E0,-6.424909449E0,7.451304415E0
5.965451750E0,1.497948477E-1,-4.377858891E0,-8.070428785E0,9.182587203E0
5.975519750E0,-3.090030182E-1,-4.657475667E0,-9.173277392E0,1.029254976E1
5.985587750E0,-6.825783737E-1,-4.514545743E0,-9.832717602E0,1.084109644E1
5.995654750E0,-1.093912892E0,-4.285341321E0,-1.001529106E1,1.094837206E1
6.005722750E0,-1.220089227E0,-4.253543578E0,-9.673773909E0,1.063781708E1
6.015789750E0,-9.514155154E-1,-4.253897334E0,-8.791599805E0,9.812902789E0
6.025857750E0,-5.589210185E-1,-4.059523607E0,-8.024836290E0,9.010556149E0
6.035925750E0,-2.440700904E-1,-3.953231751E0,-7.801877280E0,8.749680027E0
6.045992750E0,-9.073972374E-2,-3.972785425E0,-8.125363961E0,9.045042688E0
6.056060750E0,-2.429377770E-1,-4.171675542E0,-9.035635689E0,9.955129728E0
6.066128750E0,-4.230004442E-1,-4.566115846E0,-9.798116119E0,1.081810625E1
6.076195750E0,-6.806732047E-1,-4.961204606E0,-1.022060786E1,1.138146265E1
6.086263750E0,-8.032416621E-1,-5.351603315E0,-1.012399314E1,1.147955105E1
6.096330750E0,-9.177307293E-1,-5.865936098E0,-9.937227226E0,1.157583349E1
6.106398750E0,-8.406343138E-1,-6.158900313E0,-9.912964790E0,1.170066622E1
6.116466750E0,-3.233241284E-1,-6.009366544E0,-9.942820673E0,1.162225054E1
6.126533750E0,3.681351426E-1,-5.791319194E0,-9.975682025E0,1.154075965E1
6.136601750E0,8.054460624E-1,-5.582806900E0,-9.460670965E0,1.101457086E1
6.146669750E0,1.066547922E0,-5.494630888E0,-8.350448434E0,1.005278479E1
6.156736750E0,1.206685216E0,-5.439804470E0,-6.888853852E0,8.860240926E0
6.166804750E0,1.063580168E0,-5.284105396E0,-5.550917355E0,7.737289971E0
6.176871750E0,4.039996246E-1,-5.090419301E0,-4.387417334E0,6.732385552E0
6.186939750E0,3.274616182E-2,-4.559630699E0,-3.234238819E0,5.590313512E0
6.197007750E0,1.584279692E-1,-3.063183203E0,-2.005499659E0,3.664726407E0
6.207074750E0,-2.424748237E-1,-2.988757503E-1,-7.313440061E-1,8.264289500E-1
6.217142750E0,-5.962309322E-1,2.693042758E0,1.266668878E0,3.035196973E0
6.227209750E0,-1.019690821E0,5.679165505E0,4.571736774E0,7.361621244E0
6.237277750E0,-2.033719491E0,8.334259833E0,8.538276204E0,1.210363840E1
6.247345750E0,-2.696527406E0,9.840612513E0,1.170100591E1,1.552489788E1
6.257412750E0,-2.879816274E0,1.023343197E1,1.418744783E1,1.772851228E1
6.267480750E0,-2.723964588E0,1.043622276E1,1.579974972E1,1.913025927E1
6.277548750E0,-1.144483998E0,1.015303743E1,1.665615982E1,1.954025774E1
6.287615750E0,6.235041001E-1,9.739576719E0,1.780360573E1,2.030311525E1
6.297683750E0,2.039881580E0,1.001737033E1,1.977107334E1,2.225767657E1
6.307750750E0,2.933690180E0,1.005140464E1,2.096280138E1,2.343237749E1
6.317818750E0,2.742184804E0,9.348818992E0,2.004147900E1,2.228409465E1
6.327886750E0,1.536259141E0,8.360927230E0,1.749189417E1,1.944817621E1
6.337953750E0,6.339498585E-1,7.199534546E0,1.430223101E1,1.602463735E1
6.348021750E0,1.256221658E-1,5.771971343E0,1.095058478E1,1.237928678E1
6.358089750E0,9.243132323E-2,4.087175674E0,7.647447052E0,8.671620088E0
6.368156750E0,4.179244763E-1,2.076339846E0,4.488275372E0,4.962908809E0
6.378224750E0,3.158674666E-1,7.278087795E-2,1.544955997E0,1.578593788E0
6.388291750E0,-4.715340883E-2,-1.631205937E0,-1.211109805E0,2.032201567E0
6.398359750E0,1.098130306E-1,-3.129920399E0,-3.420594260E0,4.637771630E0
6.408427750E0,5.920340931E-1,-4.263657507E0,-4.410673465E0,6.163060937E0
6.418494750E0,4.964891276E-1,-4.822855976E0,-4.884744660E0,6.882381246E0
6.428562750E0,2.099559724E-2,-5.236489180E0,-5.604108306E0,7.669895023E0
6.438630750E0,-3.939739886E-1,-5.277132007E0,-6.800090194E0,8.616528557E0
6.448697750E0,-3.541757923E-1,-5.109330366E0,-8.295742469E0,9.749361025E0
6.458765750E0,-8.824968696E-2,-5.046963379E0,-9.842238039E0,1.106116074E1
6.468832750E0,1.927008390E-1,-5.056211336E0,-1.123245917E1,1.231951889E1
6.478900750E0,4.059870932E-1,-4.950436374E0,-1.216066957E1,1.313596324E1
6.488968750E0,4.849666044E-1,-4.896270692E0,-1.227146495E1,1.322110099E1
6.499035750E0,6.132223561E-1,-4.942962463E0,-1.153815277E1,1.256733420E1
6.509103750E0,5.999778280E-1,-5.118522189E0,-1.088355581E1,1.204205256E1
6.519170750E0,4.176049259E-1,-5.518338423E0,-1.077228213E1,1.211067773E1
6.529238750E0,-1.090119803E-1,-5.911274239E0,-1.104307019E1,1.252615049E1
6.539306750E0,-4.474730882E-1,-6.258314674E0,-1.109966071E1,1.275026285E1
6.549373750E0,-8.511736277E-1,-6.485360888E0,-1.107996846E1,1.286662751E1
6.559441750E0,-1.022089203E0,-6.463360739E0,-1.101693548E1,1.281376470E1
6.569509750E0,-4.867084900E-1,-6.344564028E0,-1.031145955E1,1.211678901E1
6.579576750E0,-2.508812195E-1,-5.999037437E0,-9.140243547E0,1.093597017E1
6.589644750E0,-4.689834962E-1,-5.819352500E0,-8.188208665E0,1.005641935E1
6.599711750E0,-4.989373568E-1,-5.850956116E0,-7.244186808E0,9.325281147E0
6.609779750E0,-5.052120039E-1,-5.685820806E0,-6.344341249E0,8.534310944E0
6.619847750E0,-3.681319267E-1,-5.122214121E0,-5.595542720E0,7.594912570E0
6.629914208E0,-4.605120867E-2,-4.214701109E0,-4.580478947E0,6.224677785E0
6.639982208E0,1.096209678E-1,-2.948888848E0,-3.372546519E0,4.481298050E0
6.650050208E0,-3.387112956E-2,-1.098893550E0,-2.489587719E0,2.721536570E0
6.660117208E0,-1.596563230E-1,1.490430712E0,-1.667069249E0,2.241872817E0
6.670185208E0,-1.146067424E-1,4.471604961E0,5.087896228E-1,4.501916537E0
6.680252208E0,-5.129253584E-1,7.452266994E0,5.530956130E0,9.294667906E0
6.690320208E0,-1.692441341E0,9.408741258E0,1.277657551E1,1.595711914E1
6.700388208E0,-2.039560714E0,9.810217516E0,2.018150578E1,2.253205164E1
6.710455208E0,-2.536045602E0,9.631963393E0,2.648586611E1,2.829677278E1
6.720523208E0,-3.564396003E0,9.251011446E0,2.967443700E1,3.128671193E1
6.730590208E0,-3.654208651E0,8.587375858E0,2.859871538E1,3.008293182E1
6.740658208E0,-2.536744929E0,8.837378241E0,2.432491764E1,2.600453705E1
6.750726208E0,-5.802218404E-1,9.721097179E0,1.985455053E1,2.211423895E1
6.760793208E0,1.003691524E0,9.779816673E0,1.641872077E1,1.913704790E1
6.770861208E0,9.371525484E-1,8.946993654E0,1.242725816E1,1.534156758E1
6.780929208E0,-5.627769284E-1,7.615174515E0,7.533053294E0,1.072634573E1
6.790996208E0,-1.506556748E0,5.740045545E0,3.258170888E0,6.770045319E0
6.801064208E0,-1.523942859E0,3.539974523E0,5.216698694E-1,3.889210834E0
6.811131208E0,-7.829556245E-1,1.334235794E0,-1.075293603E0,1.884001326E0
6.821199208E0,5.235000479E-1,-2.067265552E-1,-2.477999707E0,2.541116038E0
6.831267208E0,1.903088893E0,-1.304909669E0,-4.022427117E0,4.637289778E0
6.841334208E0,2.994796800E0,-2.343395634E0,-5.737908973E0,6.883597195E0
6.851402208E0,3.456583287E0,-3.520004527E0,-6.639378887E0,8.271623293E0
6.861469208E0,2.451243726E0,-4.739793354E0,-4.999856456E0,7.312509926E0
6.871537208E0,3.038694187E-1,-5.492132957E0,-2.191290259E0,5.920947056E0
6.881605208E0,-1.336683438E0,-5.750586905E0,-1.306742771E0,6.046780056E0
6.891672208E0,-1.817333774E0,-5.696112490E0,-2.766563893E0,6.588040325E0
6.901740208E0,-1.585846454E0,-5.359392976E0,-5.866696236E0,8.102846831E0
6.911808208E0,-8.504495962E-1,-4.832636029E0,-9.379305789E0,1.058532062E1
6.921875208E0,-3.373141766E-2,-4.074091945E0,-1.232692579E1,1.298277561E1
6.931943208E0,8.559964111E-1,-3.713003574E0,-1.360593288E1,1.412942090E1
6.942010208E0,1.410671474E0,-3.638655058E0,-1.279149058E1,1.337355734E1
6.952078208E0,1.546689989E0,-3.612360129E0,-1.125376642E1,1.192009456E1
6.962146208E0,1.549414207E0,-3.893337552E0,-1.004926806E1,1.088790845E1
6.972213208E0,1.375347860E0,-4.210175364E0,-8.924263773E0,9.962913340E0
6.982281208E0,7.904818681E-1,-4.483174846E0,-7.687527376E0,8.934304419E0
6.992349208E0,-7.326839869E-2,-4.781696840E0,-6.542070109E0,8.103621057E0
7.002416208E0,-5.053365496E-1,-4.973777289E0,-5.631832879E0,7.530694997E0
7.012484208E0,-6.159626538E-1,-4.938423854E0,-5.110783399E0,7.133550806E0
7.022551208E0,-6.402810775E-1,-4.864381147E0,-4.733948477E0,6.817802577E0
7.032619208E0,-7.232733867E-1,-4.737723439E0,-4.672239302E0,6.693203110E0
7.042687208E0,-5.313698155E-1,-4.305229456E0,-5.355195259E0,6.891695787E0
7.052754208E0,-3.520145153E-1,-3.676064374E0,-6.038988538E0,7.078611874E0
7.062822208E0,-5.278500840E-2,-3.189327525E0,-6.108493221E0,6.891174483E0
7.072889208E0,6.787311982E-1,-2.629927912E0,-5.544237496E0,6.173796747E0
7.082957208E0,1.757514419E0,-1.697068974E0,-4.421001987E0,5.051154185E0
7.093025208E0,2.316104339E0,-5.797993791E-1,-3.112182285E0,3.922522812E0
7.103092208E0,1.633596863E0,5.812214220E-1,-1.710228717E0,2.435434113E0
7.113160208E0,1.725691679E-1,2.356388147E0,-2.423144639E-1,2.375091896E0
7.123228208E0,-1.339514368E0,4.947086504E0,1.265746772E0,5.279211922E0
7.133295208E0,-2.781108550E0,7.658826318E0,3.395644190E0,8.827377006E0
7.143363208E0,-2.641957681E0,9.388014048E0,7.336600882E0,1.220411655E1
7.153430208E0,-1.344549698E-1,9.636523637E0,1.272926335E1,1.596605184E1
7.163498208E0,1.692924906E0,9.770671628E0,1.810696863E1,2.064447461E1
7.173566208E0,1.552139010E0,9.259688714E0,2.196984628E1,2.389194668E1
7.183633208E0,4.799382913E-1,7.548392295E0,2.338303411E1,2.457589980E1
7.193701208E0,-5.979618542E-1,5.999820964E0,2.245825485E1,2.325357222E1
7.203768208E0,-3.606888597E-1,6.600462159E0,2.037644727E1,2.142185334E1
7.213836208E0,1.217904415E0,7.177001715E0,1.765105889E1,1.909325862E1
7.223904208E0,2.350422817E0,7.239964533E0,1.429874607E1,1.619863306E1
7.233971208E0,2.339796819E0,7.192895617E0,1.030517730E1,1.278315594E1
7.244039208E0,1.629852306E0,6.262206581E0,6.205130739E0,8.965227119E0
7.254107208E0,1.104843677E0,4.713945152E0,2.621641238E0,5.505902399E0
7.264174208E0,1.471020002E0,2.879404045E0,2.071142256E-2,3.233465087E0
7.274242208E0,2.445337161E0,8.691868526E-1,-1.968213719E0,3.257149806E0
7.284309208E0,2.809865741E0,-9.087894595E-1,-3.554575020E0,4.621282001E0
7.294377208E0,2.312038332E0,-2.362894928E0,-4.456746601E0,5.548998464E0
7.304445208E0,1.748961843E0,-3.335242453E0,-4.776486971E0,6.082560113E0
7.314512208E0,9.552242455E-1,-3.689238151E0,-5.480054948E0,6.674873312E0
7.324580208E0,4.111519022E-1,-3.775504462E0,-6.505911512E0,7.533283775E0
7.334647208E0,-1.577710345E-2,-3.845528378E0,-7.509251034E0,8.436657425E0
7.344715208E0,-4.102361186E-1,-3.895765901E0,-8.541858208E0,9.397267011E0
7.354783208E0,-6.197439019E-1,-4.016395129E0,-9.382382594E0,1.022470613E1
7.364850208E0,-6.874865265E-1,-4.265026925E0,-9.974358215E0,1.086972466E1
7.374918208E0,-4.785251655E-1,-4.407468022E0,-1.031777221E1,1.122992360E1
7.384985208E0,-4.381663674E-1,-4.784624541E0,-1.006209101E1,1.115034965E1
7.395053208E0,-6.900834212E-1,-5.048512892E0,-9.448761941E0,1.073511992E1
7.405121208E0,-6.249261430E-1,-5.217820775E0,-8.357665653E0,9.872525588E0
7.415188208E0,-8.055665150E-2,-5.422373920E0,-6.926315208E0,8.796730680E0
7.425256208E0,1.699090868E-1,-5.585040536E0,-6.031250333E0,8.221771553E0
7.435324208E0,-2.703976174E-1,-5.780971377E0,-5.740556592E0,8.151486669E0
7.445391208E0,-8.438251394E-1,-6.066150609E0,-5.775505400E0,8.418235367E0
7.455459208E0,-1.039992354E0,-6.272289519E0,-5.966369628E0,8.718988843E0
7.465526208E0,-1.125814423E0,-6.315460682E0,-6.173990808E0,8.903407451E0
7.475594208E0,-1.017790769E0,-6.000651269E0,-6.691926645E0,9.045750158E0
7.485662208E0,-4.860714358E-1,-5.250441806E0,-7.239628319E0,8.956317479E0
7.495729208E0,2.482987602E-1,-4.789076611E0,-6.970247093E0,8.460570406E0
7.505797208E0,1.099983910E0,-4.530928472E0,-5.593900822E0,7.282238929E0
7.515865208E0,1.330053134E0,-4.094462475E0,-3.789423759E0,5.735276517E0
7.525932208E0,1.108787916E0,-3.382896675E0,-2.820092813E0,4.541621300E0
7.536000208E0,5.973243615E-1,-2.247515330E0,-2.373660822E0,3.323008765E0
7.546067208E0,-4.869628438E-1,-6.068123460E-1,-2.180800939E0,2.315436626E0
7.556135208E0,-1.573471114E0,1.552052178E0,-1.893470516E0,2.910310620E0
7.566203208E0,-2.100686775E0,3.592568473E0,-6.810462570E-1,4.217019939E0
7.576270208E0,-1.962961750E0,5.569362981E0,2.711433420E0,6.497914592E0
7.586338208E0,-8.750200349E-1,7.506255505E0,7.859307463E0,1.090313008E1
7.596405208E0,9.962696528E-1,8.902688132E0,1.241769797E1,1.531174817E1
7.606473208E0,1.476150641E0,1.005664023E1,1.514169588E1,1.823694020E1
7.616541208E0,-2.137557855E-1,1.049614971E1,1.648067903E1,1.954041022E1
7.626608750E0,-2.568645876E0,1.027733754E1,1.711734258E1,2.013020183E1
7.636676750E0,-3.937508004E0,9.945950103E0,1.613591316E1,1.935958642E1
7.646743750E0,-3.939204573E0,9.902114697E0,1.309458919E1,1.688305287E1
7.656811750E0,-2.709975709E0,9.779457069E0,1.025766868E1,1.442918971E1
7.666879750E0,-1.308146102E0,8.674342666E0,9.839970489E0,1.318258268E1
7.676946750E0,-3.308263984E-1,6.809883696E0,1.084198795E1,1.280752376E1
7.687014750E0,5.647835831E-1,4.849424554E0,1.157321034E1,1.256085572E1
7.697082750E0,1.006815691E0,3.126664084E0,1.137919505E1,1.184380792E1
7.707149750E0,1.089347824E0,1.534388909E0,9.782214031E0,9.961563098E0
7.717217750E0,1.399610881E0,7.921515405E-2,6.601877770E0,6.749072214E0
7.727284750E0,1.954699196E0,-9.591842723E-1,2.592166593E0,3.385293349E0
7.737352750E0,2.750303956E0,-1.818620308E0,-8.775349224E-1,3.411981714E0
7.747420750E0,3.020680669E0,-2.736973473E0,-3.609540601E0,5.444659664E0
7.757487750E0,2.600329014E0,-3.386855240E0,-5.610405173E0,7.050471304E0
7.767555750E0,1.792158441E0,-3.490395981E0,-7.341953423E0,8.324600654E0
7.777622750E0,9.373747426E-1,-3.534683962E0,-8.868235753E0,9.592615258E0
7.787690750E0,2.560302776E-1,-3.864815419E0,-1.017632572E1,1.088852400E1
7.797758750E0,-1.726463512E-1,-4.303901553E0,-1.094633620E1,1.176331805E1
7.807825750E0,-5.664595413E-1,-4.557481847E0,-1.125976099E1,1.216033448E1
7.817893750E0,-5.865514514E-1,-4.556713523E0,-1.145597951E1,1.234289866E1
7.827961750E0,-4.062081179E-1,-4.491626412E0,-1.139848735E1,1.225827177E1
7.838028750E0,-3.077863222E-1,-4.547014162E0,-1.103966828E1,1.194338084E1
7.848096750E0,-1.363392350E-1,-4.587678623E0,-1.033421926E1,1.130758467E1
7.858163750E0,1.284834916E-1,-4.556606519E0,-8.980539131E0,1.007120917E1
7.868231750E0,2.003934360E-1,-4.586169457E0,-7.574362704E0,8.856866160E0
7.878299750E0,2.090756741E-1,-4.725926097E0,-6.524584011E0,8.059049983E0
7.888366750E0,1.857063997E-1,-4.919348482E0,-5.989502383E0,7.752974600E0
7.898434750E0,6.419802418E-2,-4.930958714E0,-5.880288674E0,7.674390537E0
7.908501750E0,-1.748071897E-1,-4.828635364E0,-6.201225969E0,7.861391769E0
7.918569750E0,-1.013518354E-1,-4.680047089E0,-6.369388967E0,7.904570119E0
7.928637750E0,2.089835805E-1,-4.466353576E0,-6.196015515E0,7.640850520E0
7.938704750E0,2.038646355E-1,-4.183485748E0,-5.904290324E0,7.239044000E0
7.948772750E0,1.600482327E-1,-3.917788269E0,-5.592341369E0,6.830004564E0
7.958839750E0,4.309210825E-1,-3.655359968E0,-4.981466378E0,6.193735282E0
7.968907750E0,4.101038253E-1,-3.223854164E0,-4.130159141E0,5.255438645E0
7.978975750E0,-2.700831833E-1,-2.423091429E0,-2.836434612E0,3.740277838E0
7.989042750E0,-1.894155225E0,-8.436473840E-1,-1.271345481E0,2.432259085E0
7.999110750E0,-3.511133131E0,1.130196619E0,-2.522892290E-1,3.697167851E0
8.009178750E0,-4.542109810E0,3.971302571E0,9.165960771E-1,6.102635005E0
8.019245750E0,-4.361946863E0,6.899792823E0,3.533401083E0,8.894866196E0
8.029313750E0,-2.379244913E0,8.546307355E0,6.595948108E0,1.105471425E1
8.039380750E0,7.156758070E-2,9.031563104E0,9.234634565E0,1.291714866E1
8.049448750E0,1.974458838E0,8.972809696E0,1.114537074E1,1.444399842E1
8.059516750E0,3.549818603E0,9.061980320E0,1.236198687E1,1.573338548E1
8.069583750E0,4.451363069E0,9.053090213E0,1.322560191E1,1.663398994E1
8.079651750E0,3.953998029E0,8.574899070E0,1.367927918E1,1.662184326E1
8.089718750E0,3.073738304E0,8.525042785E0,1.362506731E1,1.636357787E1
8.099786750E0,3.475993119E0,8.393117906E0,1.335320452E1,1.615038784E1
8.109854750E0,4.051621680E0,7.708190267E0,1.425110998E1,1.670107694E1
8.119921750E0,3.724248354E0,6.652560850E0,1.567843637E1,1.743387388E1
8.129989750E0,2.620194637E0,5.164286007E0,1.606941629E1,1.708102485E1
8.140057750E0,1.315095957E0,3.458185424E0,1.495233030E1,1.540326930E1
8.150124750E0,3.529690001E-1,1.941988372E0,1.243183653E1,1.258755201E1
8.160192750E0,-1.128983322E-1,5.358780187E-1,9.292938321E0,9.309060851E0
8.170259750E0,-2.487635042E-1,-7.749747598E-1,5.678405367E0,5.736441116E0
8.180327750E0,-5.633546698E-1,-1.789714597E0,1.875763977E0,2.653099569E0
8.190395750E0,-1.310248469E0,-2.786159667E0,-1.798714632E0,3.565783373E0
8.200462750E0,-2.029017745E0,-3.718157310E0,-5.247079657E0,6.743400605E0
8.210530750E0,-2.099081130E0,-4.409071913E0,-7.907917120E0,9.294149230E0
8.220597750E0,-1.645594473E0,-4.588408356E0,-9.659085703E0,1.081939966E1
8.230665750E0,-1.022758124E0,-4.573495032E0,-1.044191327E1,1.144536779E1
8.240733750E0,-6.252082711E-1,-4.508867512E0,-1.063167881E1,1.156517903E1
8.250800750E0,-6.437705496E-1,-4.486337020E0,-1.065877247E1,1.158236120E1
8.260868750E0,-7.442377013E-1,-4.630707698E0,-1.040602540E1,1.141414509E1
8.270935750E0,-7.008458063E-1,-4.684039568E0,-9.571401442E0,1.067909814E1
8.281003750E0,-5.491052976E-1,-4.633205629E0,-8.533843430E0,9.725975258E0
8.291071750E0,-3.755497044E-1,-4.699152281E0,-8.032337099E0,9.313512174E0
8.301138750E0,-3.346572018E-1,-4.812411679E0,-8.221372318E0,9.532169974E0
8.311206750E0,-4.479952446E-1,-4.911357093E0,-8.949576954E0,1.021846642E1
8.321274750E0,-6.458726236E-1,-5.086963597E0,-9.748214811E0,1.101462855E1
8.331341750E0,-6.139614442E-1,-5.191003690E0,-1.036317467E1,1.160684527E1
8.341409750E0,-2.894023839E-1,-5.200238782E0,-1.068031946E1,1.188256962E1
8.351476750E0,-9.201587856E-2,-5.323465928E0,-1.035741282E1,1.164576132E1
8.361544750E0,2.368283138E-1,-5.368629822E0,-9.332231610E0,1.076888205E1
8.371612750E0,6.288642427E-1,-5.207063068E0,-8.320570917E0,9.835693997E0
8.381679750E0,7.622541422E-1,-4.919847250E0,-7.214136797E0,8.765255163E0
8.391747750E0,7.980601519E-1,-4.406998490E0,-5.643091108E0,7.204374571E0
8.401814750E0,6.376707342E-1,-3.796773124E0,-4.508097433E0,5.928326289E0
8.411882750E0,-7.669851243E-2,-3.150357587E0,-3.733685176E0,4.885799891E0
8.421950750E0,-1.036847868E0,-2.207812151E0,-2.695004498E0,3.634905397E0
8.432017750E0,-1.994921754E0,-4.118457109E-1,-1.712243668E0,2.661035150E0
8.442085750E0,-2.555045252E0,1.781217424E0,-7.954867923E-1,3.214621438E0
8.452152750E0,-2.690122658E0,3.962332358E0,9.453222781E-1,4.881646427E0
8.462220750E0,-1.865163268E0,5.448900983E0,3.940971894E0,6.978582622E0
8.472288750E0,9.628721112E-1,5.904811896E0,7.795891485E0,9.826995995E0
8.482355750E0,4.448623649E0,7.537171488E0,1.091338830E1,1.398932631E1
8.492423750E0,6.190366520E0,9.418128963E0,1.225309300E1,1.664812539E1
8.502491750E0,4.981676878E0,9.750005229E0,1.214385298E1,1.635092877E1
8.512558750E0,2.259804716E0,9.062196082E0,1.200672174E1,1.521155752E1
8.522626750E0,2.647522768E-1,8.673006577E0,1.255161558E1,1.525890528E1
8.532693750E0,2.231662944E-1,8.555474619E0,1.305812946E1,1.561283748E1
8.542761750E0,1.498264226E0,8.823969991E0,1.354801738E1,1.623748801E1
8.552829750E0,3.347146214E0,8.890541126E0,1.396974313E1,1.689375128E1
8.562896750E0,5.298015922E0,8.073875719E0,1.412105153E1,1.710732411E1
8.572964750E0,5.343432416E0,6.476442715E0,1.359888348E1,1.598205907E1
8.583031750E0,2.941160583E0,4.268418310E0,1.169868106E1,1.279566173E1
8.593099750E0,4.074378604E-1,2.079396771E0,9.050046737E0,9.294796527E0
8.603167750E0,-1.331622381E0,-1.249555832E-1,6.929691390E0,7.057581372E0
8.613234750E0,-2.792163003E0,-1.862646334E0,5.320237681E0,6.290513062E0
8.623302125E0,-3.921336944E0,-2.895858110E0,3.240397691E0,5.853465198E0
8.633369125E0,-4.466846496E0,-3.650231375E0,3.211302531E-1,5.777545444E0
8.643437125E0,-4.111906181E0,-4.296465064E0,-2.575861048E0,6.480929302E0
8.653505125E0,-2.630423756E0,-4.538995290E0,-4.726321954E0,7.061142017E0
8.663572125E0,-4.229937199E-1,-4.264707667E0,-6.175362564E0,7.516765127E0
8.673640125E0,1.289775028E0,-3.703117102E0,-7.419588075E0,8.392072634E0
8.683708125E0,2.101362129E0,-3.400071702E0,-8.504081102E0,9.396574150E0
8.693775125E0,1.612953853E0,-3.441720834E0,-8.795528550E0,9.581669213E0
8.703843125E0,-3.003819931E-1,-3.817231947E0,-8.581357319E0,9.396870890E0
8.713910125E0,-2.031424752E0,-4.432764246E0,-8.382501701E0,9.697547120E0
8.723978125E0,-2.246606673E0,-4.661129007E0,-8.768407409E0,1.018127368E1
8.734046125E0,-1.698174098E0,-4.549512677E0,-9.039263887E0,1.026109899E1
8.744113125E0,-1.550323741E0,-4.597364536E0,-9.135764580E0,1.034415095E1
8.754181125E0,-1.665759180E0,-4.712136608E0,-9.760128513E0,1.096535880E1
8.764248125E0,-1.295493897E0,-4.742124639E0,-1.054850685E1,1.163774236E1
8.774316125E0,-2.751109117E-1,-4.672878402E0,-1.078900867E1,1.176070520E1
8.784384125E0,6.781960317E-1,-4.570252751E0,-1.010513002E1,1.111129213E1
8.794451125E0,7.085650080E-1,-4.666174570E0,-9.402091219E0,1.052019813E1
8.804519125E0,3.410148793E-1,-4.917676764E0,-8.919567874E0,1.019110038E1
8.814586125E0,-3.999106666E-1,-5.260939313E0,-8.035298129E0,9.612670129E0
8.824654125E0,-1.181286081E0,-5.300858839E0,-6.734197921E0,8.651240540E0
8.834722125E0,-1.400743779E0,-5.023837057E0,-5.098306611E0,7.293404706E0
8.844789125E0,-4.423506349E-1,-4.553209287E0,-3.049375003E0,5.497824734E0
8.854857125E0,7.042067859E-1,-3.452693719E0,-1.762449616E0,3.939953015E0
8.864925125E0,1.650628925E0,-2.084085653E0,-1.533392544E0,3.069084807E0
8.874992125E0,2.165801076E0,-2.019751078E-1,-1.391249655E0,2.582065810E0
8.885060125E0,1.737675548E0,1.744917324E0,-4.424517918E-1,2.502002471E0
8.895127125E0,-8.904226790E-2,3.537605816E0,1.251017051E0,3.753348784E0
8.905195125E0,-2.701885209E0,5.578711510E0,3.528438551E0,7.132466922E0
8.915263125E0,-3.600973846E0,7.059197862E0,6.936581165E0,1.053164020E1
8.925330125E0,-2.694793999E0,8.309998566E0,1.024033870E1,1.346040592E1
8.935398125E0,-1.368730858E-1,9.884636199E0,1.203487257E1,1.557443177E1
8.945465125E0,2.256326792E0,1.100918441E1,1.358462095E1,1.763051554E1
8.955533125E0,1.755869159E0,1.121897432E1,1.541402528E1,1.914525102E1
8.965601125E0,3.654577026E-1,1.009950968E1,1.576750350E1,1.872826264E1
8.975668125E0,-1.093502417E-1,9.322191941E0,1.535282832E1,1.796175263E1
8.985736125E0,2.435549507E-1,9.173715348E0,1.515137770E1,1.771385386E1
8.995803125E0,6.055142641E-1,7.979802790E0,1.458413814E1,1.663553382E1
9.005871125E0,2.724995452E-1,6.429581959E0,1.293658573E1,1.444884184E1
9.015939125E0,3.015204459E-1,4.781327881E0,9.879041584E0,1.097941135E1
9.026006125E0,9.547590995E-1,3.157363136E0,6.191809613E0,7.015626357E0
9.036074125E0,1.436875186E0,1.814417329E0,3.123325324E0,3.887400369E0
9.046142125E0,1.711905991E0,8.531444317E-1,1.161866308E0,2.237947913E0
9.056209125E0,1.431792786E0,1.780904013E-1,-7.275865853E-2,1.444659336E0
9.066277125E0,7.628584519E-1,-8.891451538E-1,-1.104659489E0,1.610218839E0
9.076344125E0,-8.423586577E-2,-2.257455597E0,-2.169490669E0,3.132074587E0
9.086412125E0,-1.025318035E0,-3.332287270E0,-2.545231578E0,4.316667616E0
9.096480125E0,-1.234859148E0,-3.836593832E0,-2.636874404E0,4.816371661E0
9.106547125E0,-7.713486090E-1,-4.048598084E0,-3.263028170E0,5.256755460E0
9.116615125E0,-3.969663012E-1,-4.132826641E0,-4.531675746E0,6.146049410E0
9.126682125E0,1.382682315E-1,-4.411768649E0,-6.237345974E0,7.641158650E0
9.136750125E0,7.771826684E-1,-4.618717983E0,-7.965802217E0,9.240702011E0
9.146818125E0,9.847564852E-1,-4.737169123E0,-9.635116796E0,1.078174347E1
9.156885125E0,1.347078034E0,-4.946291867E0,-1.083560630E1,1.198710918E1
9.166953125E0,1.465841416E0,-5.150186616E0,-1.096931341E1,1.220651261E1
9.177020125E0,7.509950361E-1,-5.401263717E0,-1.036522353E1,1.171219459E1
9.187088125E0,-3.832168660E-1,-5.635831790E0,-9.889121014E0,1.138877384E1
9.197156125E0,-1.298262261E0,-5.830242940E0,-9.355105333E0,1.109933392E1
9.207223125E0,-1.620535060E0,-5.951815909E0,-8.154838021E0,1.022504913E1
9.217291125E0,-1.609738469E0,-5.956511223E0,-6.658492851E0,9.077819723E0
9.227358125E0,-1.247381253E0,-5.992604331E0,-5.354505873E0,8.132527270E0
9.237426125E0,-5.292063457E-1,-5.938981855E0,-4.773241181E0,7.637761204E0
9.247494125E0,2.117867357E-1,-5.706434580E0,-5.518309772E0,7.941032173E0
9.257561125E0,9.868407252E-1,-5.648320858E0,-6.549669735E0,8.704915667E0
9.267629125E0,1.355182567E0,-5.435825440E0,-7.093162583E0,9.038676531E0
9.277697125E0,1.123303044E0,-5.000547012E0,-7.222487791E0,8.856162263E0
9.287764125E0,8.034781820E-1,-4.573485092E0,-7.341713687E0,8.686950152E0
9.297832125E0,6.299032930E-1,-3.781277418E0,-6.955753015E0,7.942124217E0
9.307899125E0,4.722790235E-1,-2.617966847E0,-5.833618537E0,6.411544520E0
9.317967125E0,6.092877647E-1,-8.629952359E-1,-4.446542040E0,4.570309450E0
9.328035125E0,8.466446668E-1,1.949782711E0,-3.196533633E0,3.838787189E0
9.338102125E0,2.062620122E-1,5.397284687E0,-2.905197283E0,6.132976216E0
9.348170125E0,-8.731562349E-1,8.191671971E0,-3.145807868E0,8.818276398E0
9.358237125E0,-1.429416478E0,1.013556595E1,-2.025483103E0,1.043434284E1
9.368305125E0,-9.952788422E-1,1.115611207E1,2.140336452E0,1.140308979E1
9.378373125E0,-2.344411880E-2,1.178860890E1,9.218470522E0,1.496502750E1
9.388440125E0,1.716567099E0,1.202107197E1,1.722392680E1,2.107407005E1
9.398508125E0,2.923721262E0,1.116760419E1,2.352154061E1,2.620164884E1
9.408575125E0,3.473602778E0,9.635954118E0,2.710456234E1,2.897541764E1
9.418643125E0,4.275425321E0,9.666613408E0,2.706511936E1,2.905586623E1
9.428711125E0,4.686589246E0,9.568594193E0,2.366866123E1,2.595626395E1
9.438778125E0,3.727601148E0,8.621247609E0,1.865748515E1,2.088833820E1
9.448846125E0,1.382571802E0,7.949049359E0,1.252262625E1,1.489681371E1
9.458913125E0,-4.598884812E-1,6.701468132E0,7.127610869E0,9.794080316E0
9.468981125E0,-9.448278961E-1,4.940313674E0,3.937181729E0,6.387550307E0
9.479049125E0,-1.092762744E0,3.164620700E0,1.886028764E0,3.842663021E0
9.489116125E0,-1.636114674E0,1.421720080E0,-8.492612958E-2,2.169186866E0
9.499184125E0,-2.003865947E0,-3.599119109E-1,-1.914364956E0,2.794603461E0
9.509252125E0,-1.911329082E0,-1.902623162E0,-2.847988125E0,3.922268491E0
9.519319125E0,-1.258575747E0,-3.027418708E0,-2.675445562E0,4.231700119E0
9.529387125E0,-4.926249951E-2,-3.974016849E0,-2.515486207E0,4.703499502E0
9.539454125E0,6.122286218E-1,-4.747277205E0,-3.161117048E0,5.736211793E0
9.549522125E0,-5.454575121E-2,-5.503828558E0,-3.864249408E0,6.725141450E0
9.559590125E0,-1.694801716E0,-6.240405237E0,-4.376280727E0,7.808126753E0
9.569657125E0,-3.187315790E0,-6.515830729E0,-4.804270016E0,8.700347259E0
9.579725125E0,-3.003686322E0,-6.614972025E0,-5.667986798E0,9.214448478E0
9.589792125E0,-1.829141496E0,-6.609742860E0,-7.285126088E0,1.000537463E1
9.599860125E0,-6.345559224E-1,-6.559984224E0,-8.920231533E0,1.109083337E1
9.609928125E0,4.534457266E-1,-6.623060478E0,-9.900945253E0,1.192053942E1
9.619995125E0,1.489096377E0,-6.503864987E0,-1.002334151E1,1.204097350E1
9.630063458E0,1.664499983E0,-6.181681066E0,-9.546663626E0,1.149445638E1
9.640130458E0,1.166988762E0,-5.989131669E0,-8.878744953E0,1.077328515E1
9.650198458E0,7.980157131E-1,-5.960500778E0,-8.518459990E0,1.042729875E1
9.660266458E0,7.017997795E-1,-5.900765038E0,-8.223129407E0,1.014551173E1
9.670333458E0,7.247460079E-1,-5.735735562E0,-7.699913533E0,9.628737593E0
9.680401458E0,7.185877204E-1,-5.583076456E0,-7.045817678E0,9.018351167E0
9.690468458E0,4.663829836E-1,-5.474365608E0,-6.115664831E0,8.221164651E0
9.700536458E0,1.864434412E-1,-5.268495669E0,-5.262401701E0,7.448803893E0
9.710604458E0,1.000277334E-1,-4.876066223E0,-4.673289462E0,6.754677028E0
9.720671458E0,8.339679946E-2,-4.419340208E0,-4.008514836E0,5.967052379E0
9.730739458E0,3.971750468E-1,-3.757326638E0,-3.704907519E0,5.291652975E0
9.740807458E0,9.257726973E-1,-2.821852241E0,-3.076181563E0,4.275838884E0
9.750874458E0,4.860115018E-1,-1.584807696E0,-1.696114123E0,2.371629341E0
9.760942458E0,-9.279507852E-1,4.122287035E-1,1.374306178E-1,1.024652301E0
9.771009458E0,-2.908916989E0,3.689154536E0,1.954745243E0,5.088485846E0
9.781077458E0,-3.839863011E0,7.278341564E0,2.727701544E0,8.669438250E0
9.791145458E0,-2.507887166E0,1.088895747E1,3.537664872E0,1.172066404E1
9.801212458E0,1.366489913E0,1.299849605E1,5.907385256E0,1.434313058E1
9.811280458E0,5.375455277E0,1.389370243E1,9.854597883E0,1.786179123E1
9.821347458E0,6.377632372E0,1.411006812E1,1.462842379E1,2.130161964E1
9.831415458E0,4.937445615E0,1.347088442E1,1.890561643E1,2.373321362E1
9.841483458E0,3.131298003E0,1.199157043E1,2.051448366E1,2.396762042E1
9.851550458E0,1.812118789E0,1.031603675E1,1.886782821E1,2.158006789E1
9.861618458E0,1.607827307E0,9.215377344E0,1.455343909E1,1.730060339E1
9.871685458E0,2.248100344E0,8.306258687E0,9.068668950E0,1.250154571E1
9.881753458E0,2.842302877E0,7.159072398E0,4.993735591E0,9.179782045E0
9.891821458E0,2.398781922E0,5.918516015E0,3.108439482E0,7.102491292E0
9.901888458E0,8.251739833E-1,4.197151276E0,2.943595948E0,5.192470322E0
9.911956458E0,-8.978136510E-1,2.273498018E0,3.278229176E0,4.089211308E0
9.922023458E0,-2.256343164E0,5.407177591E-1,3.830464781E0,4.478383705E0
9.932091458E0,-3.089695063E0,-9.315462381E-1,4.326860061E0,5.397750639E0
9.942159458E0,-3.013409657E0,-2.052974373E0,3.687501528E0,5.185846994E0
9.952226458E0,-2.209056731E0,-3.120382420E0,2.108446323E0,4.366035271E0
9.962294458E0,-1.504665758E0,-4.266218002E0,-2.054542011E-1,4.528448577E0
9.972361458E0,-1.041601362E0,-5.258802740E0,-2.769464112E0,6.034059257E0
9.982429458E0,-2.845295884E-1,-6.090474442E0,-4.706526205E0,7.702351909E0
9.992497458E0,-3.023010492E-4,-6.392786601E0,-6.004623867E0,8.770588829E0
1.000256446E1,6.884511709E-2,-6.636378681E0,-6.646987869E0,9.393013860E0
1.001263246E1,3.218161315E-2,-7.010322740E0,-7.089641390E0,9.970389943E0
1.002270046E1,-1.434231185E-1,-7.419154211E0,-7.969071395E0,1.088900906E1
1.003276746E1,-5.634660593E-1,-7.872160227E0,-8.985659537E0,1.195953502E1
1.004283546E1,-7.747265455E-1,-8.074810688E0,-9.504608697E0,1.249561344E1
1.005290246E1,-8.078033674E-1,-7.813209184E0,-9.853871659E0,1.260149081E1
1.006297046E1,-9.186157785E-1,-8.020480115E0,-1.034584820E1,1.312282482E1
1.007303846E1,-6.515622568E-1,-8.271922667E0,-1.068276827E1,1.352666906E1
1.008310546E1,6.922547847E-2,-7.933192295E0,-1.017102581E1,1.289922859E1
1.009317346E1,2.852698642E-1,-7.641005759E0,-8.784535199E0,1.164621855E1
1.010324046E1,2.735415921E-1,-7.448466888E0,-7.341081603E0,1.046164247E1
1.011330846E1,-1.517315917E-3,-7.097366731E0,-6.260622570E0,9.464037816E0
1.012337646E1,-2.892643896E-1,-6.878037672E0,-5.629222682E0,8.892650005E0
1.013344346E1,-2.804011435E-1,-6.547568246E0,-5.719629992E0,8.698473543E0
1.014351146E1,7.664442569E-2,-5.873707048E0,-6.019793299E0,8.410958341E0
1.015357846E1,3.794840035E-1,-4.959373843E0,-6.150414249E0,7.909929991E0
1.016364646E1,4.758888752E-1,-4.075563689E0,-5.923162798E0,7.205591380E0
1.017371446E1,4.268184567E-1,-3.321879226E0,-4.935968024E0,5.964967386E0
1.018378146E1,3.542611617E-1,-2.351504552E0,-3.252032481E0,4.028745448E0
1.019384946E1,7.484436035E-1,-9.995014089E-1,-1.628900964E0,2.052434955E0
1.020391646E1,8.915629774E-1,4.682999933E-1,-1.729676557E-1,1.021815657E0
1.021398446E1,5.490786928E-1,2.321812391E0,1.169070078E0,2.656882579E0
1.022405246E1,-2.752518296E-1,4.855897422E0,2.514520832E0,5.475245963E0
1.023411946E1,-9.709389299E-1,7.262159395E0,3.874470341E0,8.288136214E0
1.024418746E1,-3.309900474E-2,8.949231969E0,5.024812957E0,1.026345915E1
1.025425546E1,8.588881516E-1,1.048689240E1,6.310116912E0,1.226907398E1
1.026432246E1,1.684515586E-1,1.155250067E1,8.559613863E0,1.437899987E1
1.027439046E1,-8.684261298E-1,1.171049711E1,1.150455584E1,1.643912138E1
1.028445746E1,-2.032614660E0,1.139439664E1,1.394419898E1,1.812193374E1
1.029452546E1,-2.626225162E0,1.074095392E1,1.541446616E1,1.897026401E1
1.030459346E1,-2.152100173E0,1.070682723E1,1.585654490E1,1.925351138E1
1.031466046E1,-6.812172881E-1,1.056131693E1,1.521006738E1,1.852974964E1
1.032472846E1,9.853224957E-1,1.025162383E1,1.393153742E1,1.732496425E1
1.033479546E1,1.896743202E0,9.658605062E0,1.236947364E1,1.580791462E1
1.034486346E1,2.471663372E0,8.370319027E0,1.042686020E1,1.359745469E1
1.035493146E1,2.565583397E0,6.130641890E0,7.861763293E0,1.029438246E1
1.036499846E1,1.804643708E0,3.543574653E0,4.987527017E0,6.378799729E0
1.037506646E1,7.993816227E-1,1.040807894E0,2.369674190E0,2.708809299E0
1.038513346E1,-3.356705242E-1,-1.259327699E0,1.231996644E-1,1.309106226E0
1.039520146E1,-1.637548411E0,-2.888698195E0,-1.877462593E0,3.814578332E0
1.040526946E1,-2.201022364E0,-3.801528080E0,-3.746215759E0,5.773235462E0
1.041533646E1,-2.088995267E0,-4.283932142E0,-5.269424792E0,7.105125858E0
1.042540446E1,-1.355160640E0,-4.526837760E0,-6.402284233E0,7.957258564E0
1.043547146E1,-2.309144764E-1,-4.848681373E0,-7.232590025E0,8.710533337E0
1.044553946E1,8.321330470E-1,-5.088084508E0,-7.628325487E0,9.207192792E0
1.045560746E1,9.532119262E-1,-5.041113240E0,-7.405537800E0,9.009074635E0
1.046567446E1,2.067692399E-1,-5.408647581E0,-7.001963561E0,8.850068694E0
1.047574246E1,-7.507740113E-1,-5.887183710E0,-6.998770396E0,9.176348986E0
1.048580946E1,-1.697249653E0,-6.123653882E0,-7.306511695E0,9.683228098E0
1.049587746E1,-2.149421563E0,-6.373310695E0,-7.461057698E0,1.004522196E1
1.050594546E1,-2.300729086E0,-6.592888845E0,-7.426835114E0,1.019398928E1
1.051601246E1,-2.389354164E0,-6.783193495E0,-7.427505205E0,1.033869242E1
1.052608046E1,-2.403052436E0,-6.884773664E0,-7.570721642E0,1.051145069E1
1.053614746E1,-2.099821387E0,-6.791638044E0,-7.775951310E0,1.053570197E1
1.054621546E1,-1.341660881E0,-6.607113951E0,-7.549803228E0,1.012193348E1
1.055628346E1,-3.488673976E-1,-6.204396329E0,-7.080015703E0,9.420343127E0
1.056635046E1,3.037526205E-1,-5.917876330E0,-6.780081022E0,9.004611295E0
1.057641846E1,1.016448979E0,-5.421924854E0,-6.407521584E0,8.454984950E0
1.058648646E1,1.888209191E0,-4.947971188E0,-5.705908331E0,7.784930488E0
1.059655346E1,2.754062546E0,-4.569254631E0,-4.939981552E0,7.270926085E0
1.060662146E1,3.101592393E0,-4.019889425E0,-4.503738334E0,6.786976156E0
1.061668846E1,2.930307566E0,-3.446918424E0,-4.512205687E0,6.389675204E0
1.062675662E1,2.049770975E0,-3.427584021E0,-4.501704088E0,6.017909352E0
1.063682462E1,7.152857977E-1,-3.600247622E0,-3.738165312E0,5.239016760E0
1.064689163E1,9.667435527E-2,-2.888758421E0,-2.459245348E0,3.795017632E0
1.065695962E1,-1.292053396E-1,-1.557334553E0,-9.374033940E-1,1.822281551E0
1.066702663E1,-1.639759244E0,1.320108336E-1,9.120867044E-1,1.880994257E0
1.067709462E1,-3.572694957E0,2.369898723E0,3.407252668E0,5.476307146E0
1.068716262E1,-5.947074986E0,4.212976180E0,6.484834639E0,9.755508674E0
1.069722962E1,-6.772569104E0,5.246812440E0,9.734692540E0,1.296768954E1
1.070729762E1,-5.017729640E0,6.926791171E0,1.220186905E1,1.490112932E1
1.071736463E1,-2.228173618E0,9.028600904E0,1.329664909E1,1.622594431E1
1.072743262E1,2.430851634E-1,1.069572453E1,1.367075043E1,1.735934996E1
1.073750062E1,1.185376793E0,1.165252548E1,1.305382007E1,1.753820648E1
1.074756762E1,1.199697209E0,1.160827960E1,1.119022122E1,1.616825531E1
1.075763562E1,1.471869603E0,1.137522245E1,1.010074695E1,1.528355897E1
1.076770263E1,1.732020998E0,1.100358278E1,1.019099989E1,1.509752329E1
1.077777062E1,2.377538111E0,9.944642665E0,1.044912406E1,1.461960324E1
1.078783862E1,3.328914303E0,8.579452296E0,9.918388667E0,1.353008152E1
1.079790562E1,3.688613668E0,7.017765661E0,8.365084015E0,1.152516968E1
1.080797362E1,3.288401870E0,4.965881209E0,6.327480218E0,8.689681752E0
1.081804062E1,2.446224476E0,2.809157935E0,4.409532673E0,5.772292516E0
1.082810862E1,1.927138783E0,9.508052123E-1,3.058114836E0,3.737641073E0
1.083817662E1,2.077342059E0,-7.457585621E-1,2.129558280E0,3.067005760E0
1.084824362E1,2.298638414E0,-2.236607934E0,1.060771458E0,3.378074850E0
1.085831162E1,1.365323832E0,-3.725741733E0,-5.336812198E-1,4.003757769E0
1.086837862E1,-2.333170608E-2,-4.940704268E0,-2.233689004E0,5.422219988E0
1.087844662E1,-3.254440364E-1,-5.497200739E0,-3.975527185E0,6.791902987E0
1.088851462E1,8.430003896E-2,-5.431280984E0,-5.499427943E0,7.729788310E0
1.089858162E1,8.082901481E-1,-5.151621523E0,-6.440448425E0,8.286851826E0
1.090864962E1,1.405911694E0,-4.674708581E0,-7.179994905E0,8.682270144E0
1.091871662E1,1.599116417E0,-4.127035559E0,-8.107918793E0,9.237312541E0
1.092878462E1,8.794921316E-1,-3.884041064E0,-8.782179941E0,9.642923100E0
1.093885262E1,7.147972628E-2,-3.832347000E0,-8.652217387E0,9.463237215E0
1.094891962E1,-1.529057126E-1,-3.878953986E0,-8.341345489E0,9.200418944E0
1.095898762E1,-3.714342879E-1,-4.024664261E0,-8.034112313E0,8.993489118E0
1.096905562E1,-7.143983366E-1,-4.456081772E0,-7.800733564E0,9.012129265E0
1.097912262E1,-1.192459379E0,-4.944249435E0,-7.699176199E0,9.227398116E0
1.098919062E1,-1.740310011E0,-5.303478391E0,-7.553553048E0,9.392109754E0
1.099925762E1,-1.891799089E0,-5.555854159E0,-7.248773364E0,9.326903801E0
1.100932562E1,-1.346705420E0,-5.401572450E0,-6.789392713E0,8.779889170E0
1.101939262E1,-1.015267695E0,-5.017943648E0,-6.539918334E0,8.305483656E0
1.102946062E1,-8.283465363E-1,-4.726216119E0,-6.176658307E0,7.821405541E0
1.103952862E1,-4.061985431E-1,-4.488040314E0,-6.059345035E0,7.551368444E0
1.104959562E1,6.108729449E-1,-4.086721931E0,-6.665024191E0,7.842002892E0
1.105966362E1,1.851346882E0,-3.407362595E0,-6.696716684E0,7.738450716E0
1.106973163E1,2.879554026E0,-2.633169023E0,-5.875272347E0,7.052959354E0
1.107979862E1,3.142217970E0,-1.715803453E0,-5.354615216E0,6.441228095E0
1.108986662E1,2.513314551E0,-3.284269935E-1,-5.105827884E0,5.700358998E0
1.109993362E1,1.182988863E0,1.845360210E0,-5.079242933E0,5.532045348E0
1.111000162E1,-5.643948164E-1,4.505779597E0,-4.109809662E0,6.124632784E0
1.112006963E1,-2.248992922E0,6.882560493E0,-2.143039035E0,7.551173711E0
1.113013662E1,-3.350261318E0,8.683571327E0,6.233061719E-1,9.328299549E0
1.114020463E1,-2.748643931E0,8.867363348E0,4.661684493E0,1.038828564E1
1.115027162E1,-1.099872374E0,9.163752277E0,8.580063331E0,1.260164917E1
1.116033962E1,-2.570026696E-1,9.607872280E0,1.179040399E1,1.521153794E1
1.117040762E1,-2.657992208E-1,8.461494076E0,1.559536497E1,1.774494125E1
1.118047462E1,-1.230819453E0,6.916710572E0,2.006824287E1,2.126241223E1
1.119054263E1,-2.133119234E0,5.591061414E0,2.395759087E1,2.469364950E1
1.120060962E1,-1.749822407E0,4.822246696E0,2.622704262E1,2.672402863E1
1.121067763E1,-5.450364761E-1,4.220688073E0,2.564403078E1,2.599476076E1
1.122074562E1,5.038588485E-1,4.054216966E0,2.277494005E1,2.313846242E1
1.123081262E1,1.260353301E0,3.960855059E0,1.865553101E1,1.911297205E1
1.124088062E1,1.737420755E0,3.254290676E0,1.344125424E1,1.393830528E1
1.125094762E1,1.852350995E0,2.344387906E0,7.918785340E0,8.463717867E0
1.126101563E1,1.777095868E0,1.309399161E0,3.149172356E0,3.845761617E0
1.127108362E1,1.431944814E0,1.072262406E-2,-5.989729840E-1,1.552207963E0
1.128115063E1,7.085743636E-1,-1.030419731E0,-3.727257916E0,3.931449354E0
1.129121862E1,3.758692548E-2,-1.807424060E0,-6.122301421E0,6.383632915E0
1.130128562E1,1.743626917E-2,-2.565301561E0,-7.540165848E0,7.964620338E0
1.131135363E1,2.146091866E-1,-3.112523178E0,-8.591922653E0,9.140842003E0
1.132142162E1,8.309419692E-2,-3.364124190E0,-9.573146836E0,1.014738274E1
1.133148863E1,-6.090810657E-2,-3.440720960E0,-1.040389234E1,1.095825015E1
1.134155662E1,-8.889434248E-2,-3.352973549E0,-1.078203411E1,1.129170463E1
1.135162362E1,3.536696062E-1,-3.204785809E0,-1.083472454E1,1.130429079E1
1.136169162E1,7.156335609E-1,-3.177534276E0,-1.068356232E1,1.116903574E1
1.137175962E1,6.823142257E-1,-3.406586085E0,-1.031490941E1,1.088428857E1
1.138182663E1,2.759754226E-1,-3.854404451E0,-9.878632278E0,1.060754316E1
1.139189462E1,-5.958331388E-1,-4.501754374E0,-9.151746190E0,1.021642148E1
1.140196163E1,-1.457614529E0,-5.037417800E0,-8.111721822E0,9.659205409E0
1.141202962E1,-1.840038513E0,-5.355544338E0,-7.093650826E0,9.076754867E0
1.142209762E1,-1.905480989E0,-5.669960234E0,-6.187765093E0,8.606261889E0
1.143216462E1,-1.709623969E0,-5.725694139E0,-5.653112066E0,8.225816891E0
1.144223262E1,-1.296469944E0,-5.558232222E0,-5.623434523E0,8.012352687E0
1.145229963E1,-1.637546365E-1,-5.372277900E0,-5.602061781E0,7.763458096E0
1.146236762E1,1.731947177E0,-5.006007727E0,-5.556687972E0,7.677013456E0
1.147243562E1,3.248965324E0,-4.367981189E0,-5.520994229E0,7.753477453E0
1.148250262E1,3.077825800E0,-3.890267764E0,-5.372165633E0,7.312137753E0
1.149257062E1,1.721519983E0,-3.965241348E0,-5.340750298E0,6.870981279E0
1.150263862E1,5.781762286E-1,-3.869014304E0,-5.834319618E0,7.024446231E0
1.151270562E1,4.261719739E-1,-3.297967038E0,-5.894262350E0,6.767609458E0
1.152277362E1,5.075353950E-1,-2.072688260E0,-4.933512193E0,5.375236865E0
1.153284062E1,3.539676315E-1,5.194900274E-2,-3.581537701E0,3.599361622E0
1.154290862E1,-2.496772413E-1,2.481118612E0,-2.813566736E0,3.759580571E0
1.155297662E1,-1.171770615E0,4.916748810E0,-1.364041391E0,5.235272118E0
1.156304362E1,-2.395070110E0,7.170631759E0,1.696477236E0,7.748054960E0
1.157311162E1,-3.053616573E0,8.172813531E0,6.117500272E0,1.065566820E1
1.158317862E1,-3.015273457E0,7.587000875E0,1.089482924E1,1.361439534E1
1.159324662E1,-3.268520167E0,7.000865453E0,1.516815337E1,1.702257964E1
1.160331462E1,-4.362051528E0,7.197428963E0,1.874771237E1,2.055011426E1
1.161338162E1,-5.311941651E0,7.064711786E0,2.110862158E1,2.288450965E1
1.162344962E1,-4.411358466E0,6.194250825E0,2.057265644E1,2.193314888E1
1.163351696E1,-2.586614369E0,6.393726248E0,1.798680133E1,1.926383481E1
1.164358496E1,-6.049763203E-1,6.823703590E0,1.583785252E1,1.725591201E1
1.165365296E1,1.125195495E0,6.974906740E0,1.500528034E1,1.658534977E1
1.166371996E1,1.999478781E0,6.762294962E0,1.439149812E1,1.602628362E1
1.167378796E1,1.883027388E0,5.935375292E0,1.225457118E1,1.374587162E1
1.168385496E1,1.274990051E0,4.632697506E0,8.991328998E0,1.019467915E1
1.169392296E1,1.516309903E0,3.242305638E0,5.993102514E0,6.980617402E0
1.170399096E1,2.111943250E0,2.035370745E0,3.607653120E0,4.649537547E0
1.171405796E1,2.254728456E0,8.334726441E-1,1.133043044E0,2.657491975E0
1.172412596E1,2.286052867E0,-5.584184504E-1,-1.509063449E0,2.795557434E0
1.173419296E1,2.584864883E0,-1.801723024E0,-3.922061414E0,5.030934113E0
1.174426096E1,2.687065441E0,-2.831094350E0,-5.754464779E0,6.953364710E0
1.175432896E1,2.283482723E0,-3.640596333E0,-7.479503909E0,8.626193467E0
1.176439596E1,1.749597728E0,-4.118399806E0,-8.662226651E0,9.749691263E0
1.177446396E1,1.189283903E0,-4.601337719E0,-9.345619980E0,1.048462292E1
1.178453096E1,3.280024856E-1,-4.897835407E0,-1.005262671E1,1.118712121E1
1.179459896E1,-6.882006177E-1,-5.168208904E0,-1.043407333E1,1.166421406E1
1.180466696E1,-1.463267179E0,-5.462173578E0,-1.037720331E1,1.181790335E1
1.181473396E1,-1.715146810E0,-5.752283767E0,-1.005591986E1,1.171119214E1
1.182480196E1,-1.515432236E0,-5.765378022E0,-9.485701141E0,1.120333186E1
1.183486896E1,-1.184414049E0,-5.526978854E0,-9.186744114E0,1.078640808E1
1.184493696E1,-7.981841129E-1,-5.640217202E0,-9.240708067E0,1.085540573E1
1.185500496E1,-2.632746854E-1,-5.650373815E0,-9.300528007E0,1.088558033E1
1.186507196E1,4.358368367E-1,-5.448744863E0,-8.988577883E0,1.052013815E1
1.187513996E1,1.019849719E0,-5.153543503E0,-8.645681954E0,1.011666548E1
1.188520696E1,1.028594230E0,-5.155578918E0,-8.282387429E0,9.809991926E0
1.189527496E1,5.142737263E-1,-5.455396070E0,-7.630666713E0,9.394301370E0
1.190534296E1,7.872398794E-2,-5.340306494E0,-6.877374013E0,8.707660089E0
1.191540996E1,2.729106045E-1,-5.328624342E0,-6.343392831E0,8.288989696E0
1.192547796E1,3.972493064E-1,-5.320700780E0,-5.867866264E0,7.930921655E0
1.193554496E1,5.198060694E-1,-5.098001386E0,-5.675181212E0,7.646404271E0
1.194561296E1,1.273678520E0,-4.816652080E0,-5.804311708E0,7.649341712E0
1.195568096E1,1.977347070E0,-4.074108317E0,-5.499556582E0,7.124140833E0
1.196574796E1,2.064636644E0,-2.740286506E0,-5.085782459E0,6.134906505E0
1.197581596E1,1.424185559E0,-9.160593027E-1,-4.635951481E0,4.935535968E0
1.198588296E1,-2.260171044E-1,1.197171797E0,-3.792088920E0,3.982994152E0
1.199595096E1,-2.470568189E0,3.958897703E0,-1.732234713E0,4.977671675E0
1.200601896E1,-4.217680558E0,7.245255679E0,1.239095748E0,8.474545263E0
1.201608596E1,-4.209413179E0,9.956831771E0,4.667228823E0,1.177457783E1
1.202615396E1,-2.275298960E0,1.052117813E1,8.903373426E0,1.396933187E1
1.203622096E1,-6.675296871E-1,1.030882129E1,1.491079051E1,1.813970964E1
1.204628896E1,-1.311582950E0,9.880561860E0,2.156905239E1,2.376067705E1
1.205635696E1,-3.937260082E0,8.899409013E0,2.602660240E1,2.778642709E1
1.206642396E1,-5.828098766E0,7.390121031E0,2.585442997E1,2.751421765E1
1.207649196E1,-5.383784636E0,5.691639955E0,2.244812513E1,2.377600102E1
1.208655896E1,-4.216166714E0,5.430211528E0,1.861476306E1,1.984370587E1
1.209662696E1,-2.283115664E0,5.405784785E0,1.495725716E1,1.606719229E1
1.210669496E1,7.942331493E-2,5.222573392E0,1.125674149E1,1.240950482E1
1.211676196E1,2.090069255E0,4.857701288E0,7.834294828E0,9.452080551E0
1.212682996E1,3.387314247E0,3.820287702E0,5.369940183E0,7.409774187E0
1.213689696E1,4.001004088E0,2.078714401E0,3.503835222E0,5.710161865E0
1.214696496E1,4.355500308E0,3.278568900E-1,2.011232269E0,4.808630607E0
1.215703296E1,4.716571429E0,-1.360048327E0,6.458881187E-1,4.951055338E0
1.216709996E1,4.398196384E0,-2.473098571E0,-1.319164011E0,5.215413854E0
1.217716796E1,3.122086884E0,-3.137514762E0,-3.864088610E0,5.875594113E0
1.218723496E1,1.963117871E0,-3.867044377E0,-5.344208926E0,6.882472887E0
1.219730296E1,1.199444317E0,-4.406336001E0,-5.979032359E0,7.523515904E0
1.220737096E1,8.079859467E-1,-4.732619990E0,-5.951598977E0,7.646702795E0
1.221743796E1,1.119598833E0,-4.684824849E0,-5.596035056E0,7.383542087E0
1.222750596E1,1.515431067E0,-4.463493118E0,-5.493853208E0,7.238903591E0
1.223757296E1,1.398700323E0,-4.305412474E0,-5.524921219E0,7.142667123E0
1.224764096E1,1.025282367E0,-4.395729736E0,-6.159724186E0,7.636481251E0
1.225770896E1,1.216098064E-1,-4.682450294E0,-7.212676163E0,8.600164367E0
1.226777596E1,-1.063736143E0,-4.966187019E0,-8.140805288E0,9.595168515E0
1.227784396E1,-1.506248015E0,-5.138324370E0,-8.609882961E0,1.013909488E1
1.228791096E1,-1.392720522E0,-5.081342669E0,-9.096746694E0,1.051239812E1
1.229797896E1,-1.347319085E0,-4.937063792E0,-9.811001043E0,1.106551441E1
1.230804696E1,-9.795233734E-1,-4.927984820E0,-1.082139289E1,1.193092807E1
1.231811396E1,-3.635178888E-1,-4.937492977E0,-1.143873724E1,1.246417634E1
1.232818196E1,5.159046975E-1,-4.925893856E0,-1.135083254E1,1.238434444E1
1.233824896E1,1.397243928E0,-4.864619129E0,-1.104943664E1,1.215347111E1
1.234831696E1,1.457114300E0,-5.060023720E0,-1.019475381E1,1.147432034E1
1.235838496E1,7.058035143E-1,-5.181741700E0,-8.850287139E0,1.027989242E1
1.236845196E1,-3.255745755E-1,-4.848408893E0,-7.837715449E0,9.221868090E0
1.237851996E1,-6.350386101E-1,-4.281880939E0,-7.196248995E0,8.397843652E0
1.238858696E1,-1.262321766E-1,-3.784132029E0,-6.616478852E0,7.623213376E0
1.239865496E1,5.922574933E-1,-3.206437063E0,-5.940858811E0,6.776858490E0
1.240872296E1,9.247106968E-1,-2.333520271E0,-5.318818561E0,5.881346582E0
1.241878996E1,9.507334377E-1,-7.280970472E-1,-4.833083341E0,4.979228249E0
1.242885796E1,7.836618219E-1,1.553498780E0,-4.256280659E0,4.598196316E0
1.243892596E1,5.998809104E-1,3.799505528E0,-3.011910138E0,4.885458223E0
1.244899296E1,1.645295388E-1,5.664926950E0,-9.052881467E-1,5.739164918E0
1.245906096E1,-3.752156822E-1,6.990179667E0,2.510143606E0,7.436680678E0
1.246912796E1,-5.555616470E-1,7.300489647E0,7.456852965E0,1.045038057E1
1.247919596E1,-8.451273143E-3,6.503845106E0,1.195650702E1,1.361095635E1
1.248926396E1,1.599900529E-2,6.707242842E0,1.514722618E1,1.656580283E1
1.249933096E1,-1.604360493E-1,6.034125994E0,1.752340832E1,1.853392175E1
1.250939896E1,-1.264728187E0,5.916905692E0,1.848413392E1,1.944922922E1
1.251946596E1,-1.921556739E0,6.158130820E0,1.767296373E1,1.881352180E1
1.252953396E1,-1.457296441E0,5.845327002E0,1.599188455E1,1.708894181E1
1.253960096E1,-7.315838881E-1,5.824636045E0,1.420322830E1,1.536858140E1
1.254966896E1,-2.299048815E-1,5.432700103E0,1.310466044E1,1.418799534E1
1.255973696E1,-9.736973539E-2,4.711731104E0,1.229315110E1,1.316554043E1
1.256980396E1,-1.398436175E-1,3.977376074E0,1.117947638E1,1.186675056E1
1.257987196E1,-3.260451302E-2,3.130084705E0,9.443582477E0,9.948856382E0
1.258993996E1,4.324023284E-1,2.224229963E0,7.419153042E0,7.757448199E0
1.260000696E1,7.099357416E-1,1.474335373E0,5.427405449E0,5.668721501E0
1.261007496E1,6.682086951E-1,7.686147434E-1,3.795927617E0,3.930182942E0
1.262014196E1,7.223752543E-1,2.485195291E-1,2.611500996E0,2.720942009E0
1.263020933E1,1.052500425E0,-5.380140066E-2,1.488768348E0,1.824029312E0
1.264027633E1,1.360728066E0,-3.880960751E-1,-1.056632799E-1,1.418930640E0
1.265034433E1,1.255601707E0,-1.092994294E0,-1.856118502E0,2.493260529E0
1.266041233E1,7.232795262E-1,-1.835572263E0,-3.461877941E0,3.984602575E0
1.267047933E1,-8.271472176E-2,-2.421781360E0,-4.945738136E0,5.507466967E0
1.268054733E1,-1.158148649E0,-2.705497034E0,-6.445951239E0,7.085993923E0
1.269061533E1,-2.025945326E0,-2.734247794E0,-7.548910359E0,8.280495943E0
1.270068233E1,-2.351777617E0,-3.019168872E0,-8.173076656E0,9.024711666E0
1.271075033E1,-2.196925513E0,-3.193149265E0,-8.880561098E0,9.689532980E0
1.272081733E1,-2.090298027E0,-3.045183134E0,-9.572070948E0,1.025997214E1
1.273088533E1,-1.757866276E0,-3.238088041E0,-1.012660802E1,1.077606134E1
1.274095233E1,-1.293239649E0,-3.501092293E0,-1.057765288E1,1.121681133E1
1.275102033E1,-9.534686190E-1,-3.558724204E0,-1.031444397E1,1.095268802E1
1.276108833E1,-8.588786499E-1,-3.748621303E0,-9.697209549E0,1.043195606E1
1.277115533E1,-9.436916359E-1,-4.057747223E0,-9.294772008E0,1.018570828E1
1.278122333E1,-9.909029321E-1,-4.228916275E0,-8.898366455E0,9.901845638E0
1.279129033E1,-7.178002466E-1,-4.209591812E0,-8.479046833E0,9.493689252E0
1.280135833E1,-1.511014171E-1,-4.054932373E0,-7.958078629E0,8.932878800E0
1.281142633E1,3.668879315E-1,-3.722004193E0,-7.426355057E0,8.314966711E0
1.282149333E1,7.824577340E-1,-3.670509519E0,-6.783446680E0,7.752420854E0
1.283156133E1,1.185886817E0,-3.973557258E0,-5.682057538E0,7.034291911E0
1.284162933E1,1.563247404E0,-4.046720544E0,-4.696640317E0,6.393599915E0
1.285169633E1,1.733995602E0,-3.537547343E0,-4.385394198E0,5.895139034E0
1.286176433E1,1.896640876E0,-2.621758767E0,-4.265729760E0,5.354186776E0
1.287183133E1,1.832878451E0,-1.179260021E0,-3.363893809E0,4.008226437E0
1.288189933E1,1.745261140E0,8.198492163E-1,-1.518551141E0,2.454401506E0
1.289196733E1,8.184871075E-1,2.886379189E0,8.245813680E-1,3.111437031E0
1.290203433E1,-2.200397882E-1,4.596552358E0,3.223307449E0,5.618400306E0
1.291210233E1,-7.829509467E-2,5.888410456E0,4.949641737E0,7.692753808E0
1.292216933E1,1.282313104E0,6.192579691E0,6.214910207E0,8.866649819E0
1.293223733E1,2.107189464E0,6.029908982E0,7.606144660E0,9.932446141E0
1.294230433E1,9.896535283E-1,6.601729835E0,8.754162422E0,1.100897864E1
1.295237233E1,-1.135844298E0,7.067442436E0,9.826846998E0,1.215754115E1
1.296244033E1,-2.782994861E0,6.713856043E0,1.135527409E1,1.348195731E1
1.297250733E1,-3.097921803E0,6.148768843E0,1.302589727E1,1.473358332E1
1.298257533E1,-1.875102219E0,5.885856977E0,1.458121454E1,1.583575505E1
1.299264333E1,9.930121690E-2,5.727940055E0,1.582754855E1,1.683242262E1
1.300271033E1,1.753334683E0,5.553138127E0,1.676843221E1,1.775082658E1
1.301277833E1,2.319090951E0,5.472892109E0,1.713843700E1,1.813992154E1
1.302284533E1,2.214424037E0,5.137684100E0,1.598128238E1,1.693224315E1
1.303291333E1,1.593860647E0,3.940769873E0,1.304815061E1,1.372312986E1
1.304298133E1,1.278931805E0,2.686683326E0,9.377659798E0,9.838416394E0
1.305304833E1,1.253520391E0,1.496583444E0,5.879073038E0,6.194721556E0
1.306311633E1,5.533272797E-1,1.304271153E-1,2.521313542E0,2.584609117E0
1.307318333E1,-2.272211923E-1,-1.029521306E0,-3.696691597E-1,1.117228212E0
1.308325133E1,-7.449032606E-1,-1.933661352E0,-2.840584381E0,3.516084003E0
1.309331933E1,-9.115198168E-1,-2.649302368E0,-4.768048269E0,5.530276278E0
1.310338633E1,-8.175154464E-1,-3.141057006E0,-5.973582169E0,6.798400881E0
1.311345433E1,-7.357088064E-1,-3.479573370E0,-6.747978639E0,7.627838094E0
1.312352133E1,-6.299676123E-1,-3.592052749E0,-7.426008902E0,8.273168097E0
1.313358933E1,-3.428484200E-1,-3.495511710E0,-8.012818508E0,8.748794637E0
1.314365633E1,5.957742646E-2,-3.468944301E0,-8.168398883E0,8.874675450E0
1.315372433E1,2.838351037E-1,-3.380926164E0,-7.893685582E0,8.591943678E0
1.316379233E1,1.602635564E-1,-3.218296385E0,-7.580379488E0,8.236823977E0
1.317385933E1,-3.348194620E-1,-3.417038568E0,-7.757520887E0,8.483359414E0
1.318392733E1,-8.942369092E-1,-3.892497307E0,-8.246698363E0,9.162926870E0
1.319399433E1,-1.114864635E0,-4.226877351E0,-8.420176481E0,9.487296099E0
1.320406233E1,-9.842036310E-1,-4.548071923E0,-8.555879831E0,9.739440163E0
1.321413033E1,-8.492390764E-1,-4.969366735E0,-9.004771162E0,1.031996688E1
1.322419733E1,-7.711720231E-1,-5.292476855E0,-9.312241150E0,1.073884783E1
1.323426533E1,-5.533003825E-1,-5.558833900E0,-9.235988195E0,1.079399155E1
1.324433233E1,-2.329138770E-1,-5.557193171E0,-8.910893530E0,1.050431665E1
1.325440033E1,-1.119806117E-1,-5.349617600E0,-8.193326148E0,9.785782621E0
1.326446833E1,-9.981197119E-4,-5.168338712E0,-7.352876022E0,8.987575415E0
1.327453533E1,8.618868962E-2,-4.746991861E0,-6.676307563E0,8.192340501E0
1.328460333E1,-2.060666969E-1,-4.201682868E0,-6.264064826E0,7.545535803E0
1.329467033E1,-4.527168347E-1,-3.726304235E0,-5.720333996E0,6.841967321E0
1.330473833E1,-2.198912506E-1,-2.914056399E0,-4.628030843E0,5.473458353E0
1.331480633E1,2.563206101E-1,-1.985821440E0,-3.273458433E0,3.837279917E0
1.332487333E1,8.096730146E-1,-7.958060503E-3,-2.178867849E0,2.324456673E0
1.333494133E1,1.413331080E0,3.626847775E0,-1.461804498E0,4.157932409E0
1.334500833E1,1.937518468E0,7.202342963E0,-2.991365361E-1,7.464395799E0
1.335507633E1,2.331063856E0,8.631485499E0,2.301237209E0,9.232122904E0
1.336514433E1,1.986655691E0,8.743362030E0,6.042574051E0,1.081230233E1
1.337521133E1,1.625069576E0,7.494050612E0,9.615326895E0,1.229862419E1
1.338527933E1,8.478657116E-1,5.136243930E0,1.210688571E1,1.317864028E1
1.339534633E1,-1.512143762E0,4.036313669E0,1.318070582E1,1.386756693E1
1.340541433E1,-4.019511695E0,4.255161502E0,1.322627434E1,1.446365122E1
1.341548233E1,-5.675015152E0,5.152900894E0,1.194929740E1,1.419661555E1
1.342554933E1,-5.327599325E0,5.683775450E0,9.769403366E0,1.249519348E1
1.343561733E1,-3.513072068E0,6.170756128E0,7.943763476E0,1.065473063E1
1.344568433E1,-1.000295753E0,7.495232919E0,6.858618484E0,1.020880775E1
1.345575233E1,9.357641271E-1,8.831160897E0,6.769030954E0,1.116623649E1
1.346582033E1,1.982447596E0,8.416272295E0,8.611920716E0,1.220364356E1
1.347588733E1,2.245128497E0,6.922224496E0,1.119060597E1,1.334868742E1
1.348595533E1,1.859089180E0,5.224163250E0,1.244139790E1,1.362117748E1
1.349602233E1,1.124344726E0,3.381530766E0,1.148994248E1,1.202986615E1
1.350609033E1,5.406429148E-1,1.999732550E0,8.850565467E0,9.089759849E0
1.351615833E1,-6.976196051E-2,8.618304706E-1,5.222792078E0,5.293880956E0
1.352622533E1,-2.407852342E-2,-9.490206420E-2,1.554867613E0,1.557947197E0
1.353629333E1,3.663669446E-1,-1.128737154E0,-1.672137616E0,2.050443003E0
1.354636033E1,4.293668926E-1,-2.413303190E0,-4.460803984E0,5.089907700E0
1.355642833E1,4.277457520E-1,-3.495207655E0,-6.410813566E0,7.314230893E0
1.356649633E1,6.049997091E-1,-3.966779165E0,-6.849847661E0,7.938625484E0
1.357656333E1,5.095561928E-1,-4.048364781E0,-6.004510431E0,7.259686662E0
1.358663133E1,-5.006502986E-2,-4.186629211E0,-5.125083350E0,6.617918857E0
1.359669833E1,-9.144501489E-1,-4.219799881E0,-5.121503685E0,6.698711078E0
1.360676633E1,-1.627184806E0,-4.352424088E0,-6.067894249E0,7.642687122E0
1.361683433E1,-1.665362447E0,-4.542580803E0,-7.237858366E0,8.706036191E0
1.362690133E1,-1.357139045E0,-4.547785410E0,-8.057844408E0,9.351632746E0
1.363696908E1,-1.017307350E0,-4.578447039E0,-8.665869466E0,9.853648316E0
1.364703608E1,-6.289876190E-1,-4.747677155E0,-9.183806473E0,1.035752698E1
1.365710408E1,-5.487518334E-1,-4.821697057E0,-9.306460007E0,1.049571765E1
1.366717208E1,-8.056094921E-1,-4.829607756E0,-8.956090168E0,1.020713813E1
1.367723908E1,-8.685103297E-1,-5.000559291E0,-8.497526373E0,9.897871381E0
1.368730708E1,-7.381677067E-1,-5.163635212E0,-8.284685385E0,9.789996532E0
1.369737408E1,-5.159419370E-1,-5.213579205E0,-8.063291089E0,9.615834202E0
1.370744208E1,-4.384689608E-1,-5.309130310E0,-7.543301125E0,9.234744801E0
1.371751008E1,-3.813065806E-1,-5.655456800E0,-7.139631575E0,9.116135440E0
1.372757708E1,-4.278343374E-1,-5.969754581E0,-7.287911702E0,9.430517958E0
1.373764508E1,-2.028042430E-1,-5.884563573E0,-7.725515567E0,9.713537398E0
1.374771208E1,1.191160567E0,-5.501394947E0,-8.108415806E0,9.870694846E0
1.375778008E1,2.833505449E0,-5.078138979E0,-8.205118228E0,1.005684910E1
1.376784808E1,3.097208151E0,-4.710638552E0,-7.481396068E0,9.367715891E0
1.377791508E1,2.187178789E0,-4.104034951E0,-5.675886387E0,7.337747625E0
1.378798308E1,8.911826161E-1,-2.793452899E0,-3.113004404E0,4.276491783E0
1.379805008E1,1.272789744E-1,-1.677941562E0,-3.356342715E-1,1.715907395E0
1.380811808E1,-1.466727269E-1,-3.377772760E-1,2.171985676E0,2.202981651E0
1.381818608E1,-5.035850161E-1,2.472255988E0,4.243296332E0,4.936720703E0
1.382825308E1,-2.388122740E-1,5.617525327E0,6.155872625E0,8.337169177E0
1.383832108E1,1.986947613E0,7.624627123E0,8.643970474E0,1.169620131E1
1.384838808E1,4.187042317E0,8.863949744E0,1.113856575E1,1.483807856E1
1.385845608E1,2.937134775E0,9.686415589E0,1.283549205E1,1.634635323E1
1.386852408E1,-1.020907188E0,9.926411047E0,1.427933566E1,1.742054289E1
1.387859108E1,-4.090160970E0,9.760206281E0,1.493406944E1,1.830348255E1
1.388865908E1,-5.034051558E0,9.312330027E0,1.360179890E1,1.723572159E1
1.389872608E1,-4.364702948E0,9.366681651E0,1.249439356E1,1.621404414E1
1.390879408E1,-2.147829367E0,9.452601807E0,1.268723707E1,1.596655368E1
1.391886208E1,-1.360723096E-1,9.333592257E0,1.343801956E1,1.636199345E1
1.392892908E1,1.121640096E0,8.872960303E0,1.353901851E1,1.622629111E1
1.393899708E1,2.154502209E0,7.523886030E0,1.252034467E1,1.476515396E1
1.394906408E1,3.025637939E0,5.697781870E0,1.074836351E1,1.253580956E1
1.395913208E1,3.012674662E0,3.489648122E0,8.276664174E0,9.474018286E0
1.396920008E1,2.750628184E0,1.606952271E0,5.559470662E0,6.407492883E0
1.397926708E1,2.270689015E0,1.497547942E-1,3.144003417E0,3.881135477E0
1.398933508E1,1.150201990E0,-7.687574154E-1,1.006386505E0,1.710779466E0
1.399940208E1,-1.299131541E-1,-1.581224522E0,-1.180554594E0,1.977588827E0
1.400947008E1,-1.097642246E0,-2.876350629E0,-3.041861331E0,4.327947758E0
1.401953808E1,-1.639740240E0,-4.185498945E0,-4.188758767E0,6.144334747E0
1.402960508E1,-1.665853028E0,-5.130455187E0,-4.667870847E0,7.133418184E0
1.403967308E1,-1.416038341E0,-5.847897438E0,-5.185560517E0,7.943116951E0
1.404974008E1,-1.157525628E0,-5.958898056E0,-5.961159174E0,8.507864028E0
1.405980808E1,-8.286732495E-1,-5.495837168E0,-6.717432784E0,8.718648333E0
1.406987508E1,-5.040741357E-1,-4.922357460E0,-7.500420569E0,8.985544079E0
1.407994308E1,-2.648262441E-1,-4.494599721E0,-8.472185125E0,9.594242043E0
1.409001108E1,-3.275162897E-1,-4.400442592E0,-9.393191172E0,1.037801534E1
1.410007808E1,-5.312049240E-1,-4.440309493E0,-9.968298161E0,1.092545172E1
1.411014608E1,-6.297436640E-1,-4.704032952E0,-9.933037112E0,1.100862068E1
1.412021308E1,-9.941120303E-1,-5.051993739E0,-9.878269751E0,1.113961906E1
1.413028108E1,-1.482128250E0,-5.517802818E0,-9.481819759E0,1.107012909E1
1.414034908E1,-1.995637745E0,-5.970235223E0,-8.731522003E0,1.076409565E1
1.415041608E1,-2.118718419E0,-6.248798330E0,-7.928927920E0,1.031524824E1
1.416048408E1,-1.849469925E0,-6.392653284E0,-7.752817386E0,1.021727618E1
1.417055108E1,-1.124402613E0,-6.593477075E0,-7.976327205E0,1.040961175E1
1.418061908E1,-3.799280995E-1,-6.500803970E0,-8.168645051E0,1.044660517E1
1.419068708E1,2.409862688E-1,-6.327496591E0,-8.433788214E0,1.054628234E1
1.420075408E1,8.253371206E-1,-6.441078755E0,-8.364765927E0,1.058952246E1
1.421082208E1,1.192795448E0,-6.355387225E0,-7.604223264E0,9.981879543E0
1.422088908E1,1.552323197E0,-5.928684908E0,-6.337394173E0,8.815984173E0
1.423095708E1,2.091931739E0,-4.901503365E0,-4.849692357E0,7.205583224E0
1.424102508E1,2.142462500E0,-3.626715628E0,-3.966653450E0,5.785978863E0
1.425109208E1,1.695067180E0,-1.995940046E0,-3.605533504E0,4.456108309E0
1.426116008E1,8.302759713E-1,7.748081142E-1,-2.654631228E0,2.887343548E0
1.427122708E1,4.490573913E-2,3.801187772E0,-2.507976043E-1,3.809717108E0
1.428129508E1,-2.440613195E-1,6.883104284E0,4.050721208E0,7.990308682E0
1.429136308E1,3.423696792E-1,8.635291452E0,9.654243039E0,1.295723289E1
1.430143008E1,2.498140734E0,8.013117301E0,1.492959048E1,1.712727146E1
1.431149808E1,3.873828317E0,7.293360137E0,1.959687309E1,2.126586662E1
1.432156508E1,2.684491497E0,8.566160991E0,2.392167026E1,2.555057566E1
1.433163308E1,8.174895725E-1,1.001715048E1,2.615124399E1,2.801605174E1
1.434170108E1,-5.651248778E-1,1.005396689E1,2.403786145E1,2.606185717E1
1.435176808E1,-2.129744221E0,1.026562323E1,1.878658115E1,2.151405266E1
1.436183608E1,-3.606983322E0,1.104416713E1,1.422131257E1,1.836381462E1
1.437190308E1,-4.443063532E0,1.123034598E1,1.092258247E1,1.628386601E1
1.438197108E1,-4.849728609E0,1.064636935E1,7.329568436E0,1.380534757E1
1.439203908E1,-4.440946547E0,9.500229133E0,2.818680711E0,1.085915838E1
1.440210608E1,-3.237324979E0,7.472228218E0,-1.269770826E0,8.241770776E0
1.441217408E1,-1.662824463E0,4.736217781E0,-3.746785862E0,6.263796641E0
1.442224108E1,7.414649516E-2,1.859738513E0,-4.398587855E0,4.776159562E0
1.443230908E1,1.637617701E0,-9.905949301E-1,-3.351812292E0,3.859755911E0
1.444237708E1,2.398823730E0,-2.881366956E0,-1.185390826E0,3.932147280E0
1.445244408E1,2.493409752E0,-3.953794253E0,8.062480080E-1,4.743376123E0
1.446251208E1,2.561129865E0,-5.073720238E0,1.886210028E0,5.988306230E0
1.447257908E1,2.358519165E0,-5.529570340E0,2.092179369E0,6.365216045E0
1.448264708E1,1.654801206E0,-5.417997279E0,1.508005688E0,5.862349589E0
1.449271508E1,7.635788289E-1,-5.401120461E0,-4.463571471E-1,5.473060347E0
1.450278208E1,-3.384467822E-1,-5.326776037E0,-3.720902578E0,6.506474096E0
1.451285008E1,-6.585707295E-1,-5.009593824E0,-7.205683478E0,8.800660206E0
1.452291708E1,4.577522010E-2,-4.319174480E0,-1.007036482E1,1.095762799E1
1.453298508E1,7.982852697E-1,-3.858562991E0,-1.132936741E1,1.199501287E1
1.454305308E1,9.804339311E-1,-4.110516590E0,-1.087910491E1,1.167101199E1
1.455312008E1,4.378696212E-1,-4.703491500E0,-9.393820333E0,1.051467653E1
1.456318808E1,-6.154720724E-1,-5.286199869E0,-7.690828714E0,9.352623228E0
1.457325508E1,-1.484979645E0,-5.860983506E0,-6.404476939E0,8.807588607E0
1.458332308E1,-2.450269872E0,-6.336996562E0,-5.752477310E0,8.902378507E0
1.459339008E1,-2.891974097E0,-6.705231984E0,-5.972622641E0,9.433762312E0
1.460345808E1,-2.431603513E0,-6.652134588E0,-7.022202528E0,9.973711374E0
1.461352608E1,-1.031745003E0,-6.220370922E0,-8.262130920E0,1.039328242E1
1.462359308E1,1.044888082E0,-5.712016332E0,-8.657748853E0,1.042475596E1
1.463366150E1,2.724804541E0,-5.304005810E0,-8.582387599E0,1.045057005E1
1.464372850E1,2.912804803E0,-5.243844978E0,-8.360670537E0,1.028995402E1
1.465379650E1,2.407316226E0,-5.760153535E0,-7.557083012E0,9.802246875E0
1.466386450E1,2.142909812E0,-5.964173999E0,-6.463641990E0,9.052187676E0
1.467393150E1,1.423017578E0,-5.800265434E0,-5.664897714E0,8.231593057E0
1.468399950E1,8.532835954E-1,-5.746059406E0,-5.649593797E0,8.103283388E0
1.469406650E1,8.705521774E-1,-5.229191270E0,-5.523273473E0,7.655641861E0
1.470413450E1,1.353573121E0,-4.355653505E0,-4.944078696E0,6.726647888E0
1.471420250E1,1.538959678E0,-2.811583945E0,-4.141498647E0,5.236927745E0
1.472426950E1,1.379982655E0,-7.570308244E-1,-3.229154080E0,3.592336826E0
1.473433750E1,1.038280436E0,1.650018768E0,-1.915042064E0,2.732759467E0
1.474440450E1,-3.488285136E-1,4.716612652E0,6.508418798E-2,4.729942092E0
1.475447250E1,-1.845679760E0,8.070481410E0,3.429932263E0,8.961229787E0
1.476454050E1,-1.614021847E0,1.026300952E1,7.733663662E0,1.295160163E1
1.477460750E1,-2.385204980E-1,1.014143188E1,1.161313630E1,1.541980763E1
1.478467550E1,-9.602198142E-1,1.076062395E1,1.462060372E1,1.817897420E1
1.479474250E1,-3.237514429E0,1.253371959E1,1.666702746E1,2.110368287E1
1.480481050E1,-4.363131509E0,1.222158235E1,1.713495440E1,2.149443309E1
1.481487850E1,-3.666613227E0,1.094334008E1,1.529243944E1,1.915879560E1
1.482494550E1,-2.526951427E0,1.057488597E1,1.243085537E1,1.651483764E1
1.483501350E1,-1.422579913E0,1.014174295E1,1.078837951E1,1.487507365E1
1.484508050E1,2.986349912E-1,9.452776054E0,1.084624122E1,1.439045192E1
1.485514850E1,1.458839521E0,8.548635131E0,1.085451620E1,1.389344800E1
1.486521650E1,1.941681393E0,6.422613832E0,1.003542887E1,1.207186513E1
1.487528350E1,2.459200909E0,3.420825809E0,9.217686410E0,1.013486364E1
1.488535150E1,2.750480542E0,6.104925835E-1,9.316229535E0,9.732932608E0
1.489541850E1,2.211853601E0,-1.359222408E0,9.888118801E0,1.022324192E1
1.490548650E1,1.289575346E0,-2.521322898E0,9.685913898E0,1.009143210E1
1.491555350E1,4.658947411E-1,-2.942300205E0,7.956342006E0,8.495738139E0
1.492562150E1,2.936343062E-1,-2.981020467E0,4.765626937E0,5.628845729E0
1.493568950E1,4.027769718E-1,-3.125230347E0,9.076510066E-1,3.279195688E0
1.494575650E1,7.979942246E-1,-3.272183740E0,-2.476334420E0,4.180456120E0
1.495582450E1,9.174534251E-1,-2.932469282E0,-5.387423358E0,6.202050251E0
1.496589150E1,7.287134899E-1,-2.390114887E0,-7.626447946E0,8.025358609E0
1.497595950E1,5.568183598E-1,-2.106298056E0,-9.150182059E0,9.405975224E0
1.498602750E1,2.427056060E-1,-2.277762392E0,-1.009153408E1,1.034824466E1
1.499609450E1,-2.030583045E-1,-2.633244452E0,-1.083169685E1,1.114902981E1
1.500616250E1,-7.462599608E-1,-3.155065765E0,-1.119716070E1,1.165709019E1
1.501622950E1,-1.015477756E0,-3.775161815E0,-1.108913924E1,1.175806322E1
1.502629750E1,-1.062150816E0,-4.314004957E0,-1.078532376E1,1.166456222E1
1.503636550E1,-9.582098338E-1,-4.617395343E0,-1.033361816E1,1.135879264E1
1.504643250E1,-9.089002642E-1,-4.915873482E0,-1.002468637E1,1.120206448E1
1.505650050E1,-8.209332901E-1,-5.259606732E0,-9.956119580E0,1.128989422E1
1.506656750E1,-5.372255096E-1,-5.390607752E0,-9.962415862E0,1.134006142E1
1.507663550E1,6.519762397E-2,-5.464373301E0,-9.715208448E0,1.114669913E1
1.508670350E1,4.689233065E-1,-5.567559700E0,-9.173565660E0,1.074113202E1
1.509677050E1,2.023414358E-1,-5.764476966E0,-8.439103918E0,1.022196711E1
1.510683850E1,-1.923342186E-1,-6.126662275E0,-7.538464308E0,9.716039687E0
1.511690550E1,-4.071036190E-1,-6.465633552E0,-6.390779836E0,9.100121840E0
1.512697350E1,-7.900208151E-1,-6.646591428E0,-5.204030117E0,8.478398431E0
1.513704150E1,-1.116418825E0,-6.677274107E0,-4.297033414E0,8.018533323E0
1.514710850E1,-7.980054805E-1,-6.575123835E0,-3.805841571E0,7.638946017E0
1.515717650E1,1.316792965E-2,-6.146524097E0,-3.766418474E0,7.208733591E0
1.516724350E1,8.876035354E-1,-5.173543319E0,-4.272342376E0,6.768035157E0
1.517731150E1,1.875694395E0,-3.846667415E0,-5.139625960E0,6.688111443E0
1.518737950E1,2.171451533E0,-2.577181934E0,-5.788437102E0,6.697990188E0
1.519744650E1,1.235573093E0,-7.133702499E-1,-5.299711030E0,5.488394573E0
1.520751450E1,-4.173631436E-1,2.086864250E0,-3.341237018E0,3.961446605E0
1.521758150E1,-2.282038169E0,5.324950536E0,-6.831126630E-2,5.793743423E0
1.522764950E1,-3.839222156E0,8.126015925E0,4.516195242E0,1.005821958E1
1.523771750E1,-3.246627315E0,9.755379989E0,9.850829937E0,1.423892124E1
1.524778450E1,-2.909311384E-2,1.011310446E1,1.492458643E1,1.802828356E1
1.525785250E1,2.496447673E0,1.110206392E1,1.850141244E1,2.172073518E1
1.526791950E1,3.344803235E0,1.247770326E1,2.091097868E1,2.457945924E1
1.527798750E1,2.969333345E0,1.237332345E1,2.238967169E1,2.575293133E1
1.528805550E1,1.698215320E0,1.101757633E1,2.236948710E1,2.499329663E1
1.529812250E1,-3.050916329E-1,1.049975393E1,2.114049359E1,2.360632082E1
1.530819050E1,-9.425553757E-1,1.026713298E1,1.988971569E1,2.240319665E1
1.531825750E1,-1.250531586E0,1.015414139E1,1.809908308E1,2.079055614E1
1.532832550E1,-1.467943636E0,1.001971390E1,1.502450716E1,1.811864621E1
1.533839250E1,-1.133218606E0,8.953958273E0,1.087869677E1,1.413519001E1
1.534846050E1,-1.774369567E-1,6.967674319E0,6.053790180E0,9.231919888E0
1.535852850E1,3.660202047E-1,4.634310753E0,1.549499284E0,4.900179076E0
1.536859550E1,2.732246000E-1,2.107710743E0,-1.855261885E0,2.821186438E0
1.537866350E1,2.324852943E-1,-3.958430511E-1,-3.576948221E0,3.606286138E0
1.538873050E1,1.218089041E-1,-2.522003514E0,-4.068676838E0,4.788472653E0
1.539879850E1,-1.634282157E-1,-3.813438274E0,-4.231030043E0,5.698301104E0
1.540886650E1,-5.361519608E-1,-4.376212900E0,-4.889489676E0,6.583753303E0
1.541893350E1,-7.833643448E-1,-4.830424027E0,-5.749437343E0,7.550012300E0
1.542900150E1,-8.068201581E-1,-4.992036974E0,-6.450237833E0,8.196155198E0
1.543906850E1,-4.244990855E-1,-4.760300124E0,-7.313189800E0,8.736326561E0
1.544913650E1,2.994329900E-1,-4.544710944E0,-8.341967048E0,9.504339636E0
1.545920450E1,8.115710208E-1,-4.493675861E0,-9.203776469E0,1.027430151E1
1.546927150E1,5.975851473E-1,-4.446740845E0,-9.667361852E0,1.065779045E1
1.547933950E1,9.261404872E-3,-4.702541327E0,-9.588554249E0,1.067962327E1
1.548940650E1,-7.082188529E-1,-5.323387576E0,-8.670052564E0,1.019852150E1
1.549947450E1,-1.984662521E0,-6.143601658E0,-7.779774220E0,1.010977812E1
1.550954250E1,-3.502062346E0,-6.980009605E0,-7.213008285E0,1.063073202E1
1.551960950E1,-4.341985346E0,-7.253649942E0,-6.373454536E0,1.058721857E1
1.552967750E1,-4.229490764E0,-6.908129198E0,-5.325682608E0,9.694005177E0
1.553974450E1,-3.449682403E0,-6.618676236E0,-4.569806024E0,8.751589049E0
1.554981250E1,-2.287463800E0,-6.259307531E0,-4.605191034E0,8.100568243E0
1.555987950E1,-6.859868619E-1,-5.625166469E0,-5.619421579E0,7.980662545E0
1.556994750E1,4.364914325E-1,-5.074998440E0,-6.968072514E0,8.631348011E0
1.558001550E1,1.153225293E0,-4.765974846E0,-7.752159575E0,9.172808887E0
1.559008250E1,1.164397276E0,-4.620389702E0,-8.033205410E0,9.340032718E0
1.560015050E1,8.469010672E-1,-4.781875180E0,-7.794689298E0,9.183722170E0
1.561021750E1,5.324281615E-1,-5.015984246E0,-7.264050384E0,8.843642105E0
1.562028550E1,6.378289014E-2,-4.792330002E0,-6.428010228E0,8.018092703E0
1.563035371E1,-2.833092928E-1,-4.339530392E0,-5.632184882E0,7.115707605E0
1.564042071E1,-1.393192685E-1,-3.922090065E0,-5.378074245E0,6.657768614E0
1.565048871E1,2.335591355E-1,-3.509487140E0,-5.123754863E0,6.214814056E0
1.566055571E1,8.779594302E-1,-3.033206867E0,-4.672204219E0,5.639206409E0
1.567062371E1,1.302909628E0,-2.132877159E0,-3.812296897E0,4.558546491E0
1.568069171E1,1.458652556E0,-2.661032760E-1,-2.254026790E0,2.697983507E0
1.569075871E1,1.345164825E0,1.301651015E0,-8.874903917E-2,1.873937076E0
1.570082671E1,6.388901711E-1,1.938560734E0,2.125383952E0,2.946770320E0
1.571089371E1,-8.427884281E-3,3.525624286E0,4.140753127E0,5.438376053E0
1.572096171E1,-4.525891095E-2,5.594316559E0,5.737753437E0,8.013753217E0
1.573102971E1,1.178016318E0,5.864680116E0,6.723529676E0,8.999335899E0
1.574109671E1,1.060565929E0,6.157949556E0,7.581762940E0,9.824880259E0
1.575116471E1,-4.417112419E-1,7.717322448E0,9.005096267E0,1.186776868E1
1.576123171E1,-9.279814830E-1,8.583381625E0,1.047226266E1,1.357217282E1
1.577129971E1,-5.570309061E-1,8.313946606E0,1.044485793E1,1.336140145E1
1.578136771E1,-7.488499850E-2,8.739039769E0,9.397025192E0,1.283279028E1
1.579143471E1,7.777472171E-1,8.622498913E0,9.381807813E0,1.276599765E1
1.580150271E1,1.350869076E0,7.712663972E0,1.090932917E1,1.342845843E1
1.581156971E1,2.478388547E0,7.215008032E0,1.327699309E1,1.531265150E1
1.582163771E1,3.497674887E0,6.483144209E0,1.477894164E1,1.651308586E1
1.583170571E1,3.779620902E0,5.180964605E0,1.422657506E1,1.560523522E1
1.584177271E1,3.559856225E0,3.917415801E0,1.198916138E1,1.310567486E1
1.585184071E1,2.921723269E0,2.873494849E0,9.395832945E0,1.025061541E1
1.586190771E1,1.953598165E0,2.071480225E0,7.118747075E0,7.667081324E0
1.587197571E1,9.392543301E-1,1.185936956E0,4.848575538E0,5.079107196E0
1.588204271E1,2.036974052E-1,1.140095955E-1,2.355414585E0,2.366953462E0
1.589211071E1,-3.943547885E-1,-1.021701825E0,-3.680939198E-2,1.095785221E0
1.590217871E1,-1.046822560E0,-1.728706211E0,-2.359719890E0,3.106853810E0
1.591224571E1,-1.377811876E0,-1.770023806E0,-4.382600398E0,4.923264780E0
1.592231371E1,-1.561709440E0,-1.782431890E0,-5.910228172E0,6.367636678E0
1.593238071E1,-1.535412611E0,-1.832772324E0,-7.378833566E0,7.756528288E0
1.594244871E1,-1.285605232E0,-1.982991972E0,-8.800401034E0,9.112194924E0
1.595251671E1,-9.133862481E-1,-2.523662369E0,-9.564515176E0,9.933936618E0
1.596258371E1,-1.165205069E0,-3.032154368E0,-9.005675141E0,9.573601606E0
1.597265171E1,-1.886355770E0,-3.569898818E0,-8.019955620E0,8.978986791E0
1.598271871E1,-2.514540128E0,-4.033094777E0,-7.593000119E0,8.957813145E0
1.599278671E1,-2.814525679E0,-4.330383008E0,-7.424904948E0,9.044500278E0
1.600285471E1,-2.863131244E0,-4.593955024E0,-6.993881539E0,8.843999224E0
1.601292171E1,-2.429149290E0,-4.686862603E0,-6.297038444E0,8.217063983E0
1.602298971E1,-1.658042318E0,-4.600527295E0,-6.121599755E0,7.835045583E0
1.603305671E1,-6.051596305E-1,-4.515812250E0,-6.352726157E0,7.817666409E0
1.604312471E1,5.917086956E-1,-4.188988563E0,-6.882803153E0,8.079029868E0
1.605319271E1,1.609519199E0,-3.859507316E0,-7.741146344E0,8.798391642E0
1.606325971E1,1.554406852E0,-3.958985412E0,-8.566798922E0,9.564506779E0
1.607332771E1,1.036980015E0,-4.127263016E0,-9.014241897E0,9.968258851E0
1.608339471E1,6.566373476E-1,-4.340654812E0,-8.506081434E0,9.572140731E0
1.609346271E1,-4.001983497E-1,-4.685441730E0,-7.224529638E0,8.620171194E0
1.610353071E1,-1.678716903E0,-4.292354472E0,-5.181493778E0,6.934715216E0
1.611359771E1,-2.284333785E0,-3.750337461E0,-3.126113861E0,5.390343198E0
1.612366571E1,-2.441604298E0,-2.594484429E0,-1.911717921E0,4.043197548E0
1.613373271E1,-2.093904005E0,-3.316599190E-1,-1.351994957E0,2.514422926E0
1.614380071E1,-1.035407698E0,2.497135305E0,-1.167460924E0,2.944608437E0
1.615386771E1,1.259963876E-1,5.722328482E0,-3.460721362E-1,5.734168141E0
1.616393571E1,2.114312249E-1,8.786934312E0,2.121420125E0,9.041866019E0
1.617400371E1,-5.657491046E-1,9.664637634E0,6.390032562E0,1.159990555E1
1.618407071E1,-1.401005442E0,8.065991918E0,1.096775455E1,1.368629540E1
1.619413871E1,-2.525560082E0,7.020691023E0,1.433780080E1,1.616295418E1
1.620420571E1,-3.907821105E0,6.401124145E0,1.555130270E1,1.726523882E1
1.621427371E1,-4.047949628E0,5.392637905E0,1.446709326E1,1.596130405E1
1.622434171E1,-2.177741383E0,4.964135231E0,1.203377563E1,1.319836930E1
1.623440871E1,4.853709394E-1,6.119623981E0,9.070996726E0,1.095300709E1
1.624447671E1,3.050520765E0,6.930132855E0,7.326516189E0,1.053614056E1
1.625454371E1,4.201810045E0,6.584663567E0,7.974278925E0,1.116253225E1
1.626461171E1,3.097644353E0,6.030630528E0,9.781035233E0,1.190094767E1
1.627467971E1,1.880958059E0,4.884707823E0,1.072474543E1,1.193392385E1
1.628474671E1,1.424655383E0,3.326208504E0,1.086317476E1,1.144997257E1
1.629481471E1,9.327013555E-1,2.002974831E0,9.985386064E0,1.022691424E1
1.630488171E1,3.588440631E-1,1.242723361E0,7.770012878E0,7.876942969E0
1.631494971E1,-1.396146990E-1,6.494701231E-1,4.816835098E0,4.862427795E0
1.632501671E1,-5.883336827E-2,-2.479108340E-1,2.128159626E0,2.143358239E0
1.633508471E1,4.263355133E-1,-1.035026752E0,-2.697127622E-1,1.151428383E0
1.634515271E1,8.827423064E-1,-1.787326595E0,-1.777111509E0,2.670560924E0
1.635521971E1,8.576881568E-1,-2.175144342E0,-2.482021422E0,3.409884488E0
1.636528771E1,1.621311205E-1,-2.300871758E0,-3.124473132E0,3.883636144E0
1.637535471E1,-2.627068112E-1,-2.319845388E0,-4.108294063E0,4.725333597E0
1.638542271E1,-4.115516325E-1,-2.269231305E0,-5.488640415E0,5.953482936E0
1.639549071E1,-2.224962035E-1,-2.436140075E0,-7.060689486E0,7.472457363E0
1.640555771E1,1.026785321E-1,-2.547676883E0,-8.495139540E0,8.869531903E0
1.641562571E1,1.991973880E-1,-2.596445585E0,-9.515709051E0,9.865593141E0
1.642569271E1,1.002231766E-1,-2.837625690E0,-9.900360532E0,1.029948071E1
1.643576071E1,-1.676338255E-1,-3.264045585E0,-9.907735040E0,1.043289549E1
1.644582871E1,-4.197435451E-1,-3.646274564E0,-9.803340021E0,1.046790229E1
1.645589571E1,-7.455764213E-1,-4.078952735E0,-9.755125635E0,1.059982150E1
1.646596371E1,-1.046277088E0,-4.608575987E0,-9.549115364E0,1.065454235E1
1.647603071E1,-1.502297051E0,-4.935230105E0,-8.680903827E0,1.009809308E1
1.648609871E1,-1.912347667E0,-5.248067837E0,-7.492916837E0,9.345752636E0
1.649616671E1,-2.270533772E0,-5.598754011E0,-7.374107847E0,9.533039212E0
1.650623371E1,-2.098306666E0,-5.804304106E0,-7.759353989E0,9.914656391E0
1.651630171E1,-9.210949248E-1,-5.701607119E0,-7.770477147E0,9.681789850E0
1.652636871E1,3.619952738E-1,-5.247190754E0,-7.412529901E0,9.088985142E0
1.653643671E1,9.280583739E-1,-5.045357149E0,-6.839914995E0,8.549933231E0
1.654650471E1,6.287791657E-1,-5.030344423E0,-5.788636492E0,7.694676126E0
1.655657171E1,3.424339986E-1,-4.469953122E0,-4.940408399E0,6.671235051E0
1.656663971E1,4.073182118E-1,-3.145152980E0,-4.560192617E0,5.554570379E0
1.657670671E1,1.660808051E-1,-1.115279787E0,-4.296166856E0,4.441675528E0
1.658677471E1,6.217666000E-2,1.549295801E0,-3.645384618E0,3.961440701E0
1.659684171E1,-3.451172858E-2,3.853558359E0,-2.029648075E0,4.355522287E0
1.660690971E1,-6.537076002E-1,5.629785769E0,6.976026481E-1,5.710382727E0
1.661697771E1,-1.376923099E0,7.352563781E0,4.544755383E0,8.752766012E0
1.662704471E1,-8.971289420E-1,8.184209754E0,8.626036479E0,1.192453919E1
1.663711283E1,1.748203459E-1,7.600648277E0,1.169753033E1,1.395107996E1
1.664717983E1,-2.772574246E-1,8.102007258E0,1.305090114E1,1.536376952E1
1.665724783E1,-1.662547890E0,8.860336164E0,1.328406471E1,1.605415826E1
