"Time (s)","Linear Acceleration x (m/s^2)","Linear Acceleration y (m/s^2)","Linear Acceleration z (m/s^2)","Absolute acceleration (m/s^2)"
1.062358334E-2,-2.113526384E0,-7.317188126E0,-1.793475527E0,7.824627167E0
2.069158333E-2,4.335988149E-1,-3.828836331E0,-5.700578009E0,6.880740165E0
3.075958333E-2,2.488361851E0,1.165993273E-2,-4.137188079E0,4.827877987E0
4.082658332E-2,4.320061795E0,4.298682328E0,-1.746789018E0,6.339785134E0
5.089458333E-2,5.749795777E0,8.744306940E0,1.567925030E0,1.058212853E1
6.096258333E-2,5.967488201E0,1.247115906E1,5.099787126E0,1.473596120E1
7.102958333E-2,5.171241270E0,1.507439677E1,7.696548461E0,1.769791040E1
8.109758333E-2,3.477795231E0,1.657041976E1,9.909956982E0,1.961838724E1
9.116458333E-2,1.577545162E0,1.621313968E1,7.267447032E0,1.783732977E1
1.012325833E-1,2.709348303E-1,1.567687282E1,1.804287028E0,1.578268668E1
1.113005833E-1,-3.517003736E-1,1.570801977E1,-2.490833761E0,1.590816869E1
1.213675833E-1,-2.108216527E-1,1.508414408E1,-6.278197546E0,1.633987799E1
1.314348333E-1,3.287022512E-1,1.389593606E1,-7.956341422E0,1.601588128E1
1.415028333E-1,4.425701979E-1,1.344518824E1,-7.330854238E0,1.532026041E1
1.515698333E-1,6.904120347E-1,1.328819635E1,-5.728932912E0,1.448701154E1
1.616378333E-1,9.624372245E-1,1.316294548E1,-3.848245579E0,1.374766937E1
1.717058333E-1,1.174241648E0,1.302722693E1,-2.537691593E0,1.332393949E1
1.817728333E-1,1.425710805E0,1.269156985E1,-1.993315816E0,1.292601658E1
1.918408333E-1,1.610700482E0,1.219661474E1,-1.652675743E0,1.241302156E1
2.019088333E-1,1.614869547E0,1.181194046E1,-1.118683451E0,1.197418865E1
2.119758333E-1,1.675668311E0,1.153276632E1,-7.399908686E-1,1.167733487E1
2.220438333E-1,1.987529119E0,1.122072264E1,-4.014289693E-1,1.140245735E1
2.321118333E-1,2.283174283E0,1.084500395E1,-2.208785347E-1,1.108493495E1
2.421788333E-1,2.481984000E0,1.047671941E1,-2.318368381E-1,1.076919879E1
2.522468333E-1,2.536360182E0,1.010008505E1,-1.510230553E-1,1.041478031E1
2.623148333E-1,2.338148050E0,9.678290883E0,1.686407526E-1,9.958146937E0
2.723818333E-1,2.058139510E0,9.216283078E0,7.713506556E-1,9.474745055E0
2.824498333E-1,2.108073270E0,8.534993577E0,2.126384411E0,9.044976447E0
2.925178333E-1,2.341851676E0,8.123019812E0,1.824157037E0,8.648425813E0
3.025848333E-1,2.811683640E0,7.832698538E0,2.056149995E0,8.572309146E0
3.126528333E-1,4.017539429E0,5.798966183E0,5.882843322E0,9.185666955E0
3.227208333E-1,2.859622622E0,4.264965529E0,5.993903582E0,7.892670819E0
3.327878333E-1,2.756334774E0,3.116417423E0,4.214355538E0,5.922012458E0
3.428558333E-1,1.830643938E0,-1.608473132E0,9.589332513E0,9.894126596E0
3.529238333E-1,-2.887249839E-1,-3.433394399E0,1.857739935E0,3.914429318E0
3.629908333E-1,-3.688257573E0,-3.867201083E0,-9.554911709E0,1.094782288E1
3.730588333E-1,-9.938653947E0,-1.072225920E1,-1.547101224E1,2.128604952E1
3.831268333E-1,-1.778733176E1,-3.605171913E1,-1.824876946E1,4.414898877E1
3.931938333E-1,-2.616657071E1,-6.000788328E1,-1.773609378E1,6.782480741E1
4.032618333E-1,-3.286071813E1,-7.054967869E1,-1.284964699E1,7.888090635E1
4.133298333E-1,-3.017026218E1,-6.353555994E1,2.783968130E0,7.039007441E1
4.233968333E-1,-1.302834492E1,-2.960784891E1,2.926536346E1,4.362137076E1
4.334648333E-1,-2.575865141E0,-1.139112453E1,1.640830688E1,2.014014235E1
4.435328333E-1,-1.640702107E0,-1.015242230E1,-3.989302055E0,1.103078025E1
4.535998333E-1,-2.189879326E0,-8.194716616E0,-5.731724957E0,1.023726638E1
4.636678333E-1,-5.875981030E-1,-3.910745298E0,-3.935615260E0,5.579271260E0
4.737358333E-1,1.249942041E0,4.160592145E-1,-1.763309741E0,2.201072833E0
4.838028333E-1,2.791664820E0,4.706353127E0,1.344133376E0,5.634700237E0
4.938708333E-1,3.709762170E0,8.420861775E0,4.311574270E0,1.016183650E1
5.039388333E-1,4.008904553E0,1.178089174E1,5.700775645E0,1.368793516E1
5.140058333E-1,3.843323685E0,1.477450361E1,7.008788431E0,1.679822041E1
5.240738333E-1,3.265918449E0,1.622548198E1,7.859129122E0,1.832207410E1
5.341408333E-1,1.734642889E0,1.595790053E1,6.919823045E0,1.747991780E1
5.442088333E-1,-2.665957578E-1,1.536438241E1,6.648932068E0,1.674346493E1
5.542768333E-1,-1.814795352E0,1.484426440E1,6.125210996E0,1.616056550E1
5.643448333E-1,-2.253221774E0,1.449792797E1,4.185033506E0,1.525717632E1
5.744118333E-1,-1.082208228E0,1.394303305E1,1.144695960E0,1.403173810E1
5.844798333E-1,5.904413116E-1,1.294036771E1,-3.200793330E0,1.334341843E1
5.945468333E-1,1.860451289E0,1.208776181E1,-5.985041542E0,1.361601949E1
6.046148333E-1,2.581892158E0,1.163166495E1,-6.351947308E0,1.350218617E1
6.146828333E-1,2.952976636E0,1.128833750E1,-4.738827978E0,1.259377327E1
6.247498333E-1,2.973014167E0,1.116375088E1,-3.170618189E0,1.198002365E1
6.348178333E-1,2.806149251E0,1.110686098E1,-2.079880335E0,1.164314118E1
6.448858333E-1,2.587798723E0,1.094362543E1,-1.171437031E0,1.130627721E1
6.549528333E-1,2.363939534E0,1.059570440E1,-5.246852785E-1,1.086887559E1
6.650208333E-1,2.215257411E0,1.029800394E1,-1.537648147E-1,1.053469953E1
6.750888333E-1,2.170375061E0,1.004774428E1,1.467522490E-1,1.028052670E1
6.851558333E-1,2.548409539E0,9.612326104E0,2.461432207E-1,9.947451472E0
6.952238333E-1,2.864523466E0,9.173480875E0,3.436173837E-2,9.610381198E0
7.052918333E-1,2.841595949E0,8.938893507E0,-4.029778602E-1,9.388337223E0
7.153588333E-1,2.713534617E0,8.792235398E0,-7.870551074E-1,9.235048952E0
7.254268333E-1,2.614532778E0,8.619969408E0,-6.170572525E-1,9.028865593E0
7.354948333E-1,2.437953882E0,8.462413259E0,1.210449288E-1,8.807423526E0
7.455618333E-1,2.693350613E0,8.196891780E0,6.281990489E-1,8.650884720E0
7.556298333E-1,3.500549379E0,7.211486839E0,2.148830702E0,8.299208503E0
7.656978333E-1,3.814305416E0,5.422618918E0,4.329239293E0,7.918082760E0
7.757648333E-1,4.174712878E0,4.109619627E0,3.555678974E0,6.852740624E0
7.858328333E-1,2.380023177E0,2.487031317E0,2.502046967E0,4.255593274E0
7.959008333E-1,-1.110563715E0,1.216365867E0,-2.691047688E0,3.155096725E0
8.059678333E-1,-8.686739348E0,-6.097174181E0,-8.107659761E0,1.335549027E1
8.160358333E-1,-1.741891624E1,-2.767125576E1,-1.176728410E1,3.475033833E1
8.261038333E-1,-2.368229460E1,-5.351555134E1,-1.609963236E1,6.069566273E1
8.361708333E-1,-3.377722942E1,-6.991287013E1,-1.577738997E1,7.923153836E1
8.462388333E-1,-3.655659579E1,-6.691616743E1,-5.502901189E0,7.644893773E1
8.563068333E-1,-1.585657530E1,-3.578847748E1,1.853903109E1,4.331214350E1
8.663738333E-1,-9.978074706E-1,-1.515411186E1,1.718331789E1,2.293270895E1
8.764418333E-1,5.219356254E-1,-1.190839730E1,-1.245135337E0,1.198468627E1
8.865098333E-1,1.580479002E0,-8.953680530E0,-7.317875758E0,1.167123021E1
8.965768333E-1,3.580639861E0,-4.431468503E0,-6.662062576E0,8.765955320E0
9.066448333E-1,4.403348073E0,7.156641126E-2,-2.976670139E0,5.315558402E0
9.167128333E-1,4.758932752E0,4.732753891E0,2.850226439E0,7.291789293E0
9.267798333E-1,4.182035931E0,9.138557210E0,9.533374075E0,1.385235986E1
9.368478333E-1,2.229685416E0,1.201333728E1,1.194828817E1,1.708956874E1
9.469158333E-1,2.475725725E-1,1.282318951E1,1.026727098E1,1.642900894E1
9.569828333E-1,1.543185461E-1,1.294724404E1,7.641990430E0,1.503512421E1
9.670508333E-1,-3.955349028E-3,1.237367662E1,6.419537612E0,1.393981176E1
9.771188333E-1,-2.568649676E-1,1.213365543E1,6.944921633E0,1.398297215E1
9.871858333E-1,-2.864776066E-1,1.280372062E1,8.117636865E0,1.516289416E1
9.972538333E-1,1.368862420E-2,1.335853368E1,7.006326753E0,1.508440333E1
1.007321833E0,3.424679124E-1,1.284697715E1,2.968781660E0,1.318998752E1
1.017388833E0,1.209464983E0,1.229448427E1,-1.429881624E0,1.243630614E1
1.027456833E0,1.981182259E0,1.178137706E1,-5.062622223E0,1.297520992E1
1.037524833E0,2.176851729E0,1.117968103E1,-7.283963077E0,1.351961795E1
1.047591833E0,2.564925292E0,1.092426413E1,-7.550175696E0,1.352492298E1
1.057659833E0,2.689492328E0,1.083730550E1,-6.257769129E0,1.280000914E1
1.067726833E0,2.838372379E0,1.069000829E1,-4.574953328E0,1.196924530E1
1.077794833E0,2.999480127E0,1.032979642E1,-3.397891860E0,1.128039202E1
1.087862833E0,3.221058318E0,9.802732496E0,-2.410505297E0,1.059619351E1
1.097929833E0,3.231334799E0,9.630507436E0,-1.783316574E0,1.031350649E1
1.107997833E0,3.176468328E0,9.322506521E0,-1.428429760E0,9.951858644E0
1.118065833E0,3.541082278E0,9.150555696E0,-1.018983162E0,9.864596289E0
1.128133042E0,3.602553179E0,8.931417841E0,-6.962023131E-1,9.655739833E0
1.138201042E0,3.655559650E0,8.591986973E0,-5.393963980E-1,9.352876829E0
1.148269042E0,3.976683472E0,8.032746404E0,4.821752898E-1,8.976163949E0
1.158336042E0,4.993811020E0,6.741555473E0,4.609585217E0,9.572616913E0
1.168404042E0,6.117586226E0,6.122744055E0,4.513614281E0,9.761432778E0
1.178472042E0,5.879603380E0,6.280510120E0,6.665954483E-1,8.628956644E0
1.188539042E0,5.581359714E0,4.341022017E0,3.209068310E0,7.764931926E0
1.198607042E0,3.092333035E0,-1.780535638E-1,1.691566744E1,1.719691925E1
1.208675042E0,1.707949180E0,2.629557198E-1,3.335685672E0,3.756731959E0
1.218742042E0,2.041199542E0,2.698011137E0,-9.366116225E0,9.958408146E0
1.228810042E0,-5.031347805E-1,-8.773747087E-1,-9.115192906E0,9.171132574E0
1.238878042E0,-5.011924524E0,-9.550881223E0,-1.072770646E1,1.521257393E1
1.248945042E0,-1.133264536E1,-2.742548794E1,-1.428649733E1,3.293463595E1
1.259013042E0,-1.371515887E1,-4.395107826E1,-1.591448262E1,4.871420347E1
1.269081042E0,-1.716185042E1,-5.533930258E1,-1.402357377E1,5.961231535E1
1.279148042E0,-2.686081063E1,-5.871364185E1,-5.494782330E0,6.479959506E1
1.289216042E0,-3.024752261E1,-3.347218954E1,1.521996554E1,4.761247155E1
1.299284042E0,-1.898222314E1,-1.150427050E1,1.853612035E1,2.891817409E1
1.309351042E0,-8.624036731E0,-1.069569179E1,1.331322126E0,1.380377669E1
1.319419042E0,-3.222976497E0,-1.050972460E1,-5.515975564E0,1.229910058E1
1.329487042E0,2.120200396E-3,-7.691619258E0,-4.906847720E0,9.123495265E0
1.339554042E0,2.846207356E0,-4.379391446E0,-1.778363982E0,5.517476253E0
1.349622042E0,6.180083022E0,-1.104627330E0,3.333925660E0,7.108353395E0
1.359690042E0,8.900474961E0,2.109245637E0,7.896682280E0,1.208407889E1
1.369757042E0,9.829536717E0,4.870845829E0,8.341205156E0,1.378116957E1
1.379825042E0,8.837141429E0,7.477551523E0,7.341967456E0,1.370814836E1
1.389893042E0,7.595270008E0,1.023113167E1,6.963515779E0,1.452083792E1
1.399960042E0,5.909508380E0,1.229120632E1,6.778493503E0,1.522970835E1
1.410028042E0,3.288083781E0,1.310220461E1,6.817858129E0,1.513150521E1
1.420096042E0,1.038155013E0,1.329489843E1,8.818632653E0,1.598750675E1
1.430163042E0,3.570137385E-1,1.372574116E1,1.107681097E1,1.764140500E1
1.440231042E0,3.170614681E-1,1.328536162E1,9.553279166E0,1.636662776E1
1.450299042E0,2.939415774E-1,1.268543612E1,6.463329749E0,1.424013071E1
1.460366042E0,-1.248713833E-1,1.201192225E1,3.591805996E0,1.253805963E1
1.470434042E0,-2.247333482E-1,1.116386431E1,6.989095008E-1,1.118797774E1
1.480502042E0,-9.801249057E-2,1.066691179E1,-2.207008159E0,1.089327768E1
1.490569042E0,-7.463795364E-2,1.050017727E1,-4.193282173E0,1.130676386E1
1.500637042E0,4.780756608E-1,1.047750878E1,-4.677146870E0,1.148400842E1
1.510705042E0,1.054214098E0,1.043298925E1,-4.492697622E0,1.140802192E1
1.520772042E0,1.068923646E0,1.028919686E1,-5.016191822E0,1.149662343E1
1.530840042E0,1.106354305E0,9.930540351E0,-5.457485865E0,1.138524499E1
1.540908042E0,1.627379811E0,9.453743768E0,-5.147177639E0,1.088646288E1
1.550975042E0,2.352112078E0,8.922948149E0,-4.531661713E0,1.028043738E1
1.561043042E0,2.985438623E0,8.203027849E0,-4.050954512E0,9.623551430E0
1.571111042E0,3.472727742E0,7.543498176E0,-3.608947109E0,9.054761285E0
1.581178042E0,3.840922526E0,7.078292529E0,-3.007557471E0,8.596529120E0
1.591246042E0,4.138152870E0,6.650659336E0,-2.307661545E0,8.165836184E0
1.601314042E0,4.235836455E0,6.453861938E0,-1.535449594E0,7.870975151E0
1.611381042E0,4.111591893E0,5.595509391E0,2.173560331E0,7.275938273E0
1.621449042E0,5.159498892E0,1.084476070E0,2.122854564E1,2.187344662E1
1.631517042E0,4.808908904E0,1.535260144E0,1.671801401E1,1.746352258E1
1.641584042E0,3.695752241E0,3.681653727E0,-8.987123680E-1,5.293471707E0
1.651652042E0,2.935184729E0,5.671265917E0,-9.207530966E0,1.120523061E1
1.661720042E0,7.477185488E-2,3.680966679E0,-8.077286400E0,8.876804724E0
1.671787042E0,-3.880175470E0,-2.178181971E0,-7.502482882E0,8.722814211E0
1.681855042E0,-1.115812469E1,-1.624363174E1,-9.076710625E0,2.169668164E1
1.691923042E0,-1.666248651E1,-3.221820970E1,-1.094570820E1,3.788746522E1
1.701990042E0,-2.079685272E1,-4.739301135E1,-1.077726512E1,5.286545234E1
1.712058042E0,-3.191514384E1,-6.151392488E1,2.333516178E0,6.933963267E1
1.722126042E0,-3.624903459E1,-4.792121607E1,2.736604046E1,6.602526508E1
1.732193042E0,-1.395048357E1,-1.890844531E1,1.185239267E1,2.631776031E1
1.742261042E0,-4.394560585E0,-1.270905069E1,-1.062724428E1,1.713973317E1
1.752329042E0,-2.512911970E0,-1.142072197E1,-1.094104563E1,1.601418423E1
1.762396042E0,6.866932055E-1,-7.931272654E0,-7.041396598E0,1.062816539E1
1.772464042E0,3.774580894E0,-4.592139464E0,-2.526348580E0,6.458919641E0
1.782532042E0,7.359754102E0,-1.190846279E0,3.171140930E0,8.101865840E0
1.792599042E0,9.631179281E0,2.164562636E0,6.563893672E0,1.185452006E1
1.802667042E0,9.845408399E0,4.982311301E0,5.159659106E0,1.218103339E1
1.812735042E0,9.362588600E0,7.254552752E0,2.490198169E0,1.210320982E1
1.822802042E0,8.546458797E0,9.357289268E0,1.136422734E0,1.272368960E1
1.832870042E0,7.383912458E0,1.138859386E1,1.962670559E0,1.371401870E1
1.842937042E0,5.224073203E0,1.253380847E1,3.977618734E0,1.414951400E1
1.853005042E0,1.810660786E0,1.346042726E1,5.957499987E0,1.483082602E1
1.863073042E0,-8.448668209E-1,1.370813519E1,7.357015851E0,1.558051516E1
1.873140042E0,-1.917827677E0,1.353193520E1,6.645486889E0,1.519716517E1
1.883208042E0,-2.108489007E0,1.259460782E1,4.062093458E0,1.340039086E1
1.893276042E0,-1.457470249E0,1.191292070E1,1.479909232E0,1.209264365E1
1.903343042E0,-4.889003187E-1,1.135083254E1,-1.185628223E-1,1.136197518E1
1.913411042E0,-9.732719690E-2,1.115568289E1,-8.246193749E-1,1.118654238E1
1.923479042E0,1.940954000E-1,1.114693311E1,-1.197212727E0,1.121272087E1
1.933546042E0,1.322431727E0,1.141727562E1,-1.665658316E0,1.161367409E1
1.943614042E0,2.783976316E0,1.136853557E1,-1.548688860E0,1.180646274E1
1.953682042E0,3.772963262E0,1.074921369E1,-9.404041851E-1,1.143088828E1
1.963749042E0,3.964627098E0,1.014488173E1,-5.784931111E-1,1.090740793E1
1.973817042E0,3.801254723E0,9.544662125E0,-3.425860262E-1,1.027946875E1
1.983885042E0,3.608756197E0,9.072605295E0,-1.024747932E-1,9.764516845E0
1.993952042E0,3.442965707E0,8.706268464E0,-6.832588434E-2,9.362573997E0
2.004020042E0,3.159536254E0,8.457527325E0,-3.211834627E-1,9.034135078E0
2.014088042E0,2.897273721E0,8.245736496E0,-6.476756126E-1,8.763894630E0
2.024155042E0,2.974141803E0,7.991656850E0,-1.254216648E0,8.618883807E0
2.034223042E0,3.140856738E0,7.796780262E0,-1.471997949E0,8.533553859E0
2.044291042E0,2.831465355E0,7.562709203E0,2.937617755E-1,8.080721659E0
2.054358042E0,-2.175175917E-1,7.356911770E0,7.205520925E0,1.030004837E1
2.064426042E0,-2.259450375E0,5.453747156E0,8.746920061E0,1.055258663E1
2.074494042E0,4.944168743E-1,2.893550214E0,8.197912558E-1,3.047808818E0
2.084561042E0,1.558800742E0,3.502388620E-1,-3.085684458E0,3.474762667E0
2.094629042E0,-4.724728587E-1,-5.145693616E0,-2.004753701E-1,5.171226524E0
2.104697042E0,-4.410666741E0,-1.240002534E1,-1.847427785E-1,1.316239870E1
2.114764042E0,-7.676790719E0,-2.030128482E1,-5.697205335E0,2.243955057E1
2.124832042E0,-1.363083383E1,-3.960646605E1,-9.416489988E0,4.293183048E1
2.134899958E0,-2.208855645E1,-6.281876614E1,-1.354219706E1,6.795213615E1
2.144966958E0,-2.618810250E1,-6.697777837E1,1.274760840E0,7.192679975E1
2.155034958E0,-1.606141028E1,-3.441270950E1,1.738224016E1,4.176536541E1
2.165102958E0,-7.676717629E0,-1.237447418E1,6.985199593E0,1.615093242E1
2.175169958E0,-7.125714033E0,-8.538904780E0,-5.696420639E0,1.249551533E1
2.185237958E0,-6.307341823E0,-7.413968900E0,-7.737075512E0,1.243430067E1
2.195305958E0,-3.337947959E0,-4.450103579E0,-6.101583567E0,8.256793595E0
2.205372958E0,-1.088716471E-1,-1.055404299E0,-2.176576910E0,2.421408333E0
2.215440958E0,1.194318940E0,2.238417063E0,3.284037216E0,4.149916760E0
2.225508958E0,1.442868290E0,4.402432984E0,5.276363683E0,7.021630779E0
2.235575958E0,1.509061987E0,6.243065720E0,4.529954910E0,7.859620166E0
2.245643958E0,2.033273349E0,7.887168860E0,3.665056990E0,8.931644635E0
2.255711958E0,2.513440851E0,9.574099932E0,3.148553721E0,1.038721161E1
2.265778958E0,2.997185387E0,1.104161657E1,2.857609134E0,1.179263952E1
2.275846958E0,3.262825856E0,1.205272529E1,2.981312828E0,1.283754048E1
2.285914958E0,3.679489965E0,1.294056885E1,3.733698624E0,1.396200108E1
2.295981958E0,3.979312087E0,1.370890819E1,4.773267494E0,1.505168333E1
2.306049958E0,3.658809240E0,1.367657894E1,3.710745964E0,1.463575526E1
2.316117958E0,3.759600913E0,1.353605164E1,7.295921803E-1,1.406739484E1
2.326184958E0,3.849103658E0,1.342714140E1,-2.347058914E0,1.416377106E1
2.336252958E0,4.078448997E0,1.351197865E1,-3.819187256E0,1.462167927E1
2.346320958E0,3.887062028E0,1.300820243E1,-4.173637868E0,1.420358528E1
2.356387958E0,3.279693612E0,1.260565204E1,-3.952787948E0,1.361188400E1
2.366455958E0,2.855775447E0,1.215015978E1,-3.498994896E0,1.296243810E1
2.376523958E0,2.723755842E0,1.168161889E1,-2.813376701E0,1.232047703E1
2.386590958E0,2.491404742E0,1.140519294E1,-2.101637240E0,1.186180436E1
2.396658958E0,2.239633868E0,1.111981373E1,-1.472579162E0,1.143829999E1
2.406726958E0,2.045300194E0,1.045530340E1,-8.157859862E-1,1.068466793E1
2.416793958E0,1.806453714E0,9.716298954E0,2.962433338E-1,9.887239276E0
2.426861958E0,1.282710714E0,9.030964934E0,2.014108515E0,9.341322579E0
2.436929958E0,1.214579250E0,8.333114948E0,2.726513389E0,8.851546913E0
2.446996958E0,1.571316707E0,7.977056352E0,1.914552652E0,8.352722676E0
2.457064958E0,1.559532229E0,7.873201032E0,1.552241043E0,8.174893731E0
2.467132958E0,1.013668043E0,7.642174618E0,2.743184971E0,8.182629136E0
2.477199958E0,6.826539490E-1,7.120152161E0,4.895108850E0,8.667449098E0
2.487267958E0,5.708668801E-1,5.587251368E0,6.640627268E0,8.697194798E0
2.497335958E0,1.112321388E0,3.093166555E0,5.310816647E0,6.245775506E0
2.507402958E0,6.935835645E-1,2.132567257E-1,4.936438724E0,4.989485331E0
2.517470958E0,1.891495619E0,2.060634810E-1,-2.593696225E0,3.216749592E0
2.527538958E0,5.993834585E-1,2.667985100E-1,-7.197657589E0,7.227497267E0
2.537605958E0,-3.465992042E0,-4.015865956E0,-8.779689612E0,1.025783749E1
2.547673958E0,-9.997023193E0,-1.759788314E1,-1.079137446E1,2.293642793E1
2.557740958E0,-1.781660292E1,-4.085461739E1,-1.537658789E1,4.714838869E1
2.567808958E0,-2.473713231E1,-6.207812506E1,-2.103113896E1,7.005660663E1
2.577876958E0,-2.861763463E1,-6.836714230E1,-1.806042830E1,7.628377434E1
2.587944958E0,-2.188461493E1,-4.375069652E1,5.106918390E0,4.918475813E1
2.598011958E0,-1.206058863E1,-1.408781595E1,3.002906829E1,3.529404056E1
2.608079958E0,-6.062407222E0,-9.091630965E0,1.614033834E1,1.949156373E1
2.618146958E0,-3.729428403E0,-1.025798443E1,2.825245965E-1,1.091854848E1
2.628214958E0,-1.928390965E0,-8.728217742E0,-4.284378870E0,9.912435571E0
2.638282958E0,-1.573456496E-2,-5.597842430E0,-4.133230684E0,6.958425349E0
2.648350958E0,2.907999853E0,-1.455172001E0,-6.188084936E-1,3.310122755E0
2.658417958E0,5.847433169E0,3.182209709E0,6.540314190E0,9.332451072E0
2.668485958E0,7.574942747E0,6.878024808E0,1.110106522E1,1.509704050E1
2.678553958E0,7.880987184E0,9.128280144E0,1.059075649E1,1.604990904E1
2.688620958E0,7.189249878E0,1.064572148E1,8.579826518E0,1.544765752E1
2.698688958E0,6.187884377E0,1.202328105E1,7.328056930E0,1.538016966E1
2.708755958E0,5.062410554E0,1.236898715E1,7.322564056E0,1.523941561E1
2.718823958E0,4.333202536E0,1.310212275E1,7.383332999E0,1.565106612E1
2.728891958E0,3.915891140E0,1.314490565E1,5.101009778E0,1.463362733E1
2.738958958E0,3.447509578E0,1.290464473E1,7.806915826E-1,1.338000961E1
2.749026958E0,3.302863496E0,1.260041644E1,-3.775795069E0,1.356230180E1
2.759094958E0,2.752911814E0,1.200340637E1,-7.020251312E0,1.417547940E1
2.769161958E0,2.530220898E0,1.201584924E1,-7.867475438E0,1.458354623E1
2.779229958E0,2.187803564E0,1.214691458E1,-7.213101255E0,1.429555343E1
2.789297958E0,1.788456277E0,1.216615777E1,-5.942177943E0,1.365735880E1
2.799364958E0,1.660720927E0,1.191448074E1,-4.518986118E0,1.285045061E1
2.809432958E0,1.734275099E0,1.174371749E1,-3.016599605E0,1.224836657E1
2.819500958E0,1.612400999E0,1.138925109E1,-2.195505517E0,1.171047060E1
2.829567958E0,1.396080917E0,1.093949378E1,-1.851371148E0,1.118253734E1
2.839635958E0,1.341775779E0,1.058023033E1,-1.643748214E0,1.079090099E1
2.849703958E0,1.382762421E0,1.033401109E1,-1.273482639E0,1.050359820E1
2.859770958E0,8.803038713E-1,1.002318013E1,-9.462433973E-2,1.006220794E1
2.869838958E0,-8.424250236E-1,9.758011821E0,2.297977971E0,1.006027720E1
2.879906958E0,-1.883243735E0,9.440071224E0,3.449155569E0,1.022537167E1
2.889973958E0,-2.164302435E0,9.143972901E0,4.205960691E0,1.029497697E1
2.900041958E0,-3.679049962E0,8.793192587E0,9.178421772E0,1.323250055E1
2.910109958E0,-4.456817352E0,7.208938038E0,1.397230889E1,1.634189170E1
2.920176958E0,-1.513053589E0,2.831186151E0,1.545292914E1,1.578283768E1
2.930244958E0,4.616306591E0,-5.334064007E-2,1.836197623E0,4.968375336E0
2.940312958E0,7.359220251E0,2.008286442E0,-1.113106143E1,1.349414190E1
2.950379958E0,4.617708753E0,-5.727406204E-2,-6.372304974E0,7.869738568E0
2.960447958E0,1.741689076E0,-7.459772480E0,4.973828160E0,9.133490727E0
2.970515958E0,-2.065316968E0,-7.000508773E0,-3.130563008E0,7.941856333E0
2.980582958E0,-6.622433656E0,-1.349341257E1,-9.334317897E0,1.769345362E1
2.990650958E0,-1.289689717E1,-3.286098710E1,-1.131869274E1,3.707138027E1
3.000718958E0,-2.091342749E1,-5.701245293E1,-2.098088097E1,6.424942494E1
3.010785958E0,-2.462021606E1,-6.820700811E1,-2.276750005E1,7.600467126E1
3.020853958E0,-2.015486353E1,-5.318535673E1,-7.681860255E0,5.739260990E1
3.030921958E0,-9.666250881E0,-2.144468212E1,1.867260839E1,3.003293361E1
3.040988958E0,-6.333380644E0,-8.505166930E0,2.351855853E1,2.579868544E1
3.051056958E0,-6.063790673E0,-8.697590611E0,7.710474190E0,1.310988375E1
3.061124958E0,-4.880010462E0,-7.989298668E0,-1.208739928E0,9.439515217E0
3.071191958E0,-2.815469128E0,-4.622747884E0,-3.327970855E0,6.353900725E0
3.081259958E0,-1.195306242E0,-7.368444818E-1,-2.323000546E0,2.714411232E0
3.091327958E0,6.578427511E-1,3.034561667E0,-3.175809932E-1,3.121246431E0
3.101394958E0,2.752385564E0,6.978573529E0,3.277993534E0,8.186657217E0
3.111462958E0,4.275925550E0,1.078990914E1,7.519292457E0,1.382915173E1
3.121530958E0,4.528785175E0,1.347370394E1,8.959773914E0,1.680262306E1
3.131598083E0,4.122764168E0,1.463110649E1,7.925457598E0,1.714290931E1
3.141666083E0,4.157582583E0,1.476217534E1,7.471972110E0,1.705982652E1
3.151734083E0,4.221920958E0,1.462684972E1,7.894610027E0,1.714917539E1
3.161801083E0,3.746161380E0,1.454680601E1,6.829843751E0,1.650121377E1
3.171869083E0,2.923142388E0,1.489980593E1,4.588200780E0,1.586192184E1
3.181937083E0,2.518242000E0,1.507247304E1,2.088637710E0,1.542346893E1
3.192004083E0,2.801167130E0,1.469837403E1,-1.185631805E0,1.500981209E1
3.202072083E0,2.762036394E0,1.373573639E1,-4.718279693E0,1.478382435E1
3.212140083E0,3.022944419E0,1.268973266E1,-6.174394850E0,1.443227840E1
3.222207083E0,2.936524910E0,1.188844660E1,-6.524307438E0,1.387533526E1
3.232275083E0,2.607702645E0,1.166271484E1,-5.285818630E0,1.306747524E1
3.242343083E0,2.602774612E0,1.149428813E1,-3.827596722E0,1.239127080E1
3.252410083E0,2.670602898E0,1.116179206E1,-2.843658262E0,1.182387898E1
3.262478083E0,2.805374494E0,1.049349039E1,-2.090146877E0,1.106129200E1
3.272546083E0,2.887544831E0,9.895455887E0,-1.648870375E0,1.043919230E1
3.282613083E0,2.916247059E0,9.440063038E0,-1.437651404E0,9.984294098E0
3.292681083E0,3.101374876E0,9.023298064E0,-1.309213804E0,9.630808630E0
3.302749083E0,3.393213795E0,8.706821026E0,-1.329945107E0,9.438823349E0
3.312816083E0,3.598199634E0,8.427746286E0,-1.412102580E0,9.271892028E0
3.322884083E0,3.632773636E0,8.289301177E0,-1.195643407E0,9.129026314E0
3.332952083E0,3.471441647E0,8.350195250E0,-8.262180767E-1,9.080710552E0
3.343019083E0,3.512854552E0,8.299198759E0,-1.121182551E0,9.081514051E0
3.353087083E0,3.597631577E0,8.056405993E0,-1.003680414E0,8.880090363E0
3.363155083E0,3.340712523E0,7.568462863E0,-9.412204564E-1,8.326336903E0
3.373222083E0,2.876912547E0,6.688346980E0,-1.578541235E0,7.449993527E0
3.383290083E0,1.129292639E0,3.674531819E0,-1.742402437E0,4.220598560E0
3.393358083E0,-5.026415094E0,-6.186747093E0,-3.740734579E0,8.805326995E0
3.403425083E0,-1.216309733E1,-2.633023662E1,-9.676944854E0,3.057557127E1
3.413493083E0,-1.505751118E1,-5.133205132E1,-1.550064125E1,5.569540390E1
3.423561083E0,-2.415434266E1,-6.990536230E1,-1.860063151E1,7.626385409E1
3.433628083E0,-3.688713422E1,-6.955222322E1,-1.316343548E1,7.982135340E1
3.443696083E0,-2.867647400E1,-4.603943238E1,1.883237187E1,5.741626708E1
3.453764083E0,-1.043587544E1,-1.574678096E1,2.442097102E1,3.087478635E1
3.463831083E0,-4.178018017E0,-9.299331082E0,6.995565537E0,1.236411462E1
3.473899083E0,-1.822526540E0,-7.100601411E0,-1.914951578E0,7.576752796E0
3.483967083E0,7.020044321E-1,-4.234972236E0,-4.236995373E0,6.031577725E0
3.494034083E0,2.265590828E0,-9.888267320E-1,-1.395515345E0,2.838686877E0
3.504102083E0,2.518922031E0,3.256569335E0,4.798105881E0,6.322343876E0
3.514170083E0,3.411553295E0,7.770956619E0,9.622058794E0,1.283006150E1
3.524237083E0,3.092956348E0,1.092828935E1,1.040516235E1,1.540328831E1
3.534305083E0,1.823500687E0,1.256426311E1,8.934358406E0,1.552445240E1
3.544373083E0,9.035114703E-1,1.343754242E1,7.266283436E0,1.530303089E1
3.554440083E0,7.767891508E-1,1.433801013E1,7.390741421E0,1.614945803E1
3.564508083E0,9.116999111E-1,1.516881410E1,7.393259232E0,1.689924259E1
3.574576083E0,2.723843551E-1,1.467347307E1,4.862841575E0,1.546066730E1
3.584643083E0,1.297082001E-1,1.408498356E1,8.771244478E-1,1.411286411E1
3.594711083E0,1.072142831E0,1.344316978E1,-3.519011670E0,1.393742255E1
3.604779083E0,1.538957924E0,1.226228716E1,-7.043868801E0,1.422491355E1
3.614846083E0,1.691743330E0,1.175291633E1,-8.017582819E0,1.432740981E1
3.624914083E0,1.904469421E0,1.203026614E1,-7.250335155E0,1.417468402E1
3.634982083E0,2.079413728E0,1.227514870E1,-6.030867925E0,1.383382105E1
3.645049083E0,2.089823379E0,1.227807581E1,-5.182198952E0,1.348976254E1
3.655117083E0,1.234211276E0,1.206858411E1,-4.234120882E0,1.284919373E1
3.665185083E0,1.478942979E0,1.222671387E1,-2.558714672E0,1.257882448E1
3.675252083E0,1.447932417E0,1.195459264E1,-1.475540192E0,1.213202425E1
3.685320083E0,1.434918123E0,1.169334840E1,-5.107028317E-1,1.179212467E1
3.695387083E0,1.263443554E0,1.133810666E1,2.368695366E-1,1.141074316E1
3.705455083E0,9.151243329E-1,1.080699705E1,8.392029154E-1,1.087809263E1
3.715523083E0,8.092289186E-1,9.981255591E0,1.746570332E0,1.016517696E1
3.725590083E0,4.019530991E-1,9.080869165E0,3.669643546E0,9.802552466E0
3.735658083E0,5.096620274E-1,8.374733090E0,4.978915823E0,9.756306293E0
3.745726083E0,5.011809334E-1,7.560100175E0,5.832608138E0,9.561674261E0
3.755793083E0,1.725941648E0,6.243465085E0,7.530990981E0,9.933557067E0
3.765861083E0,4.322534583E0,3.274760023E0,1.375724128E1,1.478749627E1
3.775929083E0,7.277837534E0,1.306007191E0,1.098485765E1,1.324158871E1
3.785997083E0,7.334346195E0,1.212955186E0,2.607021444E0,7.877845848E0
3.796064083E0,6.307004439E0,-3.813875645E0,6.556618567E0,9.864745281E0
3.806132083E0,4.507549549E0,-5.239993417E0,2.067835510E0,7.214671000E0
3.816199083E0,6.004862434E-1,-1.271708009E0,-1.000201905E1,1.010040643E1
3.826267083E0,-3.809356917E0,-4.226721815E0,-1.382155363E1,1.494696365E1
3.836335083E0,-8.505992557E0,-1.640110544E1,-1.451203964E1,2.349356217E1
3.846402083E0,-1.354367640E1,-3.689701133E1,-1.908954644E1,4.369475254E1
3.856470083E0,-1.939287543E1,-5.264630426E1,-1.894054068E1,5.921537850E1
3.866538083E0,-2.671603123E1,-6.151879445E1,-1.879803000E1,6.965396131E1
3.876606083E0,-2.837650482E1,-5.066390636E1,-1.296621357E1,5.949941284E1
3.886673083E0,-1.760031441E1,-1.891246001E1,1.222360900E1,2.858091720E1
3.896741083E0,-1.193617040E1,-6.186345974E0,2.670044255E1,2.989409093E1
3.906809083E0,-6.903047968E0,-7.553177657E0,9.897747996E0,1.423615044E1
3.916876083E0,-4.893682129E0,-8.038878964E0,1.745136595E-1,9.412871761E0
3.926944083E0,-3.318550698E0,-6.762718885E0,-2.515152916E0,7.941859961E0
3.937012083E0,-7.578944582E-1,-4.440265054E0,-2.433022925E0,5.119566223E0
3.947079083E0,1.990000445E0,-1.308630252E0,-3.681874752E-2,2.382009766E0
3.957147083E0,5.326688329E0,2.863723567E0,4.378164700E0,7.466113270E0
3.967215083E0,9.099331164E0,7.209130411E0,9.657260202E0,1.510073056E1
3.977282083E0,1.127367736E1,1.037484571E1,1.283009624E1,1.998360814E1
3.987350083E0,1.091100498E1,1.246483237E1,1.470495916E1,2.215079908E1
3.997417083E0,9.548390894E0,1.346176393E1,1.549233587E1,2.263632760E1
4.007485083E0,8.012757112E0,1.324124672E1,1.421503032E1,2.101432792E1
4.017553083E0,5.297425938E0,1.265962885E1,1.107863647E1,1.763703802E1
4.027621083E0,3.121120924E0,1.258155449E1,8.089221736E0,1.527980424E1
4.037688083E0,1.824074006E0,1.235088885E1,5.561179218E0,1.366742169E1
4.047756083E0,9.503444517E-1,1.173605763E1,1.978411263E0,1.193952740E1
4.057823083E0,3.530373394E-1,1.100221920E1,-2.497332941E0,1.128760978E1
4.067891083E0,2.035857233E-1,1.034835315E1,-5.675542570E0,1.180430614E1
4.077959083E0,9.117209610E-1,9.827877277E0,-7.775466576E0,1.256488310E1
4.088026083E0,1.300609626E0,1.021083833E1,-9.324168885E0,1.388858993E1
4.098094083E0,1.082957841E0,1.019872757E1,-8.808998780E0,1.351981144E1
4.108162083E0,9.991792274E-1,9.924863874E0,-7.150651238E0,1.227326750E1
4.118229083E0,1.208607196E0,1.037295940E1,-5.535253834E0,1.181939309E1
4.128296958E0,1.838724497E0,1.030795356E1,-4.432337984E0,1.137015543E1
4.138364958E0,2.548998646E0,1.013846617E1,-3.743784487E0,1.110413494E1
4.148431958E0,2.997092417E0,9.947341740E0,-3.344755872E0,1.091419088E1
4.158499958E0,3.143919802E0,9.706128892E0,-3.282354387E0,1.071760328E1
4.168567958E0,2.882513595E0,9.294276164E0,-3.455524356E0,1.032633055E1
4.178634958E0,2.335374423E0,8.577585281E0,-4.003542072E0,9.749732923E0
4.188702958E0,2.609627256E0,8.376873171E0,-4.625769725E0,9.918664431E0
4.198770958E0,2.619268438E0,8.130136458E0,-4.110862745E0,9.479392306E0
4.208837958E0,2.534432355E0,7.918019940E0,-3.753403741E0,9.121755685E0
4.218905958E0,1.451595844E0,6.736056751E0,-3.207490146E0,7.600630506E0
4.228973958E0,-2.036956510E-1,4.851206201E0,-2.187251733E0,5.325388593E0
4.239040958E0,-1.387194318E0,3.623568072E0,-2.928259871E0,4.860993676E0
4.249108958E0,-4.388042402E0,-1.877849679E0,-3.667640290E0,6.019370468E0
4.259176958E0,-8.154062680E0,-1.499778070E1,-3.603099893E0,1.744719155E1
4.269243958E0,-9.328266029E0,-3.022849109E1,-2.654846991E0,3.174628220E1
4.279311958E0,-8.276226218E0,-4.219809237E1,1.419143797E0,4.302544467E1
4.289379958E0,-1.012767104E1,-5.326384975E1,2.952477284E0,5.429847635E1
4.299446958E0,-1.731107019E1,-5.363996605E1,-5.215293024E0,5.660493257E1
4.309514958E0,-1.584825120E1,-3.485278966E1,-3.976770887E0,3.849283985E1
4.319582958E0,-1.044695357E1,-1.404295962E1,4.790512687E0,1.814642019E1
4.329649958E0,-1.243408420E1,-8.154446257E0,6.394320910E0,1.618606758E1
4.339717958E0,-1.118653280E1,-8.161288084E0,2.140958011E0,1.401173938E1
4.349785958E0,-7.722067464E0,-7.713789561E0,-9.142753903E-1,1.095302583E1
4.359852958E0,-4.083482281E0,-6.265763442E0,-1.064366326E0,7.554303060E0
4.369920958E0,-1.034384436E0,-4.270519799E0,4.367074140E-1,4.415654411E0
4.379988958E0,1.580512331E0,-2.102448249E0,2.448348477E0,3.593427073E0
4.390055958E0,3.716957169E0,8.960857987E-3,3.854187520E0,5.354494591E0
4.400123958E0,6.083031521E0,2.307254578E0,4.306442753E0,7.802060328E0
4.410191958E0,7.949037080E0,4.975477660E0,4.069906508E0,1.022285222E1
4.420258958E0,8.479905789E0,8.043996447E0,4.284374192E0,1.244871653E1
4.430326958E0,7.510431587E0,1.053024599E1,4.888211474E0,1.382704866E1
4.440394958E0,5.770651626E0,1.229100752E1,5.042844601E0,1.448445952E1
4.450461958E0,4.000316748E0,1.355672622E1,5.420294065E0,1.513826105E1
4.460529958E0,2.319877548E0,1.490175656E1,6.003194808E0,1.623214491E1
4.470597958E0,3.667762497E-1,1.554712194E1,5.190026035E0,1.639463008E1
4.480664958E0,-1.477444630E0,1.513512712E1,2.319997416E0,1.538301998E1
4.490732958E0,-2.948866044E0,1.434853161E1,-4.321133298E-1,1.465479076E1
4.500800958E0,-3.782112108E0,1.369755524E1,-2.071178509E0,1.436026365E1
4.510867958E0,-3.922780329E0,1.283404662E1,-2.310889792E0,1.361767857E1
4.520935958E0,-2.855988870E0,1.224759896E1,-1.912672187E0,1.272079665E1
4.531003958E0,-1.749045458E0,1.185078819E1,-1.480541316E0,1.207030834E1
4.541070958E0,-8.323711748E-1,1.147624830E1,-1.134849833E0,1.156222301E1
4.551138958E0,-1.072920218E-1,1.115021808E1,-6.001301845E-1,1.116687204E1
4.561206958E0,2.044894105E-1,1.096013212E1,1.417692518E-1,1.096295628E1
4.571273958E0,4.751058599E-1,1.073918338E1,7.740152317E-1,1.077751756E1
4.581341958E0,1.065989806E0,1.002375315E1,8.402396268E-1,1.011523426E1
4.591409958E0,2.091500215E0,8.840605904E0,8.151128255E-2,9.085005778E0
4.601476958E0,2.949096424E0,8.177375529E0,-7.187456683E-1,8.722570469E0
4.611544958E0,3.463918912E0,7.854450765E0,-1.428308138E0,8.702367217E0
4.621612958E0,3.901118442E0,7.661638244E0,-2.451690745E0,8.940369858E0
4.631679958E0,4.168823270E0,7.335819694E0,-3.276358652E0,9.051401221E0
4.641747958E0,4.324564736E0,6.682450647E0,-3.434594833E0,8.669108863E0
4.651815958E0,4.514227362E0,5.925122784E0,-3.706743545E0,8.320172858E0
4.661882958E0,4.799494595E0,5.307145765E0,-4.168644345E0,8.281216107E0
4.671950958E0,4.598750618E0,3.292744889E0,-3.115126358E0,6.457142432E0
4.682018958E0,3.043944986E0,-7.706931946E0,7.755729885E0,1.134961441E1
4.692085958E0,-7.456407407E-1,-7.709294221E0,1.794577727E0,7.950453240E0
4.702153958E0,-4.402076889E0,-1.010625035E1,-5.876023130E0,1.249168623E1
4.712221958E0,-8.344257987E0,-2.487717780E1,-6.016047572E0,2.692013085E1
4.722288958E0,-1.500032541E1,-4.769979838E1,-9.489577260E0,5.089531024E1
4.732356958E0,-2.231112955E1,-6.237788608E1,-3.760729133E0,6.635457978E1
4.742424958E0,-2.835918069E1,-5.826862664E1,1.628957916E1,6.681935625E1
4.752491958E0,-1.655947026E1,-2.760018169E1,1.479751942E1,3.542531109E1
4.762559958E0,-6.759715755E0,-1.132532582E1,2.891519476E0,1.350250521E1
4.772627958E0,-5.870379982E0,-7.620491973E0,-8.781699300E-2,9.619821769E0
4.782694958E0,-4.365809534E0,-7.180905316E0,2.970018346E0,8.913288003E0
4.792762958E0,-1.400180692E0,-6.285496041E0,5.645542846E0,8.563884660E0
4.802830958E0,1.271661816E0,-4.437650179E0,4.890594800E0,6.725160249E0
4.812897958E0,2.772065538E0,-2.238478459E0,3.652468520E0,5.102515012E0
4.822965958E0,3.447963029E0,7.686194211E-1,3.225043488E0,4.783317924E0
4.833033958E0,3.993172620E0,3.529974614E0,2.537915542E0,5.903148621E0
4.843100958E0,4.151710224E0,5.953628545E0,1.160128516E0,7.350393786E0
4.853168958E0,3.873633605E0,8.121383761E0,3.263705277E-1,9.003800821E0
4.863236958E0,3.124257370E0,1.005085383E1,-3.615538456E-1,1.053144662E1
4.873303958E0,2.519571364E0,1.173819888E1,-1.666924238E0,1.212073386E1
4.883371958E0,2.418779107E0,1.319567118E1,-3.124434541E0,1.377455340E1
4.893439958E0,2.595693634E0,1.391404021E1,-3.985802497E0,1.470458303E1
4.903506958E0,2.459611091E0,1.372631769E1,-5.175767015E0,1.487447641E1
4.913574958E0,2.272496828E0,1.361625438E1,-5.977224984E0,1.504306630E1
4.923642958E0,1.875389171E0,1.363843053E1,-5.904780321E0,1.497966297E1
4.933709958E0,1.143875595E0,1.355660577E1,-5.083862818E0,1.452362463E1
4.943777958E0,7.736503655E-1,1.369156184E1,-3.554985495E0,1.416669766E1
4.953845958E0,8.518486887E-1,1.347264677E1,-2.249682893E0,1.368571994E1
4.963912958E0,5.355928208E-1,1.334254856E1,-8.115988681E-1,1.337793536E1
4.973980958E0,1.685347353E-1,1.308332512E1,7.267171774E-1,1.310457622E1
4.984048958E0,-1.325788906E-1,1.264193752E1,1.231501969E0,1.270247057E1
4.994115958E0,-4.447000462E-1,1.220457047E1,1.166715843E0,1.226827307E1
5.004183958E0,-7.687135613E-1,1.178288331E1,1.282851048E0,1.187741413E1
5.014251958E0,-1.389472978E0,1.129433324E1,1.649581397E0,1.149842238E1
5.024318958E0,-2.244319973E0,1.072274218E1,2.500174688E0,1.123677202E1
5.034386958E0,-2.942038250E0,1.002098976E1,3.611324002E0,1.105067807E1
5.044454958E0,-2.582426301E0,9.171693966E0,4.186242126E0,1.040737810E1
5.054521958E0,-1.391149375E0,8.432302437E0,3.786502490E0,9.347546313E0
5.064589958E0,-3.822587997E-2,7.825956699E0,2.981406384E0,8.374714532E0
5.074657958E0,1.103859298E0,5.921013946E0,4.889017805E0,7.757538695E0
5.084724958E0,3.028472669E0,1.980132684E0,1.091326785E1,1.149747743E1
5.094792958E0,5.009534183E0,-3.910360551E-1,9.214159369E0,1.049519294E1
5.104860958E0,5.450486748E0,-6.915291452E-1,3.993893874E-1,5.508677721E0
5.114927958E0,4.518535298E0,-1.087353485E0,-3.764929773E0,5.981153320E0
5.124995958E0,2.614522837E0,2.192575477E0,-9.692122471E0,1.027523016E1
5.135064333E0,-1.290611180E0,1.052634473E0,-1.304941828E1,1.315526640E1
5.145131333E0,-5.095369554E0,-4.884672155E0,-1.142377656E1,1.342853245E1
5.155199333E0,-1.227477214E1,-2.471496902E1,-1.071467653E1,2.960243263E1
5.165267333E0,-1.708315742E1,-4.523237629E1,-1.465203484E1,5.052211652E1
5.175334333E0,-1.912341702E1,-5.592787863E1,-1.204183661E1,6.032112827E1
5.185402333E0,-2.301316263E1,-6.094565505E1,5.015129968E0,6.533858012E1
5.195470333E0,-2.020590270E1,-4.023298820E1,1.969498469E1,4.914126845E1
5.205538333E0,-7.529502865E0,-1.701155008E1,1.164475804E1,2.194736065E1
5.215605333E0,-3.185427140E0,-9.374800510E0,-1.701340950E-1,9.902665110E0
5.225673333E0,-3.402313817E0,-7.769212979E0,-3.982208213E0,9.369866161E0
5.235740333E0,-3.164295595E0,-5.526119313E0,-3.310064342E0,7.176857754E0
5.245808333E0,-2.793430095E0,-2.352610846E0,-6.950877607E-1,3.717684290E0
5.255876333E0,-1.218988343E0,8.636916393E-1,3.474662293E0,3.782218116E0
5.265943333E0,1.642891012E0,4.055635208E0,6.342454938E0,7.705452774E0
5.276011333E0,4.014768434E0,6.741504017E0,7.202700813E0,1.065106290E1
5.286079333E0,5.722874612E0,9.013330901E0,7.022550437E0,1.277918786E1
5.296146333E0,6.860715296E0,1.062337109E1,6.192128870E0,1.408076303E1
5.306214333E0,7.171614676E0,1.176711220E1,4.789235655E0,1.458882328E1
5.316282333E0,6.719953519E0,1.269005075E1,4.362467265E0,1.500754090E1
5.326349333E0,5.746268737E0,1.338110276E1,4.268156354E0,1.517533110E1
5.336417333E0,4.758595076E0,1.390411047E1,3.180047994E0,1.503599748E1
5.346485333E0,3.606820769E0,1.369467022E1,8.201339757E-1,1.418540688E1
5.356552333E0,2.204594282E0,1.360464064E1,-5.716583373E-1,1.379395796E1
5.366620333E0,5.740530279E-1,1.351320773E1,-8.261928606E-1,1.355060570E1
5.376688333E0,-5.864276366E-1,1.347352853E1,-1.376489528E0,1.355634876E1
5.386755333E0,-1.010399596E0,1.355637656E1,-1.937861992E0,1.373140786E1
5.396823333E0,-8.670356619E-1,1.281450990E1,-2.329192747E0,1.305329666E1
5.406891333E0,-6.319240907E-1,1.186594417E1,-3.201310224E0,1.230643516E1
5.416958333E0,-2.902826822E-1,1.065728260E1,-3.504252128E0,1.122237584E1
5.427026333E0,2.428803281E-1,9.878854473E0,-2.982435493E0,1.032209659E1
5.437094333E0,5.957609622E-1,9.412002835E0,-2.392188309E0,9.729506328E0
5.447161333E0,8.701560286E-1,8.964281532E0,-1.870786242E0,9.198660558E0
5.457229333E0,1.204223246E0,8.533760984E0,-1.556246971E0,8.757690037E0
5.467297333E0,1.482618831E0,8.180086298E0,-1.424105013E0,8.434455853E0
5.477364333E0,1.760805086E0,7.839590067E0,-1.469337612E0,8.168142995E0
5.487432333E0,2.255696170E0,7.558988035E0,-1.805524299E0,8.092365743E0
5.497500333E0,3.003380805E0,7.441639679E0,-2.594789069E0,8.433933109E0
5.507567333E0,3.387397570E0,7.339308143E0,-2.878471999E0,8.580530715E0
5.517635333E0,3.208566034E0,7.133598418E0,-2.601312808E0,8.243176009E0
5.527703333E0,2.797312061E0,6.894409876E0,-2.891997194E0,7.982574151E0
5.537770333E0,1.756541004E0,5.628654917E0,-5.381426454E-1,5.920877468E0
5.547838333E0,9.515001538E-1,4.063026089E0,5.791501189E-1,4.212950083E0
5.557906333E0,-2.237723583E-1,2.139946443E0,-4.827222238E-1,2.205099905E0
5.567973333E0,-4.910399319E0,-4.240151115E0,-1.191065038E0,6.596176080E0
5.578041333E0,-8.963917251E0,-1.620690070E1,-3.234168652E0,1.880093853E1
5.588109333E0,-1.075686302E1,-3.236947015E1,-7.960143866E0,3.502651268E1
5.598176333E0,-1.435247965E1,-5.244483727E1,-1.329309164E1,5.597464528E1
5.608244333E0,-2.113922591E1,-6.528978076E1,-1.074127668E1,6.946220101E1
5.618312333E0,-2.724034404E1,-5.817557639E1,4.885700680E0,6.442285389E1
5.628380333E0,-1.689085419E1,-2.393980832E1,1.780280466E1,3.428345419E1
5.638447333E0,-6.844381683E0,-1.030722734E1,7.853458493E0,1.465473665E1
5.648515333E0,-4.439642033E0,-9.118455652E0,-1.910073684E0,1.032012773E1
5.658582333E0,-2.707364928E0,-7.190741503E0,-4.070194191E0,8.695002528E0
5.668650333E0,-1.208608658E0,-4.618924389E0,-2.144486221E0,5.233929552E0
5.678718333E0,1.313181140E0,-1.711549019E0,7.276497352E-1,2.276690336E0
5.688786333E0,4.106779634E0,1.306417665E0,3.397569094E0,5.487790250E0
5.698853333E0,5.335284905E0,4.012697350E0,5.268886263E0,8.504596845E0
5.708921333E0,5.935220926E0,6.324613329E0,5.312794175E0,1.017120264E1
5.718989333E0,5.955449953E0,8.528976792E0,4.635611758E0,1.138857874E1
5.729056333E0,5.129967529E0,1.045623895E1,4.346742933E0,1.243155960E1
5.739124333E0,4.085283808E0,1.200750059E1,4.533683095E0,1.346936882E1
5.749192333E0,3.281609452E0,1.332693415E1,5.094316471E0,1.463995201E1
5.759259333E0,2.976102667E0,1.447264461E1,5.917688634E0,1.591645902E1
5.769327333E0,2.200143820E0,1.486821576E1,5.981783473E0,1.617671803E1
5.779395333E0,9.792077699E-1,1.474797128E1,4.492232768E0,1.544803094E1
5.789462333E0,-2.681889778E-1,1.464771843E1,2.482751740E0,1.485905908E1
5.799530333E0,-1.820841665E0,1.456270693E1,4.150968359E-1,1.468196863E1
5.809598333E0,-3.168065879E0,1.413893582E1,-1.660587611E0,1.458436488E1
5.819665333E0,-3.296587387E0,1.273426271E1,-3.256959929E0,1.355126279E1
5.829733333E0,-1.737555972E0,1.131751043E1,-4.657071040E0,1.236096492E1
5.839801333E0,-6.229828209E-2,1.067574343E1,-5.513098149E0,1.201539138E1
5.849868333E0,1.047779237E0,1.019534204E1,-4.941354479E0,1.137804134E1
5.859936333E0,1.524153358E0,9.829003451E0,-3.980523046E0,1.071339890E1
5.870004333E0,1.887202593E0,9.723081139E0,-3.309354490E0,1.044278065E1
5.880071333E0,2.416309828E0,9.615460212E0,-2.902753732E0,1.033061506E1
5.890139333E0,3.227542003E0,9.478344759E0,-2.532138492E0,1.032800911E1
5.900207333E0,3.734606697E0,9.271936292E0,-2.418023793E0,1.028411050E1
5.910274333E0,3.793491082E0,9.023941258E0,-2.640413724E0,1.013873143E1
5.920342333E0,3.730259584E0,8.718371031E0,-2.755433718E0,9.875082023E0
5.930410333E0,3.665948106E0,8.387971771E0,-2.530372049E0,9.497369565E0
5.940477333E0,3.580945086E0,8.089777222E0,-2.490865921E0,9.190869177E0
5.950545333E0,3.736651176E0,7.946072541E0,-3.220816535E0,9.352876028E0
5.960613333E0,2.603724492E0,5.579048894E0,-7.471643789E-1,6.201888616E0
5.970680333E0,7.118660536E-1,2.615211639E0,4.250598335E-1,2.743494316E0
5.980748333E0,-8.560885048E-1,-6.886850595E-1,-1.362745063E0,1.750499571E0
5.990816333E0,-4.747702590E0,-6.621467696E0,-3.603081182E0,8.908799489E0
6.000883333E0,-9.824723289E0,-1.982335213E1,-5.738389614E0,2.285650001E1
6.010951333E0,-1.419655078E1,-3.915286479E1,-9.451537614E0,4.270621077E1
6.021019333E0,-1.871417508E1,-5.651468180E1,-1.468898925E1,6.131799094E1
6.031086333E0,-2.352428412E1,-6.699655027E1,-1.489898381E1,7.255280429E1
6.041154333E0,-2.158804649E1,-5.060491030E1,4.606729217E-1,5.501920498E1
6.051222333E0,-1.348122580E1,-1.799533593E1,1.601519389E1,2.760547047E1
6.061289333E0,-7.457523056E0,-7.971462906E0,1.298867975E1,1.696657516E1
6.071357333E0,-3.916578772E0,-7.120188414E0,3.867996304E0,8.999892651E0
6.081425333E0,-2.306172551E0,-5.645089102E0,-7.388915920E-1,6.142590951E0
6.091492333E0,-7.548039123E-1,-3.874611259E0,-1.799691117E0,4.338344093E0
6.101560333E0,1.631961689E0,-1.444725366E0,3.549961567E-2,2.179860216E0
6.111628333E0,4.346992317E0,2.449588087E0,3.780777189E0,6.260279558E0
6.121695333E0,6.637878492E0,6.528195251E0,7.005011129E0,1.165113492E1
6.131762667E0,7.696909819E0,9.546909209E0,8.566927561E0,1.495921602E1
6.141830667E0,7.273612336E0,1.161796844E1,9.411465476E0,1.662703550E1
6.151897667E0,6.519131482E0,1.302035762E1,1.027627569E1,1.782219487E1
6.161965667E0,5.952891212E0,1.423691294E1,1.059904667E1,1.872074769E1
6.172033667E0,5.367741630E0,1.435118507E1,9.559942653E0,1.805994648E1
6.182100667E0,4.235285647E0,1.383223533E1,8.582522085E0,1.682046563E1
6.192168667E0,3.224505836E0,1.326569626E1,8.161668738E0,1.590562705E1
6.202236667E0,2.230671841E0,1.221425112E1,6.465011408E0,1.399857849E1
6.212303667E0,1.439478951E0,1.086119606E1,2.779505535E0,1.130324425E1
6.222371667E0,1.476935630E0,9.678144702E0,-1.481712513E0,9.901681459E0
6.232439667E0,2.342684320E0,9.027521508E0,-5.744360790E0,1.095362932E1
6.242506667E0,3.383334632E0,9.389886326E0,-8.219590087E0,1.292975559E1
6.252574667E0,3.094359972E0,1.005456096E1,-7.770624497E0,1.307867978E1
6.262642667E0,2.539019496E0,1.046751706E1,-6.381595030E0,1.251959618E1
6.272709667E0,2.024089712E0,1.035758707E1,-5.022229657E0,1.168757202E1
6.282777667E0,1.980459835E0,9.868200846E0,-3.957216629E0,1.081495134E1
6.292845667E0,2.380636258E0,9.571253507E0,-3.287345570E0,1.039629567E1
6.302912667E0,2.803399890E0,9.299782487E0,-2.965376827E0,1.015571095E1
6.312980667E0,3.260036734E0,9.179764878E0,-2.634543119E0,1.009141914E1
6.323048667E0,3.475927631E0,9.069945982E0,-2.171758951E0,9.953016123E0
6.333115667E0,3.584315713E0,8.825769764E0,-1.819796768E0,9.698102461E0
6.343183667E0,3.562471100E0,8.507346187E0,-1.673964140E0,9.373809014E0
6.353251667E0,3.427544552E0,8.022108564E0,-1.277868635E0,8.816758799E0
6.363318667E0,1.544661005E0,6.095458024E0,2.958501086E0,6.949339164E0
6.373386667E0,-2.992557024E0,9.787782919E-1,1.505870869E1,1.538434633E1
6.383454667E0,-1.128850590E0,-4.877805769E-2,1.243349831E1,1.248473321E1
6.393521667E0,2.215765242E0,2.958518043E0,-5.471797510E0,6.603257727E0
6.403589667E0,6.667600474E-1,-2.192705870E-1,-8.803733363E0,8.831668567E0
6.413657667E0,-3.459001696E0,-9.471846163E0,-1.014432157E1,1.430341996E1
6.423724667E0,-8.680889794E0,-2.747615055E1,-1.332026599E1,3.174470322E1
6.433792667E0,-1.066976991E1,-4.451683614E1,-1.613836666E1,4.853905199E1
6.443860667E0,-1.317298632E1,-5.669286283E1,-1.629816170E1,6.044202462E1
6.453927667E0,-2.405336359E1,-5.964023375E1,-2.457784129E0,6.435497249E1
6.463995667E0,-2.724136379E1,-3.531540499E1,2.247889084E1,4.994567313E1
6.474063667E0,-1.677341988E1,-1.371513314E1,1.802090463E1,2.818165175E1
6.484130667E0,-1.044237170E1,-1.021483782E1,-1.934060133E-1,1.460901928E1
6.494198667E0,-7.155329010E0,-1.012700446E1,-4.503464684E0,1.319227602E1
6.504266667E0,-3.684269772E0,-7.833734080E0,-2.226981078E0,8.938717923E0
6.514333667E0,-5.416717324E-1,-5.230788730E0,1.348926923E0,5.429011222E0
6.524401667E0,2.297402897E0,-2.628139833E0,5.333779832E0,6.374510676E0
6.534469667E0,4.556747437E0,5.868967295E-2,6.801299983E0,8.186884215E0
6.544536667E0,6.421561334E0,3.077760311E0,6.461211888E0,9.615420820E0
6.554604667E0,8.298981242E0,6.560343243E0,5.504078819E0,1.192501894E1
6.564672667E0,9.448411108E0,9.862624941E0,5.481072364E0,1.471686099E1
6.574739667E0,8.541723722E0,1.204803699E1,5.394724191E0,1.572320860E1
6.584807667E0,5.755802622E0,1.335888334E1,5.164471364E0,1.543569864E1
6.594875667E0,3.295191072E0,1.343185074E1,5.588060038E0,1.491641088E1
6.604942667E0,1.616370089E0,1.281917598E1,6.195086392E0,1.432909699E1
6.615010667E0,1.459394860E0,1.295685920E1,6.071852814E0,1.438323434E1
6.625078667E0,1.639630313E0,1.326271302E1,5.184802133E0,1.433422887E1
6.635145667E0,1.111859751E0,1.323609883E1,3.205194529E0,1.366396049E1
6.645213667E0,8.650177878E-1,1.294946247E1,8.520246899E-1,1.300625927E1
6.655281667E0,4.817099977E-1,1.246742854E1,-1.320974894E0,1.254646538E1
6.665348667E0,-6.046664178E-2,1.170896397E1,-2.923360489E0,1.206853471E1
6.675416667E0,6.886265874E-2,1.108066311E1,-3.870187840E0,1.173729913E1
6.685484667E0,6.352330300E-1,1.076334875E1,-4.343073220E0,1.162391854E1
6.695551667E0,1.223475204E0,1.045959408E1,-4.448961618E0,1.143211527E1
6.705619667E0,1.679303963E0,1.002328304E1,-3.990793680E0,1.091845680E1
6.715687667E0,2.157826644E0,9.852660116E0,-3.384886483E0,1.063901235E1
6.725754667E0,2.544427586E0,9.697691360E0,-2.953440320E0,1.045189644E1
6.735822667E0,2.797008298E0,9.442065125E0,-2.588837188E0,1.018223587E1
6.745890667E0,2.993877910E0,9.147477722E0,-2.263371810E0,9.887492380E0
6.755957667E0,3.111246438E0,8.796878672E0,-2.002534536E0,9.543326115E0
6.766025667E0,3.218820881E0,8.464635785E0,-1.618914066E0,9.199551597E0
6.776093667E0,3.524182947E0,7.721942918E0,8.488600306E-1,8.530464889E0
6.786160667E0,3.923255708E0,6.351368433E0,5.007629160E0,8.989336245E0
6.796228667E0,3.991592117E0,5.924770782E0,4.735745911E0,8.571056282E0
6.806296667E0,1.722191243E0,5.466396437E0,3.408639042E0,6.668302093E0
6.816363667E0,-1.635060714E0,3.161541556E0,6.896846995E0,7.761138256E0
6.826431667E0,-4.144743267E-1,1.539648480E0,3.543575238E0,3.885773009E0
6.836499667E0,1.212256736E0,2.493077338E0,-5.775511247E0,6.406366456E0
6.846567667E0,-1.770190452E0,-8.469902372E-1,-7.620286151E0,7.868908928E0
6.856634667E0,-8.030092353E0,-1.370095949E1,-1.078261767E1,1.919540356E1
6.866702667E0,-1.454335732E1,-3.607717323E1,-1.643660506E1,4.222835133E1
6.876770667E0,-1.855495774E1,-5.557592770E1,-1.969526536E1,6.181321601E1
6.886837667E0,-2.418210524E1,-6.878636427E1,-8.627787135E0,7.342190977E1
6.896905667E0,-2.846075150E1,-5.561375685E1,2.453617286E1,6.711876120E1
6.906973667E0,-1.609793199E1,-2.025901647E1,2.431705196E1,3.550901546E1
6.917040667E0,-7.624133618E0,-8.872678467E0,3.360170302E0,1.217138370E1
6.927108667E0,-5.843085179E0,-7.848351535E0,-4.034000511E0,1.058354507E1
6.937176667E0,-3.641486864E0,-6.015661072E0,-4.271362383E0,8.227584172E0
6.947243667E0,-1.478627522E0,-3.051302830E0,-1.921847638E0,3.897471828E0
6.957311667E0,3.445033282E-2,1.273172736E-1,9.892108941E-1,9.979652833E-1
6.967379667E0,1.906692532E0,3.538729650E0,2.989763224E0,5.009667463E0
6.977446667E0,4.044541579E0,6.814902361E0,4.522855221E0,9.124550955E0
6.987514667E0,5.857466991E0,9.583391742E0,5.390555127E0,1.245830652E1
6.997582667E0,6.617885692E0,1.166100394E1,4.922922885E0,1.428322771E1
7.007649667E0,5.948100588E0,1.301428236E1,3.731288402E0,1.478762859E1
7.017717667E0,4.654144216E0,1.370213595E1,4.502027439E0,1.515512583E1
7.027785667E0,2.891544327E0,1.401226993E1,7.265184159E0,1.604642135E1
7.037852667E0,1.558604276E0,1.407981930E1,9.135936488E0,1.685633099E1
7.047920667E0,1.846961470E0,1.386482537E1,7.509604790E0,1.587573032E1
7.057988667E0,2.656616943E0,1.359747781E1,4.174922501E0,1.446993414E1
7.068055667E0,2.672924243E0,1.328145217E1,2.323134593E-1,1.354974042E1
7.078123667E0,2.508683264E0,1.255254061E1,-3.787013537E0,1.334920368E1
7.088191667E0,2.432308980E0,1.162415479E1,-6.370441466E0,1.347663259E1
7.098258667E0,2.439079763E0,1.107271791E1,-6.311102167E0,1.297629387E1
7.108326667E0,2.340830168E0,1.083662372E1,-4.810485606E0,1.208522533E1
7.118394667E0,2.339144708E0,1.059026298E1,-3.379963712E0,1.135999220E1
7.128461667E0,2.497443161E0,1.043538076E1,-2.563321109E0,1.103199933E1
7.138530208E0,2.878175545E0,1.000846035E1,-1.940372787E0,1.059331013E1
7.148598208E0,3.010410620E0,9.556867018E0,-1.330440366E0,1.010773718E1
7.158665208E0,3.088714193E0,9.164766769E0,-8.257362662E-1,9.706438362E0
7.168733208E0,3.392351623E0,8.592806752E0,5.653262778E-1,9.255483306E0
7.178801208E0,3.738865224E0,7.419541297E0,4.625470347E0,9.509136772E0
7.188868208E0,4.492072262E0,6.330019079E0,5.722223232E0,9.643220078E0
7.198936208E0,4.775586500E0,6.656099585E0,1.019025701E0,8.255198452E0
7.209004208E0,4.593374981E0,7.464887039E0,-2.719652267E0,9.177153190E0
7.219071208E0,4.190651511E0,7.986873828E0,-4.406881546E0,1.003854166E1
7.229139208E0,3.404422323E0,7.412269700E0,-3.321116749E0,8.806909214E0
7.239207208E0,-5.649018431E-1,3.809453981E0,6.461793686E0,7.522355440E0
7.249274208E0,-5.140173259E-1,1.841433220E0,5.241059949E0,5.578870809E0
7.259342208E0,9.017321625E-1,6.423423672E-1,-4.621908224E-1,1.199727038E0
7.269410208E0,-1.641148542E0,-4.143998916E0,-2.066652910E0,4.912957338E0
7.279477208E0,-7.181747900E0,-1.496735647E1,-5.330270918E0,1.743591267E1
7.289545208E0,-1.049297935E1,-3.051122034E1,-9.349665669E0,3.359246092E1
7.299613208E0,-1.231119561E1,-4.861555188E1,-1.373900849E1,5.199805550E1
7.309680208E0,-1.530000691E1,-6.105671472E1,-9.258985294E0,6.362186285E1
7.319748208E0,-2.027776966E1,-5.607052262E1,3.482273614E0,5.972618922E1
7.329816208E0,-1.558630530E1,-2.763430604E1,6.856454430E0,3.245918592E1
7.339883208E0,-9.683470931E0,-1.059421804E1,1.798643296E0,1.446520594E1
7.349951208E0,-8.828344878E0,-6.683759839E0,-8.013807857E-1,1.110200568E1
7.360019208E0,-6.983595117E0,-5.551426647E0,-8.533672106E-1,8.961984946E0
7.370086208E0,-3.914450678E0,-3.152568419E0,-4.402339429E-1,5.045336230E0
7.380154208E0,-1.596960841E0,-1.278538141E0,7.168452501E-1,2.167674057E0
7.390222208E0,-1.342699054E-1,1.331364226E-1,2.574768788E0,2.581702544E0
7.400289208E0,1.329702448E0,1.598019480E0,3.420325288E0,4.002549179E0
7.410357208E0,2.626393855E0,3.710903839E0,2.871372310E0,5.377130361E0
7.420425208E0,3.553029601E0,6.386349986E0,2.298444579E0,7.661092152E0
7.430492208E0,4.400600759E0,8.983432333E0,2.570203282E0,1.032827616E1
7.440560208E0,4.491731954E0,1.128710257E1,2.860614603E0,1.248028270E1
7.450628208E0,3.734627162E0,1.292169638E1,3.412091238E0,1.387660059E1
7.460695208E0,2.986629994E0,1.362912528E1,4.177418092E0,1.456447172E1
7.470763208E0,2.111076400E0,1.416918113E1,6.313153371E0,1.565497502E1
7.480831208E0,1.052362285E0,1.448864727E1,9.057207237E0,1.711903528E1
7.490898208E0,8.370610803E-1,1.463319862E1,9.784849956E0,1.762312293E1
7.500966208E0,1.237973960E0,1.465843287E1,7.497784644E0,1.651117828E1
7.511034208E0,5.494075987E-1,1.426961291E1,3.908243859E0,1.480533928E1
7.521101208E0,-2.915433419E-1,1.297758875E1,7.600760543E-1,1.300309666E1
7.531169208E0,1.034632650E-1,1.099402024E1,-2.417671645E0,1.125718978E1
7.541237208E0,1.340714801E0,9.666123412E0,-4.996995998E0,1.096364114E1
7.551304208E0,2.552882659E0,9.430067223E0,-6.092751932E0,1.151368767E1
7.561372208E0,3.324623909E0,9.566891484E0,-5.901732752E0,1.172215792E1
7.571440208E0,3.682556830E0,9.406212337E0,-4.817205226E0,1.119122520E1
7.581507208E0,4.014725749E0,9.292050714E0,-3.676660790E0,1.076931121E1
7.591575208E0,4.161290887E0,9.052133024E0,-2.998135267E0,1.040414673E1
7.601643208E0,4.293021639E0,8.561629983E0,-2.386655089E0,9.870545338E0
7.611710208E0,4.500355720E0,8.129557584E0,-1.739197578E0,9.453449970E0
7.621778208E0,4.545406470E0,7.729088216E0,-1.289654283E0,9.058848315E0
7.631846208E0,4.827618825E0,7.132707303E0,-4.068909265E-2,8.612959572E0
7.641913208E0,5.568128049E0,6.461989567E0,2.468187495E0,8.879938550E0
7.651981208E0,6.380287592E0,5.794369102E0,4.411154691E0,9.681997147E0
7.662049208E0,6.400501417E0,4.365485598E0,6.397353276E0,1.004738831E1
7.672117208E0,7.797876030E-1,1.216427847E0,1.357961105E1,1.365626603E1
7.682184208E0,-3.913435309E0,-5.822189569E-1,1.088877153E1,1.158530536E1
7.692252208E0,2.451442239E-1,2.942517722E0,-6.431058381E0,7.076511721E0
7.702320208E0,-2.214554868E0,-2.149687904E-1,-9.849863977E0,1.009803373E1
7.712387208E0,-7.533366705E0,-1.050087426E1,-1.047480269E1,1.663554825E1
7.722455208E0,-1.299612910E1,-2.841361359E1,-1.245794435E1,3.363678323E1
7.732523208E0,-1.769359972E1,-4.714480874E1,-1.529448480E1,5.262715770E1
7.742590208E0,-2.575716270E1,-6.131554523E1,-1.028093007E1,6.729580255E1
7.752658208E0,-3.366811336E1,-5.752102036E1,1.566469658E1,6.846599418E1
7.762726208E0,-1.998394006E1,-2.407423581E1,1.928905695E1,3.675587583E1
7.772793208E0,-8.726644256E0,-9.589289829E0,-1.121058006E0,1.301405281E1
7.782861208E0,-6.257115995E0,-9.208493418E0,-8.329274497E0,1.390412404E1
7.792929208E0,-4.190458845E0,-7.473792349E0,-6.822529469E0,1.095282730E1
7.802996208E0,-1.964764739E0,-4.349538487E0,-4.031389729E0,6.247470582E0
7.813064208E0,1.418342729E0,-8.937878430E-1,-3.003048098E-1,1.703154656E0
7.823132208E0,5.810402752E0,2.714959876E0,3.753831757E0,7.431220635E0
7.833199208E0,8.960619421E0,5.626136522E0,6.361981130E0,1.234588662E1
7.843267208E0,9.661463181E0,7.363940123E0,6.035754443E0,1.356472693E1
7.853335208E0,8.892936730E0,9.147470121E0,5.668683786E0,1.396046236E1
7.863402208E0,7.441745514E0,1.069839086E1,5.240026746E0,1.404610350E1
7.873470208E0,5.343030127E0,1.198031805E1,4.721496831E0,1.394161124E1
7.883538208E0,2.673990775E0,1.260438085E1,4.782940543E0,1.374398645E1
7.893605208E0,9.007588935E-1,1.276562367E1,6.154854040E0,1.420051909E1
7.903673208E0,8.752726346E-2,1.293271604E1,8.386850860E0,1.541434633E1
7.913741208E0,-4.954725891E-2,1.314244982E1,9.548079822E0,1.624476133E1
7.923808208E0,2.081234550E-1,1.258040961E1,7.771047835E0,1.478848220E1
7.933876208E0,6.592516378E-1,1.143276607E1,4.084378366E0,1.215832634E1
7.943944208E0,1.523876785E0,1.036948849E1,-2.143425536E-1,1.048305465E1
7.954011208E0,2.530422335E0,9.799116578E0,-3.584863597E0,1.073671132E1
7.964079208E0,3.028673813E0,9.795707651E0,-5.451329917E0,1.161231033E1
7.974147208E0,3.267276172E0,9.980362136E0,-5.788027797E0,1.199099611E1
7.984214208E0,3.248381479E0,1.012458137E1,-5.118018159E0,1.180056101E1
7.994282208E0,2.848460872E0,1.004304429E1,-4.004565042E0,1.118092166E1
8.004350208E0,2.548639627E0,9.807357643E0,-3.083626238E0,1.059191100E1
8.014417208E0,2.741354792E0,9.447387845E0,-2.265209005E0,1.009452005E1
8.024485208E0,3.485200145E0,8.819927811E0,-7.089351368E-1,9.510012391E0
8.034553208E0,4.397182769E0,7.916016684E0,9.736304764E-1,9.107496514E0
8.044620208E0,4.412218884E0,7.381868856E0,5.883935436E-1,8.620085281E0
8.054688208E0,3.988199563E0,7.556221132E0,-9.415736282E-1,8.595857982E0
8.064756208E0,3.811362804E0,7.658826903E0,-1.635254549E0,8.709659775E0
8.074823208E0,3.562895316E0,7.343366110E0,-1.697772979E0,8.336766876E0
8.084891208E0,2.512946469E0,6.588745508E0,-7.868142021E-1,7.095459387E0
8.094959208E0,-2.756656078E0,3.413671741E0,1.015113943E1,1.105883986E1
8.105026208E0,-2.692074751E0,-4.764790785E-1,1.138125911E1,1.170501421E1
8.115094208E0,2.355465456E0,7.250997645E-1,-4.974441533E0,5.551491309E0
8.125162208E0,7.010583526E-1,-2.826013119E0,-7.870061662E0,8.391406528E0
8.135229042E0,-2.612793231E0,-1.263917295E1,-9.016711761E0,1.574409325E1
8.145297042E0,-4.773807777E0,-2.673457626E1,-1.283828819E1,3.003911537E1
8.155365042E0,-5.188788764E0,-4.220524936E1,-1.529968882E1,4.519167047E1
8.165432042E0,-7.220190420E0,-5.552197895E1,-1.304762787E1,5.748966767E1
8.175500042E0,-1.883298816E1,-5.815750148E1,2.693672503E0,6.119013232E1
8.185568042E0,-2.380396347E1,-3.208452130E1,1.831515290E1,4.394872022E1
8.195636042E0,-1.573588877E1,-1.235818735E1,9.090270903E0,2.197671529E1
8.205703042E0,-1.263650662E1,-8.344610574E0,-2.405786594E0,1.533302431E1
8.215771042E0,-9.574792827E0,-7.726801955E0,-3.782179059E0,1.287186873E1
8.225838042E0,-5.383215702E0,-5.029186674E0,-1.625640557E0,7.544165767E0
8.235906042E0,-2.258734675E0,-2.650066307E0,8.153521228E-1,3.576245636E0
8.245974042E0,-3.050121108E-1,-6.818619436E-1,4.224458942E0,4.289990845E0
8.256042042E0,8.675826690E-1,1.435880867E0,6.569987640E0,6.780795761E0
8.266109042E0,2.116162893E0,3.396779135E0,6.677880464E0,7.785264374E0
8.276177042E0,3.700212205E0,5.717303385E0,5.781481254E0,8.933345053E0
8.286245042E0,5.380320160E0,8.341284093E0,4.769753902E0,1.101251187E1
8.296312042E0,5.838173518E0,1.069754302E1,4.847938192E0,1.311579968E1
8.306380042E0,5.132700518E0,1.219004715E1,4.558302212E0,1.398999583E1
8.316448042E0,4.234886574E0,1.326052265E1,4.927074409E0,1.476657670E1
8.326515042E0,3.538946874E0,1.430729002E1,7.074745023E0,1.634853847E1
8.336583042E0,2.480690888E0,1.473229256E1,8.615679306E0,1.724599087E1
8.346651042E0,1.504975660E0,1.449071016E1,7.329412315E0,1.630846154E1
8.356718042E0,7.822636065E-1,1.374240689E1,4.775414007E0,1.456949767E1
8.366786042E0,3.610638124E-1,1.249081974E1,1.738797044E0,1.261643214E1
8.376854042E0,4.277820048E-1,1.107744831E1,-1.208239406E0,1.115135422E1
8.386921042E0,5.672609022E-1,1.019809608E1,-3.270303860E0,1.072463686E1
8.396989042E0,1.200697083E0,9.891524220E0,-3.930371477E0,1.071129053E1
8.407057042E0,1.761032543E0,9.806319178E0,-3.654936045E0,1.061243087E1
8.417124042E0,2.050535791E0,9.856394148E0,-3.161931565E0,1.055229898E1
8.427192042E0,2.244895485E0,9.866638470E0,-2.785283754E0,1.049513773E1
8.437260042E0,2.499153472E0,9.833016980E0,-2.617097951E0,1.047774750E1
8.447327042E0,2.767764619E0,9.700214433E0,-2.395230031E0,1.036782561E1
8.457395042E0,3.038409135E0,9.425773612E0,-1.889209650E0,1.008197656E1
8.467463042E0,3.503348148E0,8.951918764E0,-1.004306066E0,9.665346785E0
8.477530042E0,4.392464359E0,8.017211521E0,7.165083774E-1,9.169667822E0
8.487598042E0,5.002655518E0,7.022638730E0,1.889235962E0,8.826847087E0
8.497666042E0,5.515277406E0,6.762611881E0,5.965667816E-1,8.746833498E0
8.507733042E0,5.001413569E0,7.051152093E0,-8.108166569E-1,8.682759192E0
8.517801042E0,4.025049300E0,6.633798890E0,-2.835332412E-1,7.764579878E0
8.527869042E0,1.644885205E0,5.424466054E0,2.828491754E0,6.334891073E0
8.537936042E0,1.129301995E-1,5.206122835E0,3.419565734E0,6.229759066E0
8.548004042E0,2.592341132E0,5.947651522E0,-4.230239500E0,7.745302925E0
8.558072042E0,9.677980980E-1,3.324661331E0,-5.573170688E0,6.561267991E0
8.568139042E0,-5.531992257E0,-6.703273752E0,-7.181239192E0,1.127417463E1
8.578207042E0,-1.327844670E1,-2.417281986E1,-9.407192915E0,2.913996646E1
8.588275042E0,-1.928468557E1,-4.325009534E1,-1.410500326E1,4.941073731E1
8.598342042E0,-2.609020841E1,-5.933550493E1,-1.852909316E1,6.741460090E1
8.608410042E0,-3.233485464E1,-6.208522592E1,-6.911204249E0,7.034118883E1
8.618478042E0,-2.730416757E1,-3.449257077E1,2.944198913E1,5.293473084E1
8.628545042E0,-1.380119363E1,-1.413180573E1,2.079429632E1,2.868071893E1
8.638613042E0,-7.080415068E0,-1.276415368E1,-3.725278634E0,1.506431537E1
8.648681042E0,-4.616720282E0,-1.109480986E1,-7.242344935E0,1.403069750E1
8.658748042E0,-2.319418541E0,-7.991220648E0,-4.178457727E0,9.311220048E0
8.668816042E0,1.474118442E0,-4.685369225E0,3.444852018E-1,4.923858244E0
8.678884042E0,5.630644725E0,-1.519415359E0,7.508262269E0,9.507196504E0
8.688952042E0,8.420655953E0,1.222707757E0,1.128597055E1,1.413419938E1
8.699019042E0,8.902829050E0,3.432158298E0,9.304567848E0,1.332722996E1
8.709087042E0,8.900912333E0,5.073756491E0,6.771840541E0,1.228116727E1
8.719154042E0,8.701763184E0,6.937848841E0,5.605607532E0,1.246102985E1
8.729222042E0,7.420282724E0,8.657105659E0,5.249793935E0,1.255254598E1
8.739290042E0,5.624265413E0,9.950208045E0,4.790408607E0,1.239302288E1
8.749358042E0,3.231647041E0,1.134645882E1,4.621164458E0,1.267047084E1
8.759425042E0,1.115627404E0,1.250312696E1,5.226387531E0,1.359735029E1
8.769493042E0,-9.060319126E-2,1.283108910E1,5.339003735E0,1.389784218E1
8.779561042E0,-8.761257434E-1,1.302588675E1,3.588479515E0,1.353951650E1
8.789628042E0,-5.299293539E-1,1.280114551E1,-1.298982529E-1,1.281276804E1
8.799696042E0,-1.472428304E-1,1.246287940E1,-3.973145614E0,1.308170209E1
8.809764042E0,-4.770684779E-2,1.209942934E1,-6.378039338E0,1.367764059E1
8.819831042E0,3.317125440E-3,1.139191742E1,-7.157216492E0,1.345368133E1
8.829899042E0,3.934582642E-1,1.130705444E1,-6.204372355E0,1.290343078E1
8.839967042E0,1.009822037E0,1.144535512E1,-4.893140092E0,1.248834314E1
8.850034042E0,1.362646830E0,1.137951313E1,-3.810059752E0,1.207752793E1
8.860102042E0,1.345346673E0,1.122264286E1,-2.874287732E0,1.166272697E1
8.870170042E0,1.364147810E0,1.094357163E1,-2.049276593E0,1.121704925E1
8.880237042E0,1.612657692E0,1.066927290E1,-1.156001551E0,1.085220662E1
8.890305042E0,1.532754613E0,1.037224604E1,-1.617456794E-2,1.048489801E1
8.900373042E0,2.950622840E0,9.895345960E0,9.453339726E-1,1.036907436E1
8.910440042E0,3.775706776E0,9.528371197E0,3.007953181E-1,1.025359923E1
8.920508042E0,3.409593308E0,9.215108373E0,-8.450385097E-1,9.861928763E0
8.930576042E0,3.130274740E0,8.972971079E0,-1.312539700E0,9.593518145E0
8.940643042E0,2.882391388E0,8.581097118E0,-9.689994085E-1,9.103975380E0
8.950711042E0,2.943006549E0,6.531494835E0,2.788317289E0,7.687419959E0
8.960779042E0,2.394039246E0,2.877416577E0,8.463186845E0,9.253998144E0
8.970846042E0,3.462228189E0,5.956356272E0,-1.189868624E0,6.991494219E0
8.980914042E0,1.974942403E0,5.537087520E0,-3.791787204E0,6.995526135E0
8.990982042E0,-2.240909146E0,-1.057629164E0,-3.934182107E0,4.649520632E0
9.001049042E0,-7.508721861E0,-1.614671297E1,-5.469714147E0,1.862833907E1
9.011117042E0,-1.044624606E1,-3.474779471E1,-9.242754008E0,3.744278029E1
9.021185042E0,-9.517145712E0,-4.838607907E1,-1.030982116E1,5.037937199E1
9.031252042E0,-1.158594908E1,-5.732826339E1,-7.675128940E0,5.898874133E1
9.041320042E0,-1.871683205E1,-5.289786551E1,1.125650994E0,5.612282127E1
9.051388042E0,-1.690978514E1,-2.485446955E1,8.643257114E0,3.127924845E1
9.061455042E0,-1.219387240E1,-1.179915026E1,3.658677678E0,1.735789138E1
9.071523042E0,-1.086022893E1,-1.094555969E1,-3.823976126E0,1.588624067E1
9.081591042E0,-9.130062375E0,-8.502898210E0,-5.464563335E0,1.362052750E1
9.091658042E0,-6.951930106E0,-4.858810505E0,-3.180935601E0,9.058461404E0
9.101726042E0,-5.326766097E0,-1.741790818E0,-8.092008519E-1,5.662426893E0
9.111794042E0,-4.344905153E0,1.098589495E0,2.259651811E0,5.019076207E0
9.121861042E0,-3.456659301E0,3.899862460E0,5.307586645E0,7.438272429E0
9.131929042E0,-2.584702915E0,6.028409171E0,6.414316049E0,9.174195151E0
9.141997042E0,-1.411049204E0,7.946692931E0,5.795916860E0,9.936480295E0
9.152065042E0,4.589286608E-1,9.723713808E0,4.343743311E0,1.065970599E1
9.162132042E0,2.559939956E0,1.115695290E1,2.990457873E0,1.183104936E1
9.172200042E0,4.041991608E0,1.240974225E1,3.034264044E0,1.339948346E1
9.182268042E0,5.371996649E0,1.385705676E1,6.821885691E0,1.635281304E1
9.192335042E0,6.201153463E0,1.551020730E1,1.288871341E1,2.109833567E1
9.202403042E0,5.623197126E0,1.571986974E1,1.266041238E1,2.095282062E1
9.212471042E0,4.554897378E0,1.497053268E1,8.408855102E0,1.776436835E1
9.222538042E0,2.865159936E0,1.310958847E1,3.180258493E0,1.379073948E1
9.232606042E0,1.738354117E0,9.785439355E0,-1.467107338E0,1.004634771E1
9.242674042E0,2.911831242E0,8.670611558E0,-3.695677689E0,9.864902410E0
9.252741042E0,4.036679412E0,8.821441655E0,-3.800381441E0,1.041899768E1
9.262809042E0,3.679522125E0,9.213096930E0,-2.994216464E0,1.036269127E1
9.272877042E0,2.964199782E0,9.236448956E0,-2.231098688E0,9.953706396E0
9.282944042E0,2.621279003E0,9.206759133E0,-1.995448880E0,9.778411608E0
9.293012042E0,2.541598995E0,9.064150806E0,-1.926947579E0,9.608937624E0
9.303080042E0,2.567278797E0,8.915368404E0,-1.740717269E0,9.439534459E0
9.313147042E0,2.583750111E0,8.726946557E0,-1.607541670E0,9.242269801E0
9.323215042E0,2.590785188E0,8.566237004E0,-1.597399675E0,9.090889397E0
9.333283042E0,2.425366288E0,8.321277260E0,-1.815300844E0,8.855584341E0
9.343350042E0,1.934543990E0,8.195914711E0,-2.155594177E0,8.692644284E0
9.353418042E0,1.382015732E0,8.185543504E0,-2.282687356E0,8.609515173E0
9.363486042E0,1.193556463E0,8.040068287E0,-2.650030639E0,8.549265318E0
9.373553042E0,1.207416118E0,7.860107946E0,-2.836630493E0,8.443081379E0
9.383621042E0,8.120858681E-1,7.516063625E0,-2.488247538E0,7.958773252E0
9.393689042E0,-1.440373868E-1,5.972943653E0,-1.141167457E-1,5.975769848E0
9.403756042E0,-7.574106011E-1,3.580037305E0,2.161803481E0,4.250144964E0
9.413824042E0,4.702485779E-1,2.807528316E0,-2.749421611E0,3.957608895E0
9.423892042E0,-2.280550929E0,-2.083416147E0,-3.041324556E0,4.334880672E0
9.433959042E0,-6.948455690E0,-1.385435534E1,-2.803783759E0,1.575072703E1
9.444027042E0,-1.039365737E1,-2.931929350E1,-5.400173796E0,3.157231321E1
9.454095042E0,-1.432664314E1,-4.768101245E1,-8.442515184E0,5.049760108E1
9.464162042E0,-1.784877079E1,-6.213476821E1,-5.477008549E0,6.487916200E1
9.474230042E0,-1.771679095E1,-6.147523971E1,6.722069042E0,6.432943331E1
9.484298042E0,-1.090117347E1,-3.347028334E1,9.522953167E0,3.646617730E1
9.494365042E0,-4.513618082E0,-1.555749724E1,1.425669290E0,1.626164203E1
9.504433042E0,-4.522713426E0,-1.064374980E1,-4.241335176E0,1.231800595E1
9.514501042E0,-4.460670667E0,-7.324469079E0,-4.344092975E0,9.613353934E0
9.524568042E0,-2.805038572E0,-3.838539201E0,-1.809158928E0,5.086814388E0
9.534636042E0,-1.546531822E0,-6.039682603E-1,4.024428034E-1,1.708361363E0
9.544704042E0,3.647528207E-1,2.373083117E0,2.074769869E0,3.173206282E0
9.554772042E0,8.447326273E-1,4.877241513E0,2.860856677E0,5.717128555E0
9.564839042E0,8.853900719E-1,7.087730520E0,2.959430208E0,7.731627685E0
9.574907042E0,1.232565870E0,9.531201834E0,3.014202247E0,1.007216174E1
9.584975042E0,5.527966449E-1,1.198373633E1,2.790815220E0,1.231682468E1
9.595042042E0,-4.580378374E-1,1.378637562E1,3.063725824E0,1.413012269E1
9.605110042E0,-9.708070752E-1,1.481547738E1,4.522343005E0,1.552070948E1
9.615178042E0,-8.036275783E-1,1.553643206E1,6.246928976E0,1.676456561E1
9.625245042E0,-5.569443673E-2,1.541638053E1,6.802108068E0,1.685041735E1
9.635313042E0,2.792805612E-1,1.477727519E1,4.997622235E0,1.560198986E1
9.645381042E0,2.948101813E-1,1.415344393E1,2.363514733E0,1.435245938E1
9.655448042E0,6.124826834E-1,1.372900741E1,2.769802483E-1,1.374545371E1
9.665516042E0,6.996044424E-1,1.330253957E1,-1.231984949E0,1.337777232E1
9.675584042E0,3.124529850E-1,1.275194002E1,-1.730962944E0,1.287267780E1
9.685651042E0,6.292925513E-1,1.192224350E1,-1.887244985E0,1.208708372E1
9.695719042E0,1.773341517E0,1.093429093E1,-1.589635742E0,1.119063895E1
9.705787042E0,2.590054579E0,1.029364075E1,-1.033228734E0,1.066466053E1
9.715854042E0,2.946801684E0,9.920996525E0,-6.589332569E-1,1.037034258E1
9.725922042E0,2.835903392E0,9.609104288E0,-7.302611017E-1,1.004542257E1
9.735990042E0,2.636714775E0,9.408705590E0,-9.445112693E-1,9.816725891E0
9.746057042E0,2.620225042E0,9.143330292E0,-1.085761288E0,9.573136669E0
9.756125042E0,2.498505600E0,8.691508337E0,-1.177073747E0,9.119777959E0
9.766193042E0,2.439315698E0,8.155029809E0,-1.146154840E0,8.588855755E0
9.776260042E0,2.584795008E0,7.604484050E0,-8.289223409E-1,8.074432188E0
9.786328042E0,2.568833279E0,7.042517509E0,8.985299349E-2,7.496934763E0
9.796396042E0,1.893952326E0,6.439021704E0,2.824112774E0,7.281735293E0
9.806463042E0,3.013853753E-1,5.153614254E0,9.038864522E0,1.040920962E1
9.816531042E0,1.974049240E0,3.723836710E0,9.825477580E0,1.069129739E1
9.826599042E0,2.294271713E0,2.501742327E0,4.796920066E0,5.876464880E0
9.836666042E0,1.302095696E0,1.084408827E0,1.586866500E0,2.321538498E0
9.846734042E0,3.235177882E0,1.776727931E0,-6.712365003E0,7.660220754E0
9.856802042E0,1.169265667E0,-8.927037692E-1,-7.841931292E0,7.978720988E0
9.866869042E0,-4.327933025E0,-9.352865265E0,-7.675966846E0,1.285019688E1
9.876937042E0,-1.074406229E1,-2.501205669E1,-7.346877363E0,2.819600081E1
9.887005042E0,-1.783572214E1,-4.395697226E1,-1.135757555E1,4.877830375E1
9.897072042E0,-2.327299652E1,-5.388218579E1,-1.326170028E1,6.017304220E1
9.907140042E0,-2.352434260E1,-5.263282760E1,-6.462707605E0,5.801185935E1
9.917208042E0,-1.691108907E1,-3.413865518E1,1.199519688E1,3.994142535E1
9.927275042E0,-1.110502027E1,-1.742701814E1,1.548242367E1,2.582107432E1
9.937343042E0,-8.212394503E0,-1.267370895E1,1.775298872E0,1.520585440E1
9.947411042E0,-5.473944023E0,-1.036941599E1,-3.437583929E0,1.221907666E1
9.957479042E0,-2.999036031E0,-7.657669154E0,-2.661873590E0,8.644054893E0
9.967546042E0,-1.125004584E0,-4.601803157E0,-5.507621062E-1,4.769231228E0
9.977614042E0,7.713652736E-1,-1.120079767E0,2.852267118E0,3.159906767E0
9.987682042E0,2.773748074E0,1.606944085E0,6.387498379E0,7.146753334E0
9.997749042E0,4.004466517E0,3.877741274E0,6.849062380E0,8.830757892E0
1.000781704E1,4.409904264E0,5.956298969E0,5.601299304E0,9.289742026E0
1.001788504E1,4.718438445E0,7.914287662E0,4.174413793E0,1.011559890E1
1.002795204E1,4.229926674E0,9.968615080E0,2.953187721E0,1.122438791E1
1.003802004E1,2.991315660E0,1.198752299E1,3.204564199E0,1.276392998E1
1.004808804E1,1.847292130E0,1.375329909E1,5.256527588E0,1.483902983E1
1.005815504E1,1.043136402E0,1.484215121E1,6.709163067E0,1.632147221E1
1.006822304E1,4.473488349E-1,1.479745744E1,5.460464437E0,1.577914888E1
1.007829104E1,-2.257805845E-1,1.385007518E1,1.826581292E0,1.397182732E1
1.008835804E1,-5.917566428E-1,1.309856881E1,-2.013174130E0,1.326557767E1
1.009842604E1,-1.666754669E-1,1.252665615E1,-4.737991827E0,1.339378444E1
1.010849404E1,6.878518313E-1,1.223782007E1,-5.234366641E0,1.332801465E1
1.011856104E1,1.361240867E0,1.193669080E1,-3.944269724E0,1.264495266E1
1.012862904E1,1.873147348E0,1.164827572E1,-2.589110253E0,1.207867957E1
1.013869679E1,2.047852504E0,1.152068948E1,-1.807051592E0,1.183999246E1
1.014876379E1,2.084592606E0,1.132916276E1,-1.201634392E0,1.158185565E1
1.015883179E1,2.101634024E0,1.129483025E1,-1.898976473E-1,1.149026183E1
1.016889979E1,2.545957802E0,1.106944113E1,5.151630878E-2,1.135856866E1
1.017896679E1,2.699400727E0,1.042579718E1,-3.991063090E-1,1.077697995E1
1.018903479E1,2.888042429E0,9.777071990E0,-6.008014083E-1,1.021238895E1
1.019910279E1,3.349361432E0,9.227466463E0,-5.666126653E-1,9.832873905E0
1.020916979E1,3.571591295E0,8.768066517E0,-5.063087223E-1,9.481118253E0
1.021923779E1,3.572469254E0,8.353039920E0,-3.400436568E-1,9.091283857E0
1.022930579E1,3.382582095E0,8.145783023E0,-2.071517209E-1,8.822616081E0
1.023937279E1,2.781956103E0,7.887736040E0,8.853609089E-1,8.410679137E0
1.024944079E1,1.209234602E0,6.358204998E0,8.123771179E0,1.038675490E1
1.025950879E1,-6.604199114E-1,3.288599213E0,1.602990665E1,1.637708602E1
1.026957579E1,9.758187237E-1,2.558782500E0,4.088703552E0,4.921085937E0
1.027964379E1,2.494915702E0,2.366062950E0,-2.045008711E0,4.000614812E0
1.028971179E1,-6.477358389E-1,-1.452931348E0,-1.328914243E-1,1.596318060E0
1.029977879E1,-4.379660126E0,-3.020192134E0,-6.497085140E0,8.397326876E0
1.030984679E1,-9.056307936E0,-8.268856972E0,-1.155636802E1,1.685052969E1
1.031991479E1,-1.631540748E1,-2.621837470E1,-1.379361213E1,3.382099095E1
1.032998279E1,-2.170184266E1,-4.450231165E1,-1.730742387E1,5.244971533E1
1.034004979E1,-2.673024698E1,-5.397205984E1,-1.765244234E1,6.276223440E1
1.035011779E1,-2.757719044E1,-5.550919460E1,-1.454321582E1,6.366535356E1
1.036018579E1,-1.785048636E1,-3.901818470E1,2.882330138E-2,4.290756847E1
1.037025279E1,-7.871229935E0,-1.527299160E1,2.134099929E1,2.739815293E1
1.038032079E1,-3.262553084E0,-8.504920177E0,1.839190930E1,2.052413817E1
1.039038879E1,-1.070438075E0,-8.934172465E0,3.218981094E0,9.556522097E0
1.040045579E1,-2.140373290E-2,-7.643696063E0,-2.282934254E0,7.977364003E0
1.041052379E1,1.010380154E0,-5.162003839E0,-2.771128814E0,5.945275990E0
1.042059179E1,2.693812251E0,-1.502968311E0,-8.625578642E-2,3.085932314E0
1.043065879E1,4.811324097E0,2.936589230E0,6.029328353E0,8.253798899E0
1.044072679E1,6.810822759E0,6.843889933E0,1.089108352E1,1.455478740E1
1.045079479E1,7.861283237E0,9.225959635E0,1.077452278E1,1.621753515E1
1.046086179E1,8.092630663E0,1.063968716E1,8.920247905E0,1.607060785E1
1.047092979E1,7.918567239E0,1.203099704E1,8.485091100E0,1.671661951E1
1.048099779E1,7.232366077E0,1.293568409E1,8.729631014E0,1.720015987E1
1.049106479E1,6.162657734E0,1.340555465E1,8.191008897E0,1.687542214E1
1.050113279E1,4.661597077E0,1.347884716E1,5.834692086E0,1.540952432E1
1.051120079E1,3.567164660E0,1.324194137E1,2.338191612E0,1.391189473E1
1.052126779E1,2.521828389E0,1.306491107E1,-6.235488313E-1,1.332067313E1
1.053133579E1,1.912443999E0,1.264565401E1,-3.608271756E0,1.328870319E1
1.054140379E1,1.820982583E0,1.191612264E1,-6.028973427E0,1.347807393E1
1.055147079E1,1.414333585E0,1.121828084E1,-6.655062289E0,1.312021412E1
1.056153879E1,6.815461940E-1,1.103427598E1,-5.944205757E0,1.255202508E1
1.057160679E1,5.629358630E-1,1.067045637E1,-4.486334682E0,1.158890568E1
1.058167379E1,6.811678791E-1,1.032713243E1,-3.438420081E0,1.090579601E1
1.059174179E1,8.625192726E-1,1.035504236E1,-2.922271153E0,1.079400345E1
1.060180979E1,1.158645077E0,1.019899655E1,-2.533044226E0,1.057252581E1
1.061187679E1,1.645749131E0,9.962771373E0,-2.102502043E0,1.031435012E1
1.062194479E1,2.146807273E0,9.905143554E0,-1.702389355E0,1.027709978E1
1.063201279E1,2.111534530E0,9.668714313E0,-1.325647404E0,9.984986508E0
1.064208079E1,1.227232625E0,9.339799662E0,-3.648433795E-1,9.427145290E0
1.065214779E1,9.445445985E-2,9.123466131E0,7.801260106E-1,9.157245901E0
1.066221579E1,-1.562642071E-1,8.938271948E0,1.123163588E0,9.009917888E0
1.067228379E1,6.190616781E-1,8.688711029E0,1.844923715E-1,8.712690408E0
1.068235079E1,1.445937786E0,8.358443917E0,-4.324778306E-1,8.493606882E0
1.069241879E1,5.797397375E-1,7.379718250E0,3.589052542E0,8.226641950E0
1.070248679E1,-2.330537606E0,4.774978974E0,1.168266437E1,1.283419170E1
1.071255379E1,-4.870718944E-1,3.281219442E0,5.769176373E0,6.654850568E0
1.072262179E1,3.110790648E0,1.873737917E0,-4.980147246E0,6.163584901E0
1.073268979E1,1.596775192E-1,-2.473257031E0,-4.651108634E0,5.270228532E0
1.074275679E1,-4.789620987E0,-1.092905650E1,-6.387438737E0,1.353455278E1
1.075282479E1,-9.951888535E0,-2.725906682E1,-1.047138207E1,3.085039144E1
1.076289279E1,-1.634264732E1,-4.995016716E1,-1.508735069E1,5.467841870E1
1.077295979E1,-2.117263456E1,-6.329337762E1,-1.485915375E1,6.837489711E1
1.078302779E1,-2.417668604E1,-6.349587839E1,3.265370564E0,6.802133022E1
1.079309579E1,-1.951807718E1,-3.362643441E1,2.716924891E1,4.743269457E1
1.080316279E1,-8.244861753E0,-1.424309812E1,1.316301331E1,2.107388215E1
1.081323079E1,-5.110713233E0,-1.126037144E1,-3.798525535E0,1.293615673E1
1.082329879E1,-4.828157354E0,-9.371221429E0,-7.035741171E0,1.267408965E1
1.083336579E1,-2.018009777E0,-5.616379273E0,-5.066100731E0,7.828247327E0
1.084343379E1,-1.660761273E-1,-2.384439579E0,-1.176473823E0,2.664061569E0
1.085350179E1,1.107548891E0,9.427623671E-1,3.018305823E0,3.350467947E0
1.086356879E1,2.380102699E0,3.769043289E0,5.347834200E0,6.962033237E0
1.087363679E1,3.366901325E0,6.025148764E0,4.848929880E0,8.435079320E0
1.088370479E1,4.115611854E0,8.053423328E0,3.311344882E0,9.631245670E0
1.089377279E1,4.412797174E0,1.001685695E1,1.269676101E0,1.101917780E1
1.090383979E1,3.432430778E0,1.190795408E1,3.370732713E-1,1.239736140E1
1.091390779E1,1.729235969E0,1.311100233E1,5.808180006E-1,1.323729537E1
1.092397579E1,7.273296002E-1,1.406933291E1,1.824344147E0,1.420575124E1
1.093404279E1,-2.371560502E-1,1.502871715E1,3.943355219E0,1.553926101E1
1.094411079E1,-8.975704068E-1,1.522781485E1,4.205570097E0,1.582336239E1
1.095417879E1,-1.335918915E0,1.483001707E1,2.375975735E0,1.507843979E1
1.096424579E1,-1.700900947E0,1.453513731E1,8.907467061E-1,1.466140206E1
1.097431379E1,-1.545864947E0,1.427446142E1,-8.111374497E-2,1.435815192E1
1.098438179E1,-1.497867200E0,1.377202070E1,-4.933962429E-1,1.386202006E1
1.099444879E1,-1.138804305E0,1.285848330E1,-3.969026031E-1,1.291491385E1
1.100451679E1,2.534376222E-1,1.173421108E1,-6.760830673E-1,1.175640373E1
1.101458479E1,2.124157206E0,1.060700239E1,-1.040730711E0,1.086755096E1
1.102465179E1,3.767850749E0,9.870254388E0,-7.738655430E-1,1.059327564E1
1.103471979E1,4.283599728E0,9.745357862E0,-5.586920270E-1,1.065989509E1
1.104478779E1,4.119608133E0,9.817161670E0,-7.983905927E-1,1.067638806E1
1.105485479E1,3.988514435E0,9.709011569E0,-1.208116615E0,1.056563764E1
1.106492279E1,3.952285964E0,9.494340402E0,-1.426162210E0,1.038253354E1
1.107499079E1,3.941879967E0,9.118577274E0,-1.684201591E0,1.007588230E1
1.108505779E1,3.991694151E0,8.633698086E0,-1.834709507E0,9.687131867E0
1.109512579E1,4.011856228E0,8.163189014E0,-1.907245971E0,9.293558655E0
1.110519379E1,4.084091853E0,7.653470269E0,-2.001683182E0,8.902929236E0
1.111526079E1,4.088354765E0,7.200704573E0,-1.851347613E0,8.484826399E0
1.112532879E1,4.115269499E0,6.339591556E0,-7.012552576E-1,7.590627318E0
1.113539679E1,3.047989798E0,3.156134051E0,4.759462802E0,6.473322958E0
1.114546379E1,-6.265987390E-1,-9.923830086E-1,1.307149620E1,1.312407951E1
1.115553179E1,7.064757979E-1,7.123844093E-1,-5.876524821E-2,1.005013907E0
1.116559979E1,-1.297954113E0,-3.653223395E-1,-8.184110352E0,8.294444378E0
1.117566679E1,-7.367739644E0,-1.022820690E1,-9.466490114E0,1.576433439E1
1.118573479E1,-1.332429355E1,-2.721283172E1,-1.242883574E1,3.274982392E1
1.119580279E1,-2.194532540E1,-4.913927061E1,-1.906863446E1,5.709534169E1
1.120587079E1,-3.030883651E1,-6.284631354E1,-1.916799854E1,7.235811540E1
1.121593779E1,-3.019197640E1,-5.712019607E1,-2.903487557E0,6.467381601E1
1.122600579E1,-2.001775100E1,-2.145601636E1,3.486599735E1,4.557092016E1
1.123607379E1,-1.233457512E1,-5.783332483E0,3.049981359E1,3.340400136E1
1.124614079E1,-5.612358727E0,-9.642380208E0,-8.732232769E-2,1.115713636E1
1.125620879E1,-2.146140691E0,-1.029255551E1,-1.030029137E1,1.471864875E1
1.126627679E1,-3.992478848E-3,-7.958258724E0,-9.680268996E0,1.253162023E1
1.127634379E1,2.005452881E0,-4.330369560E0,-4.561867844E0,6.601861859E0
1.128641179E1,4.994058942E0,-5.222499132E-2,3.882474010E0,6.325895715E0
1.129647979E1,7.177336176E0,3.231353218E0,9.604272734E0,1.241764281E1
1.130654679E1,7.260549656E0,5.477945858E0,8.240152406E0,1.227288001E1
1.131661479E1,6.583352036E0,7.372893965E0,5.215846170E0,1.117609685E1
1.132668279E1,5.524000867E0,9.333750717E0,3.425869617E0,1.137409648E1
1.133674979E1,4.525544063E0,1.085857884E1,2.245495702E0,1.197629052E1
1.134681779E1,3.689791005E0,1.230592844E1,2.139981526E0,1.302420644E1
1.135688579E1,3.405377173E0,1.376539931E1,2.899344220E0,1.447373514E1
1.136695279E1,3.097300829E0,1.491728559E1,3.628922367E0,1.566166528E1
1.137702079E1,2.351742534E0,1.562325970E1,3.096760254E0,1.609990251E1
1.138708879E1,1.430930322E0,1.538152762E1,1.179818430E0,1.549293145E1
1.139715579E1,7.163906291E-1,1.509274650E1,-4.287552738E-1,1.511582097E1
1.140722379E1,-6.860777861E-1,1.473638093E1,-1.449088558E0,1.482334251E1
1.141729179E1,-2.185049525E0,1.407339672E1,-1.784414681E0,1.435336450E1
1.142735879E1,-2.366367590E0,1.305667702E1,-1.781008093E0,1.338837182E1
1.143742679E1,-1.154898182E0,1.169118727E1,-1.887541439E0,1.189875885E1
1.144749479E1,1.187827069E0,1.017743435E1,-1.938672416E0,1.042830542E1
1.145756179E1,2.827671682E0,9.142021685E0,-1.839494283E0,9.744538309E0
1.146762979E1,3.359101139E0,8.555794462E0,-1.628586384E0,9.334745468E0
1.147769779E1,3.494746017E0,8.218746334E0,-1.429903843E0,9.044648474E0
1.148776579E1,3.535878548E0,7.881799947E0,-1.437578899E0,8.757387773E0
1.149783279E1,3.793082069E0,7.391025596E0,-1.453602608E0,8.433723465E0
1.150790079E1,4.163135976E0,6.888950331E0,-1.420180655E0,8.173509094E0
1.151796879E1,4.413005627E0,6.376972221E0,-1.314190369E0,7.865588961E0
1.152803579E1,4.725977553E0,5.801148364E0,-1.287803932E-1,7.483633513E0
1.153810379E1,5.669034619E0,4.625563318E0,2.874312875E0,7.861009097E0
1.154817179E1,6.348592175E0,1.959938740E0,7.819408987E0,1.026104962E1
1.155823879E1,2.867863396E0,-1.900997052E0,1.458218751E1,1.498261068E1
1.156830679E1,-3.151006043E-1,-2.045813872E0,6.632034200E0,6.947554996E0
1.157837479E1,2.041768768E-1,3.990929335E-1,-8.332303355E0,8.344353933E0
1.158844179E1,-3.502817806E0,-3.645505655E0,-1.070689388E1,1.184048228E1
1.159850979E1,-7.934088088E0,-1.324937786E1,-9.746886324E0,1.826191557E1
1.160857779E1,-1.281057823E1,-2.868920923E1,-1.050101927E1,3.312782889E1
1.161864479E1,-1.862145344E1,-4.389954792E1,-1.391716263E1,4.967510696E1
1.162871279E1,-2.257477349E1,-5.477493868E1,-1.003964706E1,6.008917389E1
1.163878079E1,-1.871946798E1,-4.627886885E1,1.624376623E1,5.249773447E1
1.164884779E1,-8.209567959E0,-2.048430267E1,2.031033631E1,2.999188929E1
1.165891579E1,-3.857309933E0,-1.164409379E1,-1.471564085E0,1.235432155E1
1.166898379E1,-3.948494045E0,-9.940563648E0,-8.479776565E0,1.364961617E1
1.167905179E1,-2.880015956E0,-8.304206314E0,-7.550111961E0,1.158699810E1
1.168911879E1,-1.595715969E0,-5.593482746E0,-4.819988501E0,7.554180818E0
1.169918679E1,-3.731842133E-1,-2.123812221E0,-8.042102534E-1,2.301434105E0
1.170925479E1,7.632700959E-1,1.311393061E0,4.351571563E0,4.608525586E0
1.171932179E1,1.421773582E0,3.662378966E0,6.477022759E0,7.575373497E0
1.172938979E1,1.113723258E0,4.957508581E0,4.580307623E0,6.840795915E0
1.173945779E1,7.821890545E-1,6.696008586E0,2.790025846E0,7.296067086E0
1.174952479E1,1.190950359E0,8.526236787E0,1.724594157E0,8.780051339E0
1.175959279E1,1.298070473E0,1.041389342E1,1.443385184E0,1.059327729E1
1.176966079E1,7.529240325E-1,1.211373163E1,2.520966218E0,1.239615502E1
1.177972779E1,-2.108289617E-1,1.388366393E1,6.212057351E0,1.521151634E1
1.178979579E1,-6.033575186E-1,1.552049138E1,9.869779594E0,1.840277811E1
1.179986379E1,-2.788852894E-1,1.609813080E1,9.395148236E0,1.864125539E1
1.180993079E1,2.548918247E-2,1.556066526E1,6.349580355E0,1.680631202E1
1.181999879E1,-6.664992616E-2,1.517306152E1,2.679511131E0,1.540798553E1
1.183006679E1,-2.436464596E-1,1.457651338E1,-8.524597228E-1,1.460345142E1
1.184013379E1,-3.501159243E-1,1.359668258E1,-3.103299780E0,1.395072858E1
1.185020179E1,-1.987775579E-2,1.267356745E1,-3.481083705E0,1.314296963E1
1.186026979E1,5.266414645E-1,1.194483598E1,-2.639402740E0,1.224430090E1
1.187033679E1,1.336298984E0,1.136434312E1,-1.705099540E0,1.156898241E1
1.188040479E1,1.958948221E0,1.071936599E1,-1.062261329E0,1.094854715E1
1.189047279E1,2.446540956E0,1.007420761E1,-2.954340792E-1,1.037123440E1
1.190053979E1,2.834963160E0,9.502401373E0,3.823786676E-1,9.923651617E0
1.191060779E1,3.166523676E0,8.932580853E0,7.254652154E-1,9.504955163E0
1.192067579E1,3.343294069E0,8.533221871E0,7.236069703E-1,9.193318104E0
1.193074379E1,3.250620963E0,8.307568463E0,4.710318124E-1,8.933314132E0
1.194081079E1,3.117461444E0,8.038177882E0,3.881720889E-1,8.630269236E0
1.195087879E1,2.975539580E0,7.568614891E0,9.699852490E-1,8.190154976E0
1.196094679E1,2.056537081E0,5.815528421E0,6.200475186E0,8.746176772E0
1.197101379E1,-8.848740551E-1,2.862714922E0,1.318474624E1,1.352093459E1
1.198108179E1,-2.521793306E0,6.372050035E-1,8.965429925E0,9.335116788E0
1.199114979E1,-2.876351799E0,-1.863069087E0,4.463565624E-1,3.455960109E0
1.200121679E1,-5.606751248E0,-6.740905262E0,-5.842009292E0,1.053586901E1
1.201128479E1,-8.507604049E0,-1.642153912E1,-8.998079023E0,2.056724824E1
1.202135279E1,-1.068556558E1,-2.928011715E1,-1.315273507E1,3.383047461E1
1.203141979E1,-1.398500553E1,-4.185877610E1,-1.543649379E1,4.675492334E1
1.204148779E1,-1.634785485E1,-4.863253687E1,-1.517643770E1,5.350420789E1
1.205155579E1,-1.173666925E1,-4.800620652E1,-8.789017675E0,5.019553866E1
1.206162279E1,-3.819679592E0,-3.424167376E1,1.223174715E1,3.656087817E1
1.207169079E1,-3.638178509E0,-1.642606721E1,1.991246837E1,2.606834140E1
1.208175879E1,-3.793317420E0,-1.019073092E1,6.627963953E0,1.273460482E1
1.209182579E1,-4.936773185E0,-9.020336450E0,-1.694195652E0,1.042154010E1
1.210189379E1,-4.718167134E0,-6.892136478E0,-2.719540000E0,8.783993634E0
1.211196179E1,-2.979898971E0,-3.594755332E0,-1.532111565E-1,4.671780970E0
1.212202879E1,-1.443078790E0,-1.088546902E-1,3.783478310E0,4.050806569E0
1.213209679E1,8.887884736E-2,2.836624061E0,5.873783062E0,6.523470163E0
1.214216483E1,1.360849981E0,5.414615250E0,5.546168246E0,7.869558640E0
1.215223283E1,2.338691841E0,7.648912364E0,4.240704846E0,9.053116451E0
1.216229983E1,2.179762765E0,9.635677544E0,2.676268265E0,1.023523616E1
1.217236783E1,1.467969802E0,1.145688349E1,1.791414968E0,1.168863903E1
1.218243583E1,1.216177002E0,1.295646393E1,1.902831323E0,1.315179877E1
1.219250283E1,1.887429757E0,1.405348344E1,2.400190809E0,1.438136655E1
1.220257083E1,2.549566411E0,1.474517631E1,3.046392338E0,1.527092072E1
1.221263883E1,2.712414583E0,1.494427634E1,2.822217107E0,1.544841408E1
1.222270583E1,2.320246507E0,1.532153168E1,1.580124661E0,1.557657442E1
1.223277383E1,1.655537955E0,1.573312888E1,1.291474521E-1,1.582051925E1
1.224284183E1,1.180816550E0,1.537814676E1,-1.733465552E0,1.552052281E1
1.225290883E1,1.021577279E0,1.440813812E1,-3.056381721E0,1.476412996E1
1.226297683E1,7.311054397E-1,1.350936260E1,-3.075859966E0,1.387437594E1
1.227304483E1,5.497198400E-1,1.257366309E1,-2.990100608E0,1.293599231E1
1.228311183E1,4.450106795E-1,1.190460479E1,-2.627492546E0,1.219923632E1
1.229317983E1,6.481232169E-1,1.151915517E1,-2.093309051E0,1.172573845E1
1.230324783E1,7.355754898E-1,1.134958124E1,-1.663596003E0,1.149441678E1
1.231331483E1,6.305277756E-1,1.122175175E1,-1.351228387E0,1.132038408E1
1.232338283E1,5.373776834E-1,1.106340213E1,-1.021108698E0,1.112341245E1
1.233345083E1,5.541774648E-1,1.092421267E1,-2.156453133E-1,1.094038564E1
1.234351783E1,3.130967635E-1,1.067135100E1,1.344999933E0,1.076033394E1
1.235358583E1,-5.601965886E-1,1.032877433E1,3.406095504E0,1.089031156E1
1.236365383E1,-8.763876987E-1,8.872040536E0,7.563447121E0,1.169131691E1
1.237372083E1,-3.738750619E-1,4.980356576E0,1.163257361E1,1.265940374E1
1.238378883E1,1.311336343E0,3.069903992E0,5.517547295E0,6.448817076E0
1.239385683E1,3.782399499E0,2.194092829E0,2.723931259E-1,4.381185607E0
1.240392483E1,9.802740097E-1,-1.454567984E0,1.416765735E0,2.254757260E0
1.241399183E1,-3.729262049E0,-4.296518274E0,-6.914093943E0,8.953890761E0
1.242405983E1,-8.594301885E0,-1.329649589E1,-1.374105034E1,2.096366600E1
1.243412783E1,-1.362560876E1,-3.299488366E1,-1.752551566E1,3.976761573E1
1.244419483E1,-1.951278779E1,-5.126259576E1,-1.800219471E1,5.772938269E1
1.245426283E1,-2.414224126E1,-6.387333721E1,-1.712224255E1,7.039760088E1
1.246433083E1,-2.446080225E1,-5.999085151E1,-1.154651078E1,6.580695269E1
1.247439783E1,-1.321423024E1,-3.189981244E1,6.658962382E0,3.516469386E1
1.248446583E1,-4.008004959E0,-1.171050647E1,2.426208346E1,2.723690069E1
1.249453383E1,2.987398025E-1,-9.235458437E0,1.400554797E1,1.677910343E1
1.250460083E1,1.298172507E0,-8.387138543E0,2.882766194E0,8.963240805E0
1.251466883E1,1.030856811E0,-6.344331894E0,-2.050151922E0,6.746579566E0
1.252473683E1,1.527609355E0,-3.785914845E0,-2.622319515E0,4.852143979E0
1.253480383E1,2.404970323E0,-2.081573689E-1,-7.807014497E-1,2.537066514E0
1.254487183E1,3.280868317E0,3.960635496E0,2.152851248E0,5.575437108E0
1.255493983E1,5.283255796E0,8.235498022E0,5.135800127E0,1.105045983E1
1.256500783E1,6.395580400E0,1.155843209E1,6.028360054E0,1.452039689E1
1.257507483E1,6.047757023E0,1.347746487E1,5.454561088E0,1.574705246E1
1.258514283E1,5.310645908E0,1.427893805E1,4.757030361E0,1.595996145E1
1.259521083E1,4.019297687E0,1.445732490E1,4.987982515E0,1.581293669E1
1.260527783E1,2.377445140E0,1.482419207E1,6.504564314E0,1.636209867E1
1.261534583E1,7.809539764E-1,1.555701075E1,7.245622884E0,1.717933420E1
1.262541383E1,-5.606275284E-1,1.570692634E1,5.696315389E0,1.671735168E1
1.263548083E1,-1.114458253E0,1.525278246E1,2.804614649E0,1.554848074E1
1.264554883E1,-8.908373380E-1,1.377895901E1,-4.295142424E-1,1.381440498E1
1.265561683E1,-4.192762063E-1,1.240919962E1,-2.755329053E0,1.271832796E1
1.266568383E1,-4.024843186E-2,1.118118610E1,-3.534696241E0,1.172666279E1
1.267575183E1,3.226780111E-1,1.029428511E1,-3.870365596E0,1.100255229E1
1.268581983E1,1.328218424E0,9.694694661E0,-3.422340238E0,1.036646909E1
1.269588683E1,2.168634052E0,9.345434039E0,-2.785937473E0,9.990073004E0
1.270595483E1,2.398420857E0,9.252507164E0,-2.332236807E0,9.838731623E0
1.271602283E1,2.358947181E0,9.171716770E0,-2.131928741E0,9.707221048E0
1.272608983E1,2.450722154E0,8.975190098E0,-2.016690645E0,9.519827600E0
1.273615783E1,2.694043216E0,8.598652214E0,-1.937971335E0,9.216855301E0
1.274622583E1,2.737175495E0,8.125200824E0,-1.905876553E0,8.783130623E0
1.275629283E1,2.772263759E0,7.725536032E0,-1.880599040E0,8.420570413E0
1.276636083E1,2.969875967E0,7.497525027E0,-1.816080862E0,8.266268474E0
1.277642883E1,3.107913233E0,7.413939664E0,-1.688292303E0,8.214375016E0
1.278649683E1,3.156401269E0,7.457010255E0,-1.415829595E0,8.220367653E0
1.279656383E1,3.191636590E0,7.349209818E0,-8.559844244E-1,8.057923951E0
1.280663183E1,2.671137918E0,3.742758300E0,1.038876208E1,1.136088003E1
1.281669983E1,-8.442581257E-1,-2.418444062E0,2.141701309E1,2.156965677E1
1.282676683E1,-3.533226836E-1,1.135809946E0,3.589396943E0,3.781358429E0
1.283683483E1,4.779476067E-1,3.459347266E0,-1.006381711E1,1.065250826E1
1.284690283E1,-3.948655428E0,-1.764554029E0,-1.042524286E1,1.128677187E1
1.285696983E1,-9.858878045E0,-1.354084869E1,-1.015415191E1,1.958721166E1
1.286703783E1,-1.427770545E1,-3.019961286E1,-1.200224160E1,3.549539820E1
1.287710583E1,-1.923081400E1,-4.476293375E1,-1.411797122E1,5.072338274E1
1.288717283E1,-2.464011063E1,-5.360689420E1,-1.357591561E1,6.054039678E1
1.289724083E1,-2.621543472E1,-5.220343147E1,-3.188218893E0,5.850309406E1
1.290730883E1,-1.669341360E1,-2.720143433E1,2.647651524E1,4.146798701E1
1.291737583E1,-5.567684830E0,-1.251685856E1,1.901982541E1,2.343980847E1
1.292744383E1,-2.579556195E0,-1.209290736E1,-2.878960826E0,1.269570534E1
1.293751183E1,-1.157100828E0,-1.131464295E1,-7.837716619E0,1.381266916E1
1.294757983E1,4.845526215E-1,-8.622663220E0,-6.003985351E0,1.051822002E1
1.295764683E1,1.967184609E0,-5.206809883E0,-3.270504420E0,6.455763596E0
1.296771483E1,4.305432647E0,-1.286976843E0,6.997199249E-1,4.547820098E0
1.297778283E1,6.480664405E0,2.650683188E0,5.157969260E0,8.696538356E0
1.298784983E1,7.434573319E0,6.297969321E0,6.969027364E0,1.197934224E1
1.299791783E1,6.897380261E0,9.390424855E0,6.304276128E0,1.324755943E1
1.300798583E1,5.659321225E0,1.172001053E1,3.790302011E0,1.355555063E1
1.301805283E1,3.976411868E0,1.324784238E1,1.257192296E0,1.388876206E1
1.302812083E1,2.575305854E0,1.364748787E1,1.077771214E-1,1.388876313E1
1.303818883E1,1.309610538E0,1.320697268E1,3.421521993E-1,1.327615438E1
1.304825583E1,2.421235523E-1,1.315772977E1,2.849242938E0,1.346486768E1
1.305832383E1,-8.557733399E-1,1.397618325E1,7.487295324E0,1.587846458E1
1.306839183E1,-1.211825211E0,1.497695058E1,7.329631001E0,1.671828519E1
1.307845883E1,-6.121666414E-1,1.543282290E1,3.679790804E0,1.587726775E1
1.308852683E1,1.058831352E-1,1.508498374E1,-5.700274758E-1,1.509612126E1
1.309859483E1,6.079730183E-2,1.399033585E1,-3.569741528E0,1.443870660E1
1.310866183E1,1.368491122E-1,1.267387150E1,-4.566728050E0,1.347222148E1
1.311872983E1,6.514100830E-1,1.164387394E1,-4.031876802E0,1.233937462E1
1.312879783E1,1.122573019E0,1.078363391E1,-2.454283985E0,1.111622420E1
1.313886442E1,1.361134740E0,1.000928948E1,-1.057364870E0,1.015660298E1
1.314893242E1,1.371353627E0,9.564882381E0,1.737371492E-1,9.664252187E0
1.315900042E1,9.003595287E-1,9.464351202E0,1.617491877E0,9.643695917E0
1.316906742E1,-3.549145880E-1,9.408686294E0,3.829624536E0,1.016441667E1
1.317913542E1,-1.293409950E0,9.239435713E0,5.341568323E0,1.075046202E1
1.318920342E1,-7.649359676E-1,8.925135008E0,4.416824151E0,9.987567148E0
1.319927142E1,4.911196294E-1,8.394590819E0,3.308925304E0,9.036555770E0
1.320933842E1,1.612786915E0,7.512572252E0,3.878088598E0,8.606938750E0
1.321940642E1,2.915006864E0,5.806791512E0,6.377483268E0,9.104305878E0
1.322947442E1,3.323158597E0,3.313880820E0,9.743396705E0,1.081475698E1
1.323954142E1,2.587028645E0,1.666555279E0,7.598250918E0,8.197776572E0
1.324960942E1,3.283690183E0,-1.336075913E0,4.970118102E0,6.104899181E0
1.325967742E1,1.604584733E0,1.892732012E-1,-5.000509590E0,5.255055915E0
1.326974442E1,-2.580786450E0,-1.680185723E-1,-1.016669887E1,1.049049354E1
1.327981242E1,-7.941703502E0,-6.277257898E0,-1.114135136E1,1.505338272E1
1.328988042E1,-1.633520148E1,-2.321576632E1,-1.277996455E1,3.113098307E1
1.329994742E1,-2.615379338E1,-4.391311814E1,-1.601648262E1,5.356221213E1
1.331001542E1,-3.313229089E1,-5.715410056E1,-1.825191526E1,6.853810853E1
1.332008342E1,-2.880209792E1,-5.587936545E1,-1.485081094E1,6.459574996E1
1.333015042E1,-1.190144145E1,-2.959266018E1,4.302265502E0,3.218507937E1
1.334021842E1,-2.152751553E0,-1.023959376E1,2.774120250E1,2.964891121E1
1.335028642E1,-1.357010991E0,-7.681174961E0,1.642784827E1,1.818560217E1
1.336035442E1,-2.680413649E0,-8.534001889E0,-5.423035240E-1,8.961467440E0
1.337042142E1,-1.698379920E0,-7.225965714E0,-6.367896173E0,9.780039700E0
1.338048942E1,-9.173474443E-1,-4.412475577E0,-5.372915246E0,7.012822919E0
1.339055742E1,7.917305410E-2,-1.060517689E0,2.100038100E-1,1.084005416E0
1.340062442E1,1.662051461E0,3.035396065E0,6.670275575E0,7.514560571E0
1.341069242E1,2.502539010E0,6.694432762E0,1.139033399E1,1.344685242E1
1.342076042E1,3.205674878E0,9.025986614E0,1.236008769E1,1.563702508E1
1.343082742E1,5.035152004E0,1.042630939E1,1.148834736E1,1.631081875E1
1.344089542E1,8.019212438E0,1.114420130E1,9.409251720E0,1.664436867E1
1.345096342E1,9.541996379E0,1.141182368E1,6.573308859E0,1.626308101E1
1.346103042E1,9.498474383E0,1.175298766E1,3.971233574E0,1.562448177E1
1.347109842E1,8.381945046E0,1.156126915E1,1.140951988E0,1.432556172E1
1.348116642E1,7.306440943E0,1.152280266E1,-2.185095134E0,1.381787615E1
1.349123342E1,5.834859316E0,1.165406681E1,-5.182125862E0,1.402559392E1
1.350130142E1,4.777950821E0,1.183511648E1,-6.307378660E0,1.423663660E1
1.351136942E1,3.906570970E0,1.206915129E1,-6.114084914E0,1.408217824E1
1.352143642E1,3.173527179E0,1.224082671E1,-5.294902280E0,1.370930718E1
1.353150442E1,2.708791648E0,1.224941861E1,-4.212573892E0,1.323372915E1
1.354157242E1,2.296764381E0,1.210785752E1,-3.060662468E0,1.269814928E1
1.355164042E1,1.971672055E0,1.187286026E1,-2.178255061E0,1.223098919E1
1.356170742E1,1.783574436E0,1.168449104E1,-1.766417536E0,1.195109616E1
1.357177542E1,1.387966736E0,1.144728236E1,-1.061952596E0,1.157991660E1
1.358184342E1,-5.761390221E-1,1.113641514E1,2.068413945E0,1.134151730E1
1.359191042E1,-3.696095765E0,1.074371848E1,6.526859747E0,1.310299618E1
1.360197842E1,-2.312022690E0,1.032873691E1,3.814841605E0,1.125083426E1
1.361204642E1,-1.233084810E0,9.971003083E0,1.161360451E0,1.011385973E1
1.362211342E1,-1.939490442E0,9.348882142E0,1.801158183E0,9.716346601E0
1.363218142E1,-2.409510101E0,8.182225209E0,4.646604524E0,9.713160243E0
1.364224942E1,5.899960461E-1,5.120785062E0,6.182796130E0,8.049689619E0
1.365231642E1,5.483150464E0,1.404797654E0,3.888758597E0,6.867374964E0
1.366238442E1,6.230729265E0,-1.093925756E0,5.108670216E0,8.131246651E0
1.367245242E1,5.968724887E0,-6.698348057E-1,-3.521801376E-1,6.016509477E0
1.368251942E1,3.280411650E0,2.178747396E0,-5.936489772E0,7.123900029E0
1.369258742E1,9.002162719E-1,2.332562497E0,-7.629606028E0,8.028830879E0
1.370265542E1,-4.549595708E0,-5.831743920E0,-9.561034328E0,1.208806997E1
1.371272242E1,-1.315450210E1,-2.582853148E1,-1.302388466E1,3.177696549E1
1.372279042E1,-2.381838972E1,-5.451317053E1,-2.034594352E1,6.287256053E1
1.373285842E1,-3.084022913E1,-7.083965381E1,-2.389293002E1,8.087180219E1
1.374292642E1,-2.456032420E1,-6.186015022E1,-9.579171807E0,6.724320220E1
1.375299342E1,-1.192557291E1,-2.848107174E1,3.460340591E1,4.637657208E1
1.376306142E1,-5.753238033E0,-1.316416404E1,3.593669270E1,3.870194885E1
1.377312942E1,-3.547879081E0,-1.290637200E1,1.500237662E0,1.346894937E1
1.378319642E1,-3.106320159E0,-1.241362129E1,-8.149843329E0,1.517126114E1
1.379326442E1,-2.130235387E0,-8.386721052E0,-6.723896881E0,1.095836585E1
1.380333242E1,1.690918288E-1,-3.671769594E0,-3.688863344E0,5.207513492E0
1.381339942E1,2.474529677E0,1.299330255E0,9.531405902E-1,2.952970237E0
1.382346742E1,4.048020380E0,5.733733476E0,6.507804256E0,9.571503790E0
1.383353542E1,4.049116440E0,8.747853861E0,8.096091045E0,1.258836691E1
1.384360242E1,3.713447085E0,1.051607819E1,5.831812332E0,1.258521453E1
1.385367042E1,3.862351402E0,1.222366279E1,2.613160436E0,1.308297741E1
1.386373842E1,4.009041671E0,1.366526809E1,8.965366191E-1,1.426939890E1
1.387380542E1,3.768258300E0,1.454200662E1,5.630260563E-1,1.503285487E1
1.388387342E1,3.235607944E0,1.480324384E1,6.480866718E-1,1.516658179E1
1.389394142E1,2.793590308E0,1.479047001E1,1.442015181E0,1.512089805E1
1.390400942E1,2.148294805E0,1.493882557E1,2.278448855E0,1.526351890E1
1.391407642E1,1.062754688E0,1.487416355E1,1.632605760E0,1.500118630E1
1.392414442E1,3.665809527E-1,1.453370591E1,1.258262336E-1,1.453887277E1
1.393421242E1,1.572795761E-1,1.384750475E1,-1.328385070E0,1.391196361E1
1.394427942E1,1.130085522E-1,1.327063131E1,-2.052034725E0,1.342882247E1
1.395434742E1,4.701015204E-2,1.302178434E1,-1.488021659E0,1.310661229E1
1.396441542E1,-1.583513707E-1,1.288335151E1,1.775919992E-2,1.288433687E1
1.397448242E1,-2.808305119E-1,1.265840562E1,1.414337386E0,1.274026879E1
1.398455042E1,3.957307845E-2,1.247436567E1,1.640218250E0,1.258179959E1
1.399461842E1,6.054610544E-1,1.205752819E1,8.801918241E-1,1.210476381E1
1.400468542E1,8.979709411E-1,1.139328333E1,-4.653864719E-2,1.142871045E1
1.401475342E1,1.432286584E0,1.040094651E1,-6.081022418E-1,1.051669727E1
1.402482142E1,2.682195588E0,9.370860071E0,-6.093337385E-1,9.766190621E0
1.403488842E1,3.667976505E0,8.899034792E0,-6.728203940E-1,9.648811282E0
1.404495642E1,4.392351215E0,8.765652786E0,-7.249987538E-1,9.831329572E0
1.405502442E1,4.775466632E0,8.217940587E0,6.795025921E-1,9.528974385E0
1.406509142E1,4.945987812E0,6.953003070E0,4.099944239E0,9.466603926E0
1.407515942E1,3.635354889E0,4.161218966E0,9.808803075E0,1.125807116E1
1.408522742E1,1.653280053E0,5.549609917E-1,1.520316883E1,1.530286441E1
1.409529542E1,4.148593366E0,3.443770283E-1,3.723713919E0,5.585290306E0
1.410536242E1,1.930581624E0,1.307187744E0,-5.014314866E0,5.529849797E0
1.411543042E1,-1.121855274E0,1.434217919E0,-9.276439233E0,9.453457840E0
1.412549842E1,-7.039107413E0,-4.059494956E0,-1.190208698E1,1.441139157E1
1.413556542E1,-1.549490513E1,-2.438406573E1,-1.343993627E1,3.186387663E1
1.414563417E1,-2.397259717E1,-5.280301899E1,-1.566145605E1,6.006767380E1
1.415570217E1,-3.014665580E1,-7.039525606E1,-1.739569110E1,7.852975870E1
1.416576917E1,-2.952692111E1,-6.772460814E1,-3.771311424E0,7.397759396E1
1.417583717E1,-1.671642590E1,-3.872632912E1,3.114492286E1,5.243256319E1
1.418590517E1,-6.148584656E0,-1.638688969E1,2.168662119E1,2.786834738E1
1.419597317E1,-4.710239772E0,-1.320991266E1,-5.015303630E0,1.489434193E1
1.420604017E1,-4.575196572E0,-9.516622387E0,-8.373692286E0,1.347654436E1
1.421610817E1,-2.276985005E0,-5.144285021E0,-6.520270520E0,8.611751085E0
1.422617617E1,-3.175777772E-1,-1.020936132E0,-3.938642364E0,4.081184865E0
1.423624317E1,2.161484662E0,3.187228959E0,-8.647055465E-1,3.946917793E0
1.424631117E1,3.855407833E0,7.373761107E0,3.312765756E0,8.956056017E0
1.425637917E1,4.620752814E0,1.095671149E1,5.726480005E0,1.319823687E1
1.426644617E1,5.059291649E0,1.355832485E1,5.129786850E0,1.535380467E1
1.427651417E1,4.587249438E0,1.528594319E1,4.032470294E0,1.646097607E1
1.428658217E1,2.907689074E0,1.595387765E1,3.767392620E0,1.664854693E1
1.429664917E1,1.031226647E0,1.651888006E1,3.904514505E0,1.700535388E1
1.430671717E1,-1.010224910E0,1.759456543E1,5.646660833E0,1.850605483E1
1.431678517E1,-3.442450567E0,1.873365332E1,6.471663201E0,2.011672581E1
1.432685217E1,-5.226607386E0,1.791885084E1,2.341060256E0,1.881178363E1
1.433692017E1,-5.678169140E0,1.701534843E1,-2.389646671E-1,1.793936429E1
1.434698817E1,-4.845382666E0,1.613773516E1,-1.779168559E0,1.694313046E1
1.435705517E1,-3.866897320E0,1.498828015E1,-2.789539942E0,1.572841282E1
1.436712317E1,-2.476896630E0,1.390560385E1,-2.758777156E0,1.439137543E1
1.437719117E1,-5.826573519E-1,1.307602311E1,-2.378620430E0,1.330337195E1
1.438725817E1,9.990000102E-1,1.242245643E1,-2.032010350E0,1.262713312E1
1.439732617E1,1.869519005E0,1.176024055E1,-1.716358353E0,1.203097025E1
1.440739417E1,2.278468151E0,1.122795564E1,-1.803523382E0,1.159789212E1
1.441746217E1,2.481075928E0,1.064452397E1,-1.995806876E0,1.111057485E1
1.442752917E1,2.515216358E0,1.022322975E1,-2.253936743E0,1.076666014E1
1.443759717E1,2.308688608E0,9.844934775E0,-2.379372967E0,1.038817595E1
1.444766517E1,1.942958425E0,9.363223608E0,-2.143146039E0,9.799904015E0
1.445773217E1,1.657299137E0,8.940193927E0,-1.548948476E0,9.223499838E0
1.446780017E1,1.570781980E0,8.555103906E0,-1.070543179E0,8.763744723E0
1.447786817E1,1.856014568E0,8.313067769E0,-1.052404239E0,8.582507821E0
1.448793517E1,2.184305175E0,8.086862385E0,-9.789256418E-1,8.433672257E0
1.449800317E1,2.805139729E0,7.885449779E0,-1.206180163E0,8.456003648E0
1.450807117E1,3.330691857E0,7.898159287E0,-1.789818678E0,8.756590619E0
1.451813817E1,3.680082873E0,5.490609757E0,5.499440807E0,8.598468157E0
1.452820617E1,7.711302155E-1,-3.645596287E0,2.751416213E1,2.776534048E1
1.453827417E1,4.741732290E-1,1.195457978E0,-2.894903260E0,3.167716040E0
1.454834217E1,-2.492877363E0,1.704079201E0,-1.252808404E1,1.288686204E1
1.455840917E1,-1.119829272E1,-6.742203344E0,-1.470060299E1,1.967147157E1
1.456847717E1,-2.402274990E1,-3.028469921E1,-1.721927709E1,4.231736077E1
1.457854517E1,-3.401898840E1,-6.274126013E1,-2.000902695E1,7.412232089E1
1.458861217E1,-3.610296646E1,-7.105468165E1,-1.813302382E1,8.173737533E1
1.459868017E1,-2.303746132E1,-6.656230797E1,1.354474761E0,7.044927301E1
1.460874817E1,-3.448938930E0,-3.821584147E1,4.046179676E1,5.576291524E1
1.461881517E1,1.091311466E0,-1.804672711E1,1.689391463E1,2.474428563E1
1.462888317E1,-5.600463152E-2,-1.364563898E1,-6.798164706E0,1.524538104E1
1.463895117E1,-2.198804516E-1,-9.636257588E0,-9.082499954E0,1.324377639E1
1.464901817E1,1.935058545E0,-4.906568223E0,-5.826718823E0,7.859358469E0
1.465908617E1,4.042657606E0,-3.156233454E-1,-1.711070716E0,4.401188659E0
1.466915417E1,5.534265654E0,4.331831948E0,3.326083374E0,7.775326036E0
1.467922217E1,5.685253626E0,8.671629558E0,7.819750464E0,1.298721546E1
1.468928917E1,4.551941318E0,1.177913758E1,8.739381831E0,1.535724737E1
1.469935717E1,3.663314520E0,1.340721876E1,6.706434757E0,1.543209822E1
1.470942517E1,3.572114036E0,1.380149418E1,4.121743244E0,1.484014850E1
1.471949217E1,2.743526156E0,1.390140672E1,3.158468260E0,1.451729886E1
1.472956017E1,8.629750630E-1,1.462817586E1,6.128470234E0,1.588352613E1
1.473962817E1,-1.398002897E0,1.586823465E1,1.029681579E1,1.896785961E1
1.474969517E1,-2.221834944E0,1.630713016E1,9.377351650E0,1.894185230E1
1.475976317E1,-2.587664237E0,1.580484615E1,5.358986009E0,1.688809934E1
1.476983117E1,-2.060500616E0,1.522326103E1,8.038154932E-1,1.538309002E1
1.477989817E1,-1.332792116E0,1.437091241E1,-3.478310956E0,1.484581104E1
1.478996617E1,-2.032559404E-1,1.335633629E1,-5.601895720E0,1.448496696E1
1.480003417E1,7.230872990E-1,1.241089999E1,-5.099787126E0,1.343730340E1
1.481010117E1,1.380191108E0,1.134269439E1,-3.501836643E0,1.195092061E1
1.482016917E1,2.077297035E0,1.050681620E1,-2.406689404E0,1.097727213E1
1.483023717E1,2.446022162E0,1.021800701E1,-1.801081585E0,1.065995247E1
1.484030417E1,2.724457801E0,1.019690324E1,-1.550362333E0,1.066785496E1
1.485037217E1,3.253227359E0,1.009373614E1,-1.666192167E0,1.073513828E1
1.486044017E1,3.919095706E0,9.849455842E0,-1.950371525E0,1.077845261E1
1.487050717E1,4.553167772E0,9.380553585E0,-2.037693844E0,1.062442086E1
1.488057517E1,4.869236967E0,9.012539188E0,-1.997749175E0,1.043677790E1
1.489064317E1,4.869128794E0,8.833212100E0,-1.991245025E0,1.028100715E1
1.490071117E1,4.789302606E0,8.827801087E0,-2.039011222E0,1.024817341E1
1.491077817E1,4.823045718E0,8.756305427E0,-2.248473104E0,1.024647676E1
1.492084617E1,4.532431791E0,8.632471340E0,-2.319824338E0,1.002217962E1
1.493091417E1,4.199196924E0,8.631278508E0,-2.014867630E0,9.807747705E0
1.494098117E1,4.050347571E0,8.483550358E0,-1.159878840E0,9.472130756E0
1.495104917E1,2.610604618E0,6.767662121E0,8.021677040E0,1.081498079E1
1.496111717E1,-3.908927983E-1,2.937821238E0,1.593632898E1,1.620957039E1
1.497118417E1,2.898970291E0,2.416251356E0,1.901737894E0,4.225979931E0
1.498125217E1,1.065587810E-1,1.703702640E0,-5.442012379E0,5.703460019E0
1.499132017E1,-6.141521804E0,-5.058084784E0,-9.314578866E0,1.225005678E1
1.500138717E1,-1.526324780E1,-2.655137130E1,-1.338480989E1,3.342297394E1
1.501145517E1,-2.436962779E1,-5.616322204E1,-1.582257959E1,6.323401216E1
1.502152317E1,-3.512248663E1,-7.100434882E1,-1.731181864E1,8.108579212E1
1.503159117E1,-3.491626937E1,-6.893058000E1,4.827492818E0,7.742012279E1
1.504165817E1,-1.346683581E1,-4.355572696E1,4.174851165E1,6.181743478E1
1.505172617E1,-2.467623239E0,-1.806026575E1,1.648022178E1,2.457356452E1
1.506179417E1,-1.008363157E0,-1.297705431E1,-7.966888629E0,1.526080107E1
1.507186117E1,-7.876295963E-1,-8.404578449E0,-1.115470757E1,1.398873834E1
1.508192917E1,6.864736426E-1,-3.412486510E0,-7.597332906E0,8.356780332E0
1.509199717E1,1.851484291E0,8.656007552E-1,-1.867726979E0,2.768693341E0
1.510206417E1,2.785006303E0,5.028655162E0,3.647441669E0,6.807897148E0
1.511213217E1,1.982549630E0,8.265417640E0,5.564736664E0,1.015942547E1
1.512220017E1,7.270740768E-1,1.048150828E1,3.166740900E0,1.097355459E1
1.513226717E1,-3.889977157E-2,1.226075051E1,7.012226593E-1,1.228084808E1
1.514233546E1,-1.125989255E0,1.393155847E1,-1.739192169E-2,1.397699809E1
1.515240346E1,-2.339048229E0,1.478168165E1,6.591566205E-2,1.496574769E1
1.516247146E1,-2.988634127E0,1.526167724E1,1.426537017E0,1.561684136E1
1.517253846E1,-3.802270676E0,1.585659401E1,5.328476408E0,1.715463485E1
1.518260646E1,-4.123758194E0,1.569795203E1,6.494476697E0,1.748168491E1
1.519267446E1,-3.258120602E0,1.474227141E1,3.198145126E0,1.543301813E1
1.520274146E1,-2.483279158E0,1.475205147E1,5.315084310E-1,1.496904135E1
1.521280946E1,-1.434113985E0,1.536917245E1,-7.793660188E-1,1.545559951E1
1.522287746E1,-1.538509150E-1,1.546782902E1,-1.237330474E0,1.551800217E1
1.523294446E1,1.205892480E0,1.503480761E1,-1.429222058E0,1.515065320E1
1.524301246E1,1.759776561E0,1.433016199E1,-1.281602082E0,1.449458037E1
1.525308046E1,1.622270953E0,1.386231925E1,-1.114992689E0,1.400138803E1
1.526314746E1,1.543033287E0,1.368271501E1,-8.883054936E-1,1.379806973E1
1.527321546E1,1.552309602E0,1.376907838E1,-6.086597007E-2,1.385643855E1
1.528328346E1,1.796693103E0,1.383724873E1,4.778263136E-1,1.396158575E1
1.529335046E1,2.038842968E0,1.312337854E1,-4.919900240E-1,1.328992096E1
1.530341846E1,1.754340551E0,1.164226829E1,-2.042497332E0,1.194955719E1
1.531348646E1,1.507323756E0,1.054229827E1,-2.394909604E0,1.091547845E1
1.532355446E1,1.535511429E0,1.000051398E1,-1.822734994E0,1.028058549E1
1.533362146E1,1.397183117E0,9.539487923E0,-1.394544561E0,9.741596637E0
1.534368946E1,1.233341503E0,9.132172050E0,-1.067484062E0,9.276703070E0
1.535375746E1,7.415552911E-1,8.766201839E0,-5.885199165E-1,8.817173846E0
1.536382446E1,-4.787980843E-1,8.347258778E0,7.676815277E-1,8.396148620E0
1.537389246E1,-1.351419591E0,7.707219629E0,2.249175940E0,8.141643675E0
1.538396046E1,-5.668553978E-1,6.200136632E0,3.343556024E0,7.066992726E0
1.539402746E1,3.250759542E-1,4.214215790E0,3.711707831E0,5.625127921E0
1.540409546E1,1.211833397E0,6.584415060E-1,4.726488014E0,4.923593642E0
1.541416346E1,3.243506071E-1,-2.266426980E0,7.728386988E-1,2.416438335E0
1.542423046E1,-4.150268885E0,-6.715720135E0,-5.570024886E0,9.661822084E0
1.543429846E1,-1.230660906E1,-1.890381665E1,-1.063492285E1,2.493809324E1
1.544436646E1,-1.775888037E1,-4.470333425E1,-1.332944729E1,4.991432750E1
1.545443446E1,-2.283919627E1,-6.881464140E1,-1.507684559E1,7.405670146E1
1.546450146E1,-2.707244709E1,-7.066197330E1,-1.531736963E1,7.720526973E1
1.547456946E1,-1.529900470E1,-6.095204488E1,-3.907746845E0,6.296413110E1
1.548463746E1,-4.515268751E0,-2.969725050E1,1.309933012E1,3.277051706E1
1.549470446E1,-2.363612089E0,-1.358915371E1,1.018844232E1,1.714806454E1
1.550477246E1,-3.970528400E0,-9.528771147E0,2.530805912E0,1.062861957E1
1.551484046E1,-4.821689456E0,-5.933895947E0,2.552180263E-1,7.650159904E0
1.552490746E1,-4.476766590E0,-2.955406154E0,6.450742594E-1,5.402960803E0
1.553497546E1,-2.643070698E0,2.373671347E-1,2.888285966E0,3.922290363E0
1.554504346E1,-8.354376009E-1,4.288208796E0,6.314378947E0,7.678415992E0
1.555511046E1,-1.106147021E-2,8.207598032E0,8.627636862E0,1.190801854E1
1.556517846E1,1.444782961E0,1.058779312E1,6.983155407E0,1.276531317E1
1.557524646E1,1.802606539E0,1.234644029E1,4.501434531E0,1.326449739E1
1.558531446E1,1.151781616E0,1.445118766E1,6.888954424E0,1.605058001E1
1.559538146E1,9.631779206E-1,1.698034934E1,1.390919638E1,2.197101999E1
1.560544946E1,7.251102895E-2,1.814050592E1,1.538463366E1,2.378592369E1
1.561551746E1,-6.914076693E-1,1.745790430E1,8.145912831E0,1.927724988E1
1.562558446E1,-2.808182327E-1,1.606379828E1,8.657656467E-1,1.608956259E1
1.563565246E1,5.738135844E-1,1.441675224E1,-4.213753275E0,1.503089232E1
1.564572046E1,7.462680008E-1,1.311858383E1,-7.330154911E0,1.504610676E1
1.565578746E1,1.333282990E0,1.234267702E1,-6.839381729E0,1.417379491E1
1.566585546E1,1.676710723E0,1.206997224E1,-4.527340035E0,1.299970755E1
1.567592346E1,1.909627250E0,1.198634536E1,-3.313776155E0,1.258174327E1
1.568599046E1,2.318444395E0,1.183588715E1,-2.894790993E0,1.240335535E1
1.569605846E1,2.339157572E0,1.174102660E1,-2.566151161E0,1.224371249E1
1.570612646E1,2.168330289E0,1.181662408E1,-2.264930677E0,1.222555405E1
1.571619346E1,2.015750705E0,1.193624174E1,-2.001178567E0,1.226954903E1
1.572626146E1,1.962839982E0,1.198991918E1,-2.033121321E0,1.231846115E1
1.573632946E1,2.137576274E0,1.185394803E1,-2.140770900E0,1.223389620E1
1.574639746E1,2.416739014E0,1.156187493E1,-1.954846984E0,1.197242691E1
1.575646446E1,2.476202858E0,1.116415433E1,-1.861634181E0,1.158600899E1
1.576653246E1,2.097981561E0,1.070887375E1,-1.441694169E0,1.100726968E1
1.577660046E1,1.551569052E0,1.024688290E1,-4.169170376E-1,1.037206805E1
1.578666746E1,4.780344379E-1,9.752023103E0,1.557608203E0,9.887194487E0
1.579673546E1,-1.951540968E0,9.399267014E0,5.108419955E0,1.087431317E1
1.580680346E1,-2.335783144E0,8.950693772E0,4.552424591E0,1.030996467E1
1.581687046E1,6.982037419E-1,7.765746165E0,2.702693002E0,8.252202823E0
1.582693846E1,2.923007610E0,6.699297645E0,9.522581723E-1,7.370980806E0
1.583700646E1,2.281733821E0,3.947625441E0,5.399379160E0,7.067060999E0
1.584707346E1,1.951790060E0,7.379577917E-1,6.962412994E0,7.268374016E0
1.585714146E1,-2.754944891E-2,-2.961590170E0,4.770843238E0,5.615400298E0
1.586720946E1,-2.812578557E0,-4.201841328E0,-5.871085156E0,7.748271394E0
1.587727746E1,-1.077957711E1,-1.341793554E1,-1.337590108E1,2.179805052E1
1.588734446E1,-2.044287164E1,-4.166649626E1,-1.757334121E1,4.962691037E1
1.589741246E1,-2.834732955E1,-6.597536446E1,-2.031331605E1,7.462540196E1
1.590748046E1,-3.280885800E1,-7.084614655E1,-1.560927316E1,7.961938868E1
1.591754746E1,-2.114110637E1,-6.073123063E1,6.231822109E-1,6.430876386E1
1.592761546E1,-5.766568515E0,-2.836691538E1,3.071914499E1,4.220901645E1
1.593768346E1,8.611437151E-1,-1.328829692E1,2.150367351E1,2.529285231E1
1.594775046E1,8.886645126E-1,-1.240197013E1,-2.012845516E0,1.259563951E1
1.595781846E1,-1.484482047E0,-9.036361914E0,-6.385921969E0,1.116420723E1
1.596788646E1,-1.296049090E0,-4.615893778E0,-5.201173167E0,7.073784060E0
1.597795446E1,2.075036502E-1,-2.813773727E-1,-3.182798524E0,3.201942759E0
1.598802146E1,1.448716675E0,4.095016206E0,-3.396647573E-1,4.356984035E0
1.599808946E1,3.049618832E0,8.693090009E0,3.430168490E0,9.830363411E0
1.600815746E1,5.333840058E0,1.301821754E1,6.943242313E0,1.568860897E1
1.601822446E1,6.213225625E0,1.580980693E1,8.275632141E0,1.889550886E1
1.602829246E1,5.681343593E0,1.635422481E1,7.304569834E0,1.879082421E1
1.603836046E1,3.471306576E0,1.553894285E1,4.955750324E0,1.667537632E1
1.604842746E1,8.464008379E-1,1.536449351E1,4.315693048E0,1.598152877E1
1.605849546E1,-1.094118129E0,1.591811841E1,5.075180873E0,1.674338822E1
1.606856346E1,-1.971951990E0,1.578377396E1,2.971048041E0,1.618157104E1
1.607863046E1,-2.453266570E0,1.540489777E1,1.555815812E-1,1.559979480E1
1.608869846E1,-2.504724407E0,1.499421390E1,-2.636569764E0,1.542892073E1
1.609876646E1,-2.052464788E0,1.446705701E1,-3.980060531E0,1.514428050E1
1.610883346E1,-1.523453008E0,1.379789229E1,-3.486781232E0,1.431294463E1
1.611890146E1,-7.699935168E-1,1.311987606E1,-2.645372747E0,1.340604471E1
1.612896946E1,1.242786218E-1,1.255053384E1,-1.714233475E0,1.266767308E1
1.613903746E1,7.778173837E-1,1.223874627E1,-8.375610173E-1,1.229200629E1
1.614910383E1,1.322688274E0,1.203515792E1,-2.632294061E-1,1.211048389E1
1.615917183E1,2.024797517E0,1.179421872E1,-3.787943244E-2,1.196682226E1
1.616923983E1,2.638865381E0,1.142415663E1,-2.654347200E-2,1.172500190E1
1.617930683E1,2.829572904E0,1.088659987E1,8.511616409E-2,1.124863478E1
1.618937483E1,2.621218484E0,1.017885874E1,5.286572921E-1,1.052423061E1
1.619944283E1,2.594655168E0,9.504939065E0,5.494581040E-1,9.868029503E0
1.620950983E1,2.866226760E0,9.305726182E0,-8.360992865E-1,9.772965652E0
1.621957783E1,3.086852147E0,9.304248590E0,-2.729007812E0,1.017571529E1
1.622964583E1,2.865490011E0,9.070418437E0,-3.343284713E0,1.008271175E1
1.623971283E1,2.693786816E0,8.582181777E0,-2.582815726E0,9.358486444E0
1.624978083E1,2.593752650E0,8.087291570E0,-2.365415225E0,8.816293265E0
1.625984883E1,2.688004212E0,7.354842440E0,-1.456319225E0,7.964919312E0
1.626991683E1,2.991889564E0,7.151998436E0,-2.137871266E0,8.041951153E0
1.627998383E1,2.578267177E0,6.284022542E0,-2.038117182E0,7.091567006E0
1.629005183E1,3.688049412E-1,2.746988000E0,2.672013831E-1,2.784485003E0
1.630011983E1,-5.190169877E0,-3.687186947E0,-2.754030971E0,6.936706533E0
1.631018683E1,-1.274430238E1,-1.956518820E1,-8.129419005E0,2.472450780E1
1.632025483E1,-1.657698151E1,-4.220274207E1,-1.147307326E1,4.677070840E1
1.633032283E1,-2.344713830E1,-6.585382190E1,-1.490804699E1,7.147547844E1
1.634038983E1,-3.689155237E1,-7.074285198E1,-2.743471484E0,7.983147486E1
1.635045783E1,-3.562857484E1,-5.182975229E1,2.922482588E1,6.935278664E1
1.636052583E1,-1.338683186E1,-2.170592168E1,1.291076794E1,2.858395060E1
1.637059383E1,-7.611688989E0,-1.440816151E1,-7.830482444E0,1.807897626E1
1.638066083E1,-6.455530733E0,-1.078017704E1,-6.064457256E0,1.395219466E1
1.639072883E1,-2.932774214E0,-5.912754754E0,-1.367971305E0,6.740413849E0
1.640079683E1,8.547003758E-1,-3.022832737E0,5.459910121E0,6.299099064E0
1.641086383E1,3.580702718E0,-1.341721984E0,9.570306258E0,1.030594060E1
1.642093183E1,4.759968879E0,-4.320776618E-1,6.946921381E0,8.432301673E0
1.643099983E1,4.771206350E0,1.158793012E0,2.684268426E0,5.595758060E0
1.644106683E1,4.495359274E0,3.321058277E0,5.178142154E-1,5.613004066E0
1.645113483E1,4.167514956E0,5.900922913E0,-7.506655455E-2,7.224590446E0
1.646120283E1,3.534694194E0,8.831553830E0,2.270438389E-1,9.515353646E0
1.647126983E1,2.323347870E0,1.167995009E1,1.781702743E0,1.204133066E1
1.648133783E1,6.376740964E-1,1.373296715E1,2.979862719E0,1.406700383E1
1.649140583E1,-1.065906921E0,1.480743980E1,3.272023526E0,1.520205805E1
1.650147383E1,-2.341743211E0,1.535675063E1,2.812827648E0,1.578687906E1
1.651154083E1,-3.041530378E0,1.515328156E1,1.236346972E0,1.550488319E1
1.652160883E1,-3.065215695E0,1.461525001E1,-1.294683473E0,1.498923899E1
1.653167683E1,-2.379821741E0,1.396263525E1,-2.914964472E0,1.446083513E1
1.654174383E1,-5.799499449E-1,1.320491212E1,-3.485998875E0,1.366960988E1
1.655181183E1,3.179207164E-1,1.287891932E1,-3.359586750E0,1.331369444E1
1.656187983E1,9.461414731E-1,1.283862265E1,-2.296105692E0,1.307660187E1
1.657194683E1,1.407371306E0,1.303327763E1,-1.426071578E0,1.318638312E1
1.658201483E1,1.637863576E0,1.313817434E1,-6.278904621E-1,1.325475267E1
1.659208283E1,2.202668063E0,1.315594754E1,-1.675630742E-1,1.334011917E1
1.660214983E1,2.750199875E0,1.253429262E1,-7.112506342E-1,1.285215812E1
1.661221783E1,2.506194397E0,1.165611099E1,-1.521576490E0,1.201919834E1
1.662228583E1,2.204718974E0,1.079773740E1,-1.846132627E0,1.117408271E1
1.663235283E1,2.407506406E0,1.019026782E1,-1.793476696E0,1.062328593E1
1.664242083E1,2.675316339E0,9.654794431E0,-1.497255582E0,1.012986413E1
1.665248883E1,2.801634615E0,9.200482147E0,-1.204880693E0,9.692768735E0
1.666255683E1,2.810197863E0,8.764082224E0,-9.504175419E-1,9.252547906E0
1.667262383E1,2.800031894E0,8.311759163E0,-1.168309136E-1,8.771497503E0
1.668269183E1,2.461859053E0,7.653192526E0,1.675169982E0,8.212082580E0
1.669275983E1,1.005310033E0,6.158408563E0,6.361755427E0,8.911148994E0
1.670282683E1,-3.293502688E-1,3.441894497E0,1.323616432E1,1.368031999E1
1.671289483E1,1.822202020E0,2.390819476E0,9.481774151E0,9.946882879E0
1.672296283E1,4.520249409E0,2.649986200E0,4.553659523E-1,5.259509458E0
1.673302983E1,3.946551307E0,-1.046098455E0,3.189832724E0,5.181179596E0
1.674309783E1,1.858342198E0,-4.988561974E0,4.280164781E0,6.830739114E0
1.675316583E1,-3.445360726E-1,-1.528141744E0,-8.084909415E0,8.235270641E0
1.676323283E1,-4.998870031E0,-3.912871345E0,-1.232572711E1,1.386444419E1
1.677330083E1,-1.314464721E1,-1.939373380E1,-7.755342799E0,2.467881689E1
1.678336883E1,-2.142155989E1,-4.267870075E1,-8.721063089E0,4.854288482E1
1.679343683E1,-2.633967870E1,-5.737978437E1,-1.307872219E1,6.447690519E1
1.680350383E1,-2.411901378E1,-5.802207061E1,-1.025646766E1,6.366696657E1
1.681357183E1,-9.890265899E0,-3.819435178E1,5.392787009E0,3.982094950E1
1.682363983E1,-2.281449062E0,-1.742489911E1,1.716362213E1,2.456465028E1
1.683370683E1,-2.967280680E0,-1.099783613E1,4.390877132E0,1.220806931E1
1.684377483E1,-4.246000085E0,-8.724624628E0,-4.664992847E0,1.076613904E1
