"Time (s)","Linear Acceleration x (m/s^2)","Linear Acceleration y (m/s^2)","Linear Acceleration z (m/s^2)","Absolute acceleration (m/s^2)"
3.284458333E-3,-6.420622855E-1,7.397447008E-1,-2.338255346E0,2.535133974E0
1.336545833E-2,-8.636021769E-1,7.479003972E-1,-2.545351446E0,2.789978083E0
2.344645833E-2,-1.321391508E0,6.017357934E-1,-1.709396074E0,2.242809938E0
3.352645833E-2,-1.047759064E0,5.512240362E-1,-1.038222256E0,1.574659470E0
4.360745833E-2,-5.450058147E-1,5.229200041E-1,-4.188945293E-1,8.636835621E-1
5.368845833E-2,-2.623294830E-2,4.124421269E-1,4.333231187E-1,5.988034743E-1
6.376845833E-2,4.697527340E-1,5.709490335E-1,9.110722125E-1,1.173329880E0
7.384945833E-2,6.275968587E-1,8.762327474E-1,8.200608855E-1,1.354312187E0
8.393045834E-2,5.069255304E-1,9.550333339E-1,3.170535743E-1,1.126758684E0
9.401145834E-2,1.962629628E-1,8.319494444E-1,-2.687637591E-1,8.960429604E-1
1.040914583E-1,-3.679500782E-1,5.097871578E-1,-9.412333202E-1,1.131896802E0
1.141724583E-1,-9.642272034E-1,2.402901578E-1,-1.330209401E0,1.660400708E0
1.242534583E-1,-1.377335328E0,1.251058567E-1,-1.482011306E0,2.027082039E0
1.343334583E-1,-1.480612944E0,1.636401772E-2,-1.575630491E0,2.162196549E0
1.444144583E-1,-1.728216214E0,-7.817201078E-2,-1.005983632E0,2.001210937E0
1.544954583E-1,-1.560164313E0,6.882172823E-3,-6.526141709E-1,1.691172760E0
1.645754583E-1,-1.284412546E0,1.245801920E-1,-5.870744848E-1,1.417706692E0
1.746564583E-1,-1.032785807E0,8.005832255E-2,-4.838337064E-1,1.143307008E0
1.847374583E-1,-8.709187979E-1,4.001851934E-1,-1.303040314E-1,9.672780790E-1
1.948184583E-1,-6.977494133E-1,6.771590281E-1,3.029734790E-2,9.727880151E-1
2.048984583E-1,-6.168271646E-1,7.584470201E-1,-1.501103050E-1,9.890655877E-1
2.149794583E-1,-5.584278059E-1,8.757959604E-1,-3.753158158E-1,1.104410313E0
2.250604583E-1,-4.951056764E-1,1.085588796E0,-7.052701020E-1,1.386015361E0
2.351404583E-1,-6.258798239E-1,1.145885283E0,-7.653584290E-1,1.513457023E0
2.452214583E-1,-8.543673769E-1,8.767993426E-1,-8.839469790E-1,1.509994359E0
2.553024583E-1,-1.322137612E0,4.308181715E-1,-1.139570290E0,1.797852221E0
2.653834583E-1,-1.760444313E0,2.484628111E-1,-5.424374253E-1,1.858799695E0
2.754634583E-1,-1.771341476E0,1.333796668E-1,-3.552060717E-1,1.811522044E0
2.855444583E-1,-1.765427895E0,7.417602360E-2,-3.141551095E-1,1.794695285E0
2.956254583E-1,-1.560786457E0,5.842070103E-2,-1.331937253E-1,1.567548376E0
3.057054583E-1,-1.359762399E0,1.755836999E-1,-2.075761557E-1,1.386676342E0
3.157864583E-1,-1.271122118E0,3.360874307E-1,-2.433809960E-1,1.337138926E0
3.258674583E-1,-1.149321692E0,5.531939632E-1,-2.244196451E-1,1.295117018E0
3.359484583E-1,-9.980334654E-1,7.490300792E-1,-4.735040152E-1,1.334662096E0
3.460284583E-1,-8.930379376E-1,9.272836179E-1,-8.566188473E-1,1.546340039E0
3.561094583E-1,-9.234326416E-1,9.605881888E-1,-1.043908088E0,1.692690642E0
3.661904583E-1,-1.023649240E0,8.657597995E-1,-9.597713327E-1,1.648805267E0
3.762704583E-1,-1.123326141E0,6.777472579E-1,-6.074561244E-1,1.445754442E0
3.863514583E-1,-9.933939922E-1,4.499736500E-1,-1.287802470E-1,1.098131259E0
3.964324583E-1,-8.689974028E-1,2.412093401E-1,6.250001103E-1,1.097252737E0
4.065124583E-1,-7.553140819E-1,1.344836211E-1,1.043264894E0,1.294985269E0
4.165934583E-1,-7.188745263E-1,9.511139452E-2,8.751118362E-1,1.136506704E0
4.266744583E-1,-6.286832714E-1,7.409006953E-3,8.331633264E-1,1.043771372E0
4.367554583E-1,-4.816667283E-1,-9.739765584E-2,7.663039237E-1,9.103355667E-1
4.468354583E-1,-3.342882425E-1,5.623267293E-3,3.978667724E-1,5.196905029E-1
4.569164583E-1,-2.254996258E-1,1.713590866E-1,3.225733459E-2,2.850518434E-1
4.669974583E-1,-1.475062475E-1,3.072530562E-1,-1.245369226E-1,3.628663372E-1
4.770774583E-1,-7.000286579E-3,3.313242888E-1,-1.998461366E-1,3.869925926E-1
4.871584583E-1,1.046189672E-1,3.765694588E-1,-1.925733697E-1,4.356996538E-1
4.972394583E-1,1.997068267E-1,4.194582009E-1,-3.620157391E-1,5.889680758E-1
5.073194583E-1,3.984263510E-1,9.138730288E-2,-5.371170437E-1,6.749740106E-1
5.174004583E-1,6.382268044E-1,-3.065636694E-1,-1.808953106E-1,7.307789342E-1
5.274814583E-1,8.419528610E-1,-6.294656289E-1,2.889822614E-1,1.090239582E0
5.375624583E-1,8.296506116E-1,-8.508195788E-1,4.902241284E-1,1.285509156E0
5.476429583E-1,8.486414909E-1,-7.772323698E-1,3.412633860E-1,1.200309641E0
5.577239583E-1,9.307220730E-1,-6.111655980E-1,-5.868616462E-2,1.114993736E0
5.678049583E-1,8.641868985E-1,-4.380652106E-1,-4.263310182E-1,1.058526458E0
5.778849583E-1,8.550373216E-1,-2.567389601E-1,-5.544733340E-1,1.050925494E0
5.879659583E-1,8.774779120E-1,-1.031156480E-2,-5.014116061E-1,1.010686605E0
5.980469583E-1,8.516259098E-1,4.117246735E-1,-6.060481149E-1,1.123422545E0
6.081269583E-1,9.108813009E-1,6.855228853E-1,-6.615931553E-1,1.318086444E0
6.182079583E-1,9.141519409E-1,6.379704040E-1,-5.713378733E-1,1.252640001E0
6.282889583E-1,7.008557466E-1,3.627454716E-1,-2.946903133E-1,8.423926848E-1
6.383699583E-1,3.418706194E-2,-2.673820621E-1,2.469477975E-1,3.655750771E-1
6.484499583E-1,-2.742636502E-1,-8.761824614E-1,9.357129639E-1,1.310906178E0
6.585309583E-1,2.039786562E-2,-1.111517689E0,1.322966455E0,1.728041633E0
6.686119583E-1,1.116788954E-1,-1.081372368E0,1.330500593E0,1.718158957E0
6.786919583E-1,-5.466225699E-2,-8.074238831E-1,1.075036910E0,1.345594905E0
6.887729583E-1,-1.863858461E-2,-1.560808969E-1,3.286813474E-1,3.643351085E-1
6.988539583E-1,1.899881695E-1,5.338338321E-1,-6.897282028E-1,8.926360169E-1
7.089349583E-1,4.285200696E-1,9.921988213E-1,-1.422457999E0,1.786469902E0
7.190149583E-1,6.338184424E-1,9.825403905E-1,-1.364616172E0,1.797022185E0
7.290959583E-1,6.330689755E-1,6.390474612E-1,-7.292852014E-1,1.158021973E0
7.391769583E-1,4.915197252E-1,3.668326753E-1,-3.256904966E-1,6.944293711E-1
7.492569583E-1,5.898359786E-1,2.752120686E-1,-3.309652698E-1,7.301959834E-1
7.593379583E-1,9.448232183E-1,1.097107226E-1,-2.774924827E-1,9.908226049E-1
7.694189583E-1,8.513655625E-1,-4.307059050E-3,-1.432860196E-1,8.633497294E-1
7.794989583E-1,5.540815705E-1,-1.121355629E-1,-1.646757191E-1,5.888113991E-1
7.895799583E-1,1.032567121E-1,-6.770315588E-2,-5.004058850E-1,5.154141205E-1
7.996609583E-1,-3.046796966E-1,1.266857743E-1,-1.183738403E0,1.228867613E0
8.097409583E-1,2.046832457E-1,4.439241207E-1,-1.789079590E0,1.854661596E0
8.198219583E-1,7.349013059E-1,5.837339705E-1,-2.016829809E0,2.224506183E0
8.299029583E-1,6.073865426E-1,5.492962092E-1,-1.942975967E0,2.108506662E0
8.399839583E-1,6.632381232E-1,5.485682309E-1,-1.829670376E0,2.022005341E0
8.500639583E-1,8.245437996E-1,4.719930947E-1,-1.881792457E0,2.108030552E0
8.601449583E-1,7.410544771E-1,3.298519599E-1,-1.859462525E0,2.028685519E0
8.702259583E-1,4.435528225E-1,3.069408149E-1,-1.617220566E0,1.704803253E0
8.803059583E-1,1.289357829E-1,3.865939254E-1,-1.262673476E0,1.326809559E0
8.903869583E-1,-2.371651134E-1,4.669539642E-1,-1.159240909E0,1.272058481E0
9.004679583E-1,-4.287669683E-1,4.842979753E-1,-8.241334713E-1,1.047655297E0
9.105489583E-1,-3.311134967E-1,6.821010947E-1,-3.637359899E-1,8.409529841E-1
9.206289583E-1,2.438033111E-1,9.347768247E-1,3.619332933E-1,1.031621770E0
9.307099583E-1,6.542502218E-1,1.188102765E0,9.562548172E-1,1.659534516E0
9.407909583E-1,8.015331057E-1,1.246917568E0,1.289366015E0,1.964617892E0
9.508709583E-1,6.396099633E-1,1.106515396E0,1.396837839E0,1.893312751E0
9.609519583E-1,3.867298731E-1,1.170379270E0,1.112201813E0,1.660223028E0
9.710329583E-1,-1.483500007E-1,1.224718614E0,4.520260227E-1,1.313876300E0
9.811129583E-1,-2.650900997E-1,1.113520945E0,-2.659278595E-1,1.175125220E0
9.911939583E-1,-1.102406265E-1,9.545181942E-1,-6.100101882E-1,1.138143404E0
1.001274958E0,-3.270944130E-1,7.230187404E-1,-3.723629719E-1,8.765848715E-1
1.011355958E0,-3.822348261E-1,7.216715419E-1,-2.018985093E-1,8.412349759E-1
1.021435958E0,-2.200549909E-1,8.837785792E-1,-4.549952388E-2,9.118985595E-1
1.031516958E0,-3.979117960E-2,9.373800051E-1,-9.494240999E-2,9.430157333E-1
1.041597958E0,3.796787158E-2,1.000869073E0,-6.593998647E-1,1.199161641E0
1.051677958E0,2.290281281E-2,1.150495813E0,-1.642930773E0,2.005838149E0
1.061758958E0,-6.469651759E-3,1.264714739E0,-2.247768515E0,2.579148798E0
1.071839958E0,-5.398558795E-2,1.233261396E0,-2.260887913E0,2.575939104E0
1.081919958E0,-3.817076996E-2,1.103219905E0,-1.908300809E0,2.204577770E0
1.092000958E0,5.308687091E-3,9.252177966E-1,-1.247977084E0,1.553545286E0
1.102081958E0,7.108489305E-2,6.589075291E-1,-6.604184496E-1,9.356092788E-1
1.112162958E0,1.561694822E-1,4.199259782E-1,-3.784236109E-1,5.864564465E-1
1.122242958E0,1.111982542E-1,2.415356147E-1,-3.800485522E-1,4.638333827E-1
1.132323958E0,-8.762520432E-2,1.079051024E-1,-6.146932232E-1,6.302138099E-1
1.142404958E0,-1.206698665E-1,1.876032364E-1,-1.190301318E0,1.211021643E0
1.152484958E0,-2.499599907E-1,3.398179543E-1,-1.657627750E0,1.710463679E0
1.162565958E0,-3.251586923E-1,4.761147970E-1,-1.847764585E0,1.935625851E0
1.172646958E0,-3.003094876E-1,4.080286485E-1,-1.805445362E0,1.875181623E0
1.182726958E0,-1.779179084E-1,1.721689260E-1,-1.680251212E0,1.698393670E0
1.192807958E0,8.328744739E-2,-1.832102233E-1,-1.531843032E0,1.545006750E0
1.202888958E0,4.165819556E-1,-6.625228626E-1,-1.296251696E0,1.514181472E0
1.212969958E0,7.574237573E-1,-9.593485790E-1,-1.224203475E0,1.729946413E0
1.223049958E0,8.809783477E-1,-9.393756598E-1,-1.587069983E0,2.043854352E0
1.233130958E0,7.962834755E-1,-7.253552878E-1,-2.199200957E0,2.448814512E0
1.243211958E0,6.417661241E-1,-4.471634781E-1,-2.812033011E0,2.918792317E0
1.253291958E0,5.261307102E-1,-2.436224860E-1,-2.722213347E0,2.783273423E0
1.263372958E0,2.094607133E-1,-3.560749680E-1,-1.659531019E0,1.710177294E0
1.273453958E0,-2.121323061E-1,-7.255681264E-1,-5.666536689E-2,7.580634440E-1
1.283533958E0,-5.639545941E-1,-1.122363689E0,1.087989078E0,1.661765708E0
1.293614958E0,-8.102059883E-1,-1.436916994E0,1.380314777E0,2.150914474E0
1.303695958E0,-9.662249047E-1,-1.625407838E0,1.345755394E0,2.320904734E0
1.313776958E0,-1.052515774E0,-1.442554294E0,1.069734070E0,2.081605949E0
1.323856958E0,-1.149783330E0,-1.049965219E0,7.968374991E-1,1.749107963E0
1.333937958E0,-1.178970584E0,-5.206226331E-1,7.247460079E-1,1.478606215E0
1.344018958E0,-9.596976578E-1,-1.475246662E-1,8.922921252E-1,1.318699495E0
1.354098958E0,-6.518841460E-1,3.623051763E-2,1.280981693E0,1.437768996E0
1.364179958E0,-3.552475870E-1,6.334522605E-2,1.714942743E0,1.752495956E0
1.374260958E0,-3.156800634E-1,-1.863805836E-1,2.169449739E0,2.200205398E0
1.384340958E0,-5.394015509E-1,-5.056408972E-1,2.275056301E0,2.392176399E0
1.394421958E0,-5.995039111E-1,-7.132644153E-1,2.206481325E0,2.395143191E0
1.404502958E0,-6.163137791E-1,-9.135520166E-1,2.040260187E0,2.318853508E0
1.414582958E0,-6.464526674E-1,-1.009578500E0,1.565053462E0,1.971431495E0
1.424663958E0,-6.737571180E-1,-9.427828324E-1,1.131981189E0,1.619928868E0
1.434744958E0,-7.915641877E-1,-7.338185477E-1,1.020850178E0,1.485664367E0
1.444825958E0,-7.062226135E-1,-4.840605783E-1,1.170260571E0,1.450025802E0
1.454905958E0,-5.132659587E-1,-4.688759440E-1,1.443217369E0,1.601924770E0
1.464986958E0,-3.602604049E-1,-5.348927629E-1,1.578446510E0,1.705107390E0
1.475067958E0,-5.260213673E-2,-5.080090195E-1,1.379154689E0,1.470682769E0
1.485147958E0,2.675279501E-1,-5.308149147E-1,1.139909429E0,1.285585152E0
1.495228958E0,3.657570800E-1,-7.478308153E-1,8.332276458E-1,1.177835931E0
1.505309958E0,3.884390143E-1,-8.646154994E-1,2.016657901E-1,9.690789031E-1
1.515389958E0,3.403222767E-1,-7.882374144E-1,-5.301728904E-1,1.009069258E0
1.525470958E0,3.652629903E-1,-6.374073172E-1,-8.707217467E-1,1.139237245E0
1.535551958E0,1.884715480E-1,-6.286300617E-1,-5.654508966E-1,8.662747805E-1
1.545632958E0,9.089613676E-2,-7.393079138E-1,1.240211982E-1,7.551288345E-1
1.555712708E0,4.079017639E-2,-9.444206375E-1,7.344360137E-1,1.197075786E0
1.565793708E0,7.268498361E-2,-1.147545893E0,1.091868120E0,1.585660958E0
1.575874708E0,2.000873342E-1,-1.279036909E0,1.245838757E0,1.796687108E0
1.585954708E0,3.969820887E-1,-1.328002077E0,1.257492258E0,1.871488999E0
1.596035708E0,6.418851149E-1,-1.198937656E0,8.166291547E-1,1.586301100E0
1.606116708E0,8.117119387E-1,-9.046239030E-1,2.247003114E-1,1.236006030E0
1.616196708E0,9.249114025E-1,-5.674079597E-1,-3.626677036E-2,1.085692486E0
1.626277708E0,9.329916698E-1,-2.316380328E-1,-1.560645247E-1,9.739023411E-1
1.636358708E0,9.407754833E-1,-1.230236632E-1,-1.077823108E-1,9.548876154E-1
1.646439708E0,9.306817272E-1,-1.861133659E-1,4.472535253E-3,9.491188893E-1
1.656519708E0,9.037424353E-1,-3.305477786E-1,2.844980317E-1,1.003469657E0
1.666600708E0,7.210868204E-1,-4.796734124E-1,3.953787822E-1,9.520384270E-1
1.676681708E0,4.455046231E-1,-5.563040972E-1,4.662154609E-1,8.516486797E-1
1.686761708E0,2.552660465E-1,-5.240602112E-1,4.406245369E-1,7.307187160E-1
1.696842708E0,7.342816472E-2,-2.583802736E-1,-3.806636792E-1,4.658936551E-1
1.706923708E0,1.333282113E-2,1.825477338E-1,-1.500951607E0,1.512070489E0
1.717003708E0,4.602577329E-2,4.401088125E-1,-1.976848887E0,2.025770387E0
1.727084708E0,2.068160176E-1,5.846122223E-1,-2.104980678E0,2.194422013E0
1.737165708E0,1.394163322E-1,6.154100919E-1,-1.897148999E0,1.999335094E0
1.747245708E0,-1.487037572E-1,4.976997936E-1,-1.504688562E0,1.591824601E0
1.757326708E0,-1.953326708E-1,1.291451132E-1,-1.381580699E0,1.401284604E0
1.767407708E0,-6.334844202E-1,-3.641295075E-1,-1.456747241E0,1.629725539E0
1.777488708E0,-9.812873322E-1,-7.343377805E-1,-1.264870275E0,1.761270455E0
1.787568708E0,-1.285272380E0,-9.646993661E-1,-6.853971702E-1,1.747094513E0
1.797649708E0,-1.666165854E0,-7.185456204E-1,2.984605980E-1,1.838884225E0
1.807730708E0,-1.342731214E0,-4.965630949E-2,5.725277817E-1,1.460541311E0
1.817810708E0,-8.551351163E-1,4.926729423E-1,-5.298805296E-2,9.883270860E-1
1.827891708E0,-7.635465230E-1,7.393880206E-1,-5.677956301E-1,1.205026894E0
1.837972708E0,-1.040473141E0,9.262428135E-1,-9.912053794E-1,1.709677809E0
1.848052708E0,-1.062719458E0,8.361635327E-1,-1.330391834E0,1.896967193E0
1.858133708E0,-4.407423583E-1,6.085934079E-1,-1.587099220E0,1.755996496E0
1.868214708E0,-1.851789808E-1,4.410882211E-1,-1.780537977E0,1.843682609E0
1.878294708E0,-5.959021725E-1,4.610435987E-1,-1.873029819E0,2.018886154E0
1.888375708E0,-1.108854501E0,5.158688468E-1,-1.806839923E0,2.181822513E0
1.898456708E0,-1.729531253E0,5.577179539E-1,-1.775425172E0,2.540563365E0
1.908537708E0,-1.788676717E0,6.732074797E-1,-1.802069764E0,2.626790464E0
1.918617708E0,-1.653510725E0,9.001882052E-1,-1.009934011E0,2.136446403E0
1.928698708E0,-1.315107213E0,9.314994603E-1,-1.215226829E-2,1.611628339E0
1.938779708E0,-1.039110448E0,7.919977587E-1,2.841395974E-1,1.337066297E0
1.948859708E0,-8.683545014E-1,6.811649555E-1,-2.518775851E-1,1.132019238E0
1.958940708E0,-8.001420531E-1,5.984379637E-1,-7.475671059E-1,1.247882959E0
1.969021708E0,-8.655916920E-1,3.503271550E-1,-3.227534401E-1,9.880019615E-1
1.979101708E0,-5.818564296E-1,3.461434722E-2,7.317030251E-1,9.354915150E-1
1.989182708E0,-4.353105873E-2,-3.141562790E-1,1.546352897E0,1.578542493E0
1.999263708E0,4.706662884E-1,-4.150838989E-1,2.273999709E0,2.359003195E0
2.009344708E0,8.769393834E-1,1.175524235E-1,2.681170571E0,2.823387484E0
2.019424708E0,7.844273686E-1,9.915819401E-1,2.588481093E0,2.880762991E0
2.029505708E0,6.126498406E-1,1.732832884E0,1.990984531E0,2.709625257E0
2.039586708E0,7.590869247E-1,1.931801353E0,2.565074104E-1,2.091378846E0
2.049666708E0,1.041086514E0,2.041251875E0,-8.206461918E-1,2.433933138E0
2.059747708E0,1.514994280E0,2.185333700E0,-8.242995322E-1,2.783946976E0
2.069828708E0,1.952288535E0,2.145372659E0,-3.532256198E-1,2.922126402E0
2.079908708E0,2.155416714E0,1.785264282E0,2.416864729E-1,2.809163953E0
2.089989708E0,1.819043646E0,1.188858810E0,8.797901934E-1,2.344426549E0
2.100070708E0,1.667228732E0,6.288674587E-1,1.631388955E0,2.415896489E0
2.110150708E0,1.902859682E0,3.227271277E-1,2.259138426E0,2.971318595E0
2.120231708E0,2.320808717E0,1.623081815E-1,2.444444876E0,3.374582611E0
2.130312708E0,2.769827809E0,3.318183786E-1,2.732992104E0,3.905290689E0
2.140393708E0,3.151474405E0,4.029257834E-1,3.135826086E0,4.464027930E0
2.150473708E0,3.420974913E0,5.737287998E-2,3.232040851E0,4.706638829E0
2.160554708E0,3.504564954E0,-7.134041637E-1,2.990492957E0,4.661970521E0
2.170635708E0,3.031731322E0,-1.465639687E0,2.581458587E0,4.243044065E0
2.180715708E0,2.272473878E0,-1.658874961E0,1.796687987E0,3.338276709E0
2.190796708E0,1.694496930E0,-1.649176769E0,1.136528569E0,2.623509300E0
2.200877708E0,1.256300011E0,-1.595132709E0,8.712754780E-1,2.209492936E0
2.210957708E0,1.034323040E0,-1.373899212E0,4.567610979E-1,1.779340860E0
2.221038708E0,9.387251571E-1,-1.036920666E0,-2.819217485E-1,1.426845913E0
2.231119708E0,8.825350226E-1,-6.453010583E-1,-7.046146291E-1,1.300678015E0
2.241199708E0,9.211431643E-1,-3.001790947E-1,-1.074590183E0,1.446843557E0
2.251280708E0,1.153750373E0,-1.193709075E-1,-1.394999474E0,1.814225143E0
2.261361708E0,1.658418732E0,6.458834410E-3,-1.680498549E0,2.361031508E0
2.271442708E0,2.214368342E0,1.232195449E-1,-1.977120783E0,2.971130559E0
2.281522708E0,2.431829508E0,6.294235289E-2,-2.053752052E0,3.183654188E0
2.291603708E0,2.237604007E0,-2.337097013E-1,-1.786598616E0,2.872877744E0
2.301684708E0,1.931111966E0,-7.130340350E-1,-1.253564683E0,2.410194054E0
2.311764708E0,1.361142488E0,-1.023137609E0,-1.042521713E0,1.996589833E0
2.321845708E0,7.249766806E-1,-8.358887136E-1,-1.164539655E0,1.606379077E0
2.331926708E0,1.920541370E-1,-4.104774624E-1,-1.249818372E0,1.329444434E0
2.342006708E0,-3.518503547E-2,-9.467226863E-2,-1.542473854E0,1.545776962E0
2.352087708E0,2.055734843E-2,8.813391209E-2,-1.866276285E0,1.868469257E0
2.362168708E0,1.892319784E-1,3.048042423E-1,-2.027493961E0,2.058991532E0
2.372248708E0,3.690036003E-1,4.688934857E-1,-1.825544873E0,1.920582943E0
2.382329708E0,2.874304104E-1,3.466580272E-1,-1.488679763E0,1.555299156E0
2.392410708E0,2.465332299E-2,9.339289784E-2,-1.434481921E0,1.437730295E0
2.402491708E0,1.181223808E-1,-4.948118538E-1,-1.367806413E0,1.459344391E0
2.412571708E0,1.302176388E-1,-1.266002880E0,-1.103188330E0,1.684263761E0
2.422652708E0,-1.223987420E-1,-1.646128616E0,-8.857742339E-1,1.873317075E0
2.432733708E0,-1.369973391E-1,-1.415624358E0,-8.958735448E-1,1.680877748E0
2.442813708E0,9.291488796E-2,-1.154962501E0,-1.012203900E0,1.538547461E0
2.452894708E0,3.720863986E-1,-8.192288268E-1,-1.334473191E0,1.609472850E0
2.462975708E0,6.755653694E-1,-5.177452183E-1,-1.231208147E0,1.496770583E0
2.473055708E0,6.834494627E-1,-2.844530082E-1,-6.088085854E-1,9.584699137E-1
2.483136708E0,6.013299966E-1,-1.134774989E-1,-1.605566481E-1,6.326557870E-1
2.493217708E0,3.528838500E-1,-1.332399184E-1,-4.026506719E-1,5.517313214E-1
2.503297708E0,3.840635428E-1,-5.531927937E-1,-1.068843832E0,1.263310812E0
2.513378708E0,2.761885536E-1,-6.785875028E-1,-8.288624069E-1,1.106243195E0
2.523459708E0,-1.477094382E-1,-4.857358056E-1,-9.108637592E-1,1.042799184E0
2.533540708E0,2.749477744E-2,-4.800640064E-1,-9.759271896E-1,1.087957395E0
2.543620708E0,4.212451100E-2,-4.998404592E-1,-1.023122406E0,1.139471113E0
2.553702083E0,4.873274177E-2,-2.045835507E-1,-1.053438173E0,1.074225904E0
2.563783083E0,3.216483164E-1,1.199258083E-1,-9.757409558E-1,1.034364661E0
2.573863083E0,5.100081825E-1,1.831318706E-1,-8.303052074E-1,9.914899726E-1
2.583944083E0,9.147191209E-1,3.271201408E-1,-5.194245386E-1,1.101599069E0
2.594025083E0,1.102321188E0,6.265484530E-1,-2.653413838E-1,1.295407664E0
2.604105083E0,1.037060122E0,1.012885101E0,-3.064692369E-1,1.481672473E0
2.614186083E0,9.702483737E-1,1.107179055E0,-4.326498118E-1,1.534409732E0
2.624267083E0,9.601581261E-1,8.848953974E-1,-4.595829642E-1,1.384254309E0
2.634348083E0,8.402174073E-1,4.682321656E-1,-5.600585943E-1,1.113046397E0
2.644428083E0,6.406060365E-1,1.396946597E-1,-4.926162243E-1,8.200984309E-1
2.654509083E0,5.210196590E-1,-4.302907526E-2,-2.548181498E-1,5.815885796E-1
2.664590083E0,3.816536129E-1,-1.320769072E-2,-1.220313907E-3,3.818840301E-1
2.674670083E0,2.591901129E-1,2.673656899E-1,1.111275029E-1,3.886042314E-1
2.684751083E0,2.053504130E-1,4.948352426E-1,1.466733116E-1,5.554671636E-1
2.694832083E0,1.029080719E-1,5.425245488E-1,2.662237287E-2,5.528396766E-1
2.704912083E0,1.500570953E-2,5.469713563E-1,-5.130387944E-1,7.500744233E-1
2.714993083E0,2.583109841E-1,6.326652253E-1,-1.007035546E0,1.217008810E0
2.725074083E0,1.502632096E-1,7.112558967E-1,-1.244551785E0,1.441309519E0
2.735154083E0,1.170223734E-1,5.266037500E-1,-5.481750056E-1,7.690914004E-1
2.745235083E0,1.346765792E-1,5.842999810E-1,-8.155930281E-2,6.051414452E-1
2.755316083E0,4.103885847E-1,5.874288261E-1,-3.400506735E-2,7.173895461E-1
2.765396083E0,9.252499563E-1,2.734666747E-1,1.678911030E-2,9.649628894E-1
2.775477083E0,1.332474905E0,2.642181337E-2,9.826245904E-2,1.336354367E0
2.785558083E0,1.640521136E0,1.273383236E-1,-1.631706458E-1,1.653526324E0
2.795639083E0,1.785852804E0,1.290837175E-1,-5.330064511E-1,1.868161856E0
2.805719083E0,1.773332161E0,-2.789180338E-2,-9.114280155E-1,1.994037596E0
2.815800083E0,1.634423367E0,-2.200172764E-1,-9.522202384E-1,1.904329469E0
2.825881083E0,1.215182683E0,-4.308158326E-1,-8.215677130E-1,1.528805004E0
2.835961083E0,6.579111636E-1,-6.227179420E-1,-8.360971668E-1,1.232754317E0
2.846042083E0,2.454047173E-1,-7.743894535E-1,-8.359273052E-1,1.165622992E0
2.856123083E0,-1.512557745E-2,-8.420692205E-1,-6.471359146E-1,1.062117812E0
2.866203083E0,-2.826415408E-1,-7.960604042E-1,-3.346773747E-1,9.086293814E-1
2.876284083E0,-3.665251118E-1,-6.558985519E-1,-1.635583162E-2,7.515391415E-1
2.886365083E0,-3.006021407E-1,-4.960052705E-1,2.039190146E-1,6.147892646E-1
2.896445083E0,2.116896719E-2,-4.193897885E-1,3.759826908E-1,5.636478543E-1
2.906526083E0,4.671147627E-1,-3.788995743E-1,5.541961759E-1,8.178597009E-1
2.916607083E0,7.978739181E-1,-1.565083283E-1,4.796026611E-1,9.439895967E-1
2.926688083E0,1.002604526E0,1.276874024E-1,2.657512736E-1,1.045056768E0
2.936768083E0,1.116110969E0,2.946458745E-1,1.976484606E-1,1.171146788E0
2.946849083E0,1.024662855E0,4.599080694E-1,4.533442774E-1,1.211185548E0
2.956930083E0,6.076657471E-1,5.509825462E-1,5.774882671E-1,1.003161066E0
2.967010083E0,2.377565593E-2,3.748357594E-1,4.192108637E-1,5.628542232E-1
2.977091083E0,-4.940476227E-1,5.987724245E-2,1.815490294E-1,5.297437000E-1
2.987172083E0,-8.730077156E-1,-1.968821830E-1,-3.140393347E-2,8.954838204E-1
2.997252083E0,-1.066851101E0,-2.030568427E-1,-1.198410237E-1,1.092595636E0
3.007333083E0,-1.180566874E0,-6.694711089E-2,-2.286729097E-1,1.204371769E0
3.017414083E0,-1.250332050E0,-1.501448035E-2,-3.199894613E-1,1.290716439E0
3.027494083E0,-1.297746245E0,-1.809631383E-1,-3.806040376E-1,1.364460482E0
3.037575083E0,-1.407903402E0,-3.911395508E-1,-3.650130218E-1,1.506126371E0
3.047656083E0,-1.595996635E0,-4.682690030E-1,-2.894968164E-1,1.688280050E0
3.057736083E0,-1.833377511E0,-3.054334027E-1,-3.176485285E-1,1.885593606E0
3.067817083E0,-1.942883581E0,2.250417888E-2,-4.224572378E-1,1.988409708E0
3.077898083E0,-1.905550278E0,3.956845915E-1,-5.732598531E-1,2.028870380E0
3.087979083E0,-1.826575153E0,7.684896129E-1,-6.964226800E-1,2.100466049E0
3.098059083E0,-1.395862523E0,1.067731984E0,-9.095998836E-1,1.978852122E0
3.108140083E0,-6.074219182E-1,1.148796612E0,-8.024742150E-1,1.527304786E0
3.118221083E0,1.206470624E-1,1.132105735E0,-5.107338220E-1,1.247825367E0
3.128301083E0,6.922489375E-1,1.125523524E0,-5.852729577E-1,1.445183805E0
3.138382083E0,1.103360530E0,1.021821401E0,-9.540407690E-1,1.780931561E0
3.148463083E0,1.245072772E0,6.191505557E-1,-9.508221692E-1,1.684522608E0
3.158543083E0,1.154669848E0,1.830745679E-1,-7.657060459E-1,1.397527997E0
3.168624083E0,8.430746493E-1,-8.263402104E-2,-5.346676451E-1,1.001734863E0
3.178705083E0,3.234001422E-1,-1.706381249E-1,-5.105426180E-1,6.279799252E-1
3.188786083E0,-8.872828156E-2,-1.396777028E-1,-6.825557157E-1,7.023281809E-1
3.198866083E0,-4.311514628E-1,-9.549672604E-3,-1.155326782E0,1.233192100E0
3.208947083E0,-7.382311490E-1,3.104754567E-1,-1.783937548E0,1.955457342E0
3.219028083E0,-9.472781718E-1,5.914505410E-1,-2.001502503E0,2.291977737E0
3.229108083E0,-1.152091810E0,8.196357930E-1,-1.724467272E0,2.230001288E0
3.239189083E0,-1.266364531E0,9.812931794E-1,-1.258859045E0,2.037484116E0
3.249270083E0,-1.219839113E0,8.522293425E-1,-7.860645890E-1,1.682914095E0
3.259350083E0,-1.228940304E0,5.241151750E-1,-1.475936633E-1,1.344163263E0
3.269431083E0,-1.496949188E0,2.567974323E-1,5.702473676E-1,1.622339006E0
3.279512083E0,-1.777562914E0,3.007012510E-1,1.308477347E0,2.227613998E0
3.289592083E0,-1.894568330E0,5.453312123E-1,1.685310515E0,2.593655109E0
3.299673083E0,-1.933773619E0,8.238960743E-1,1.566418787E0,2.621441010E0
3.309754083E0,-1.940938212E0,9.613892573E-1,1.051473508E0,2.407718212E0
3.319834083E0,-2.050322660E0,9.592667180E-1,5.053520447E-1,2.319352568E0
3.329915083E0,-2.064925204E0,1.192758318E0,1.066070205E-1,2.387038659E0
3.339996083E0,-2.146767805E0,1.684968746E0,-3.285544628E-1,2.748759669E0
3.350077083E0,-2.163510430E0,1.875757545E0,-7.808123276E-1,2.967981071E0
3.360157083E0,-2.145414759E0,1.851200409E0,-9.856283051E-1,3.000201759E0
3.370238083E0,-2.252641877E0,1.851275838E0,-8.309560025E-1,3.031848534E0
3.380319083E0,-2.454349767E0,1.776399318E0,-5.468105578E-1,3.078705751E0
3.390399083E0,-2.698510781E0,1.695351647E0,-1.923745644E-1,3.192676873E0
3.400480083E0,-2.824281759E0,1.693282317E0,1.066128677E-1,3.294713760E0
3.410561083E0,-2.685775253E0,1.653843432E0,4.095176420E-1,3.180611813E0
3.420641083E0,-2.475501485E0,1.440131208E0,7.803553677E-1,2.968339603E0
3.430722083E0,-2.246285076E0,1.121909945E0,1.151537202E0,2.762338954E0
3.440803083E0,-1.940332441E0,8.628209889E-1,1.471712020E0,2.583657545E0
3.450883083E0,-1.859983219E0,5.075307173E-1,1.646332976E0,2.535258818E0
3.460964083E0,-2.106484582E0,2.105594051E-1,1.722868643E0,2.729448464E0
3.471045083E0,-2.699807986E0,3.351068527E-1,1.793127910E0,3.258307454E0
3.481126083E0,-3.147888308E0,8.020327502E-1,1.702251946E0,3.667440390E0
3.491206083E0,-3.236625945E0,1.234605086E0,1.491164537E0,3.771414708E0
3.501287083E0,-2.980118242E0,1.345705692E0,1.181163874E0,3.476661710E0
3.511368083E0,-2.607493899E0,1.273339967E0,7.849831465E-1,3.006096746E0
3.521448083E0,-2.418437776E0,1.321920388E0,8.389351130E-2,2.757417798E0
3.531529083E0,-2.140814754E0,1.303929675E0,-4.210954213E-1,2.541779252E0
3.541610083E0,-1.449331656E0,1.026217922E0,-1.857786128E-1,1.785552902E0
3.551689750E0,-3.385087627E-1,5.012285882E-1,8.503126252E-1,1.043479679E0
3.561770750E0,9.132239878E-1,-4.205726802E-2,2.450258178E0,2.615246069E0
3.571851750E0,1.885913282E0,-1.090084720E-1,3.817051853E0,4.258924348E0
3.581931750E0,2.428991416E0,1.971301049E-1,4.181371980E0,4.839703628E0
3.592012750E0,2.457894349E0,4.654874825E-1,3.454050858E0,4.264784937E0
3.602093750E0,2.099420268E0,2.345125240E-1,2.690600960E0,3.420803285E0
3.612173750E0,1.572293485E0,-2.059126228E-1,2.045667107E0,2.588293013E0
3.622254750E0,1.264705968E0,-4.834197235E-1,1.261529760E0,1.850576437E0
3.632335750E0,1.189894644E0,-7.401335406E-1,2.716195393E-1,1.427383654E0
3.642416750E0,1.346282959E0,-1.061209999E0,-7.698520142E-1,1.879179765E0
3.652496750E0,1.904769529E0,-1.191747919E0,-1.790187052E0,2.872834792E0
3.662577750E0,2.462886409E0,-1.141777030E0,-2.656602910E0,3.798289519E0
3.672658750E0,2.920505294E0,-9.870176035E-1,-3.221009493E0,4.458526335E0
3.682738750E0,3.382707226E0,-9.672306257E-1,-3.237812052E0,4.781387889E0
3.692819750E0,3.783120168E0,-1.057098822E0,-2.557009040E0,4.686976782E0
3.702900750E0,3.838125218E0,-1.144671401E0,-1.507083582E0,4.279343259E0
3.712980750E0,3.581932388E0,-1.299509180E0,-6.260871077E-1,3.861469773E0
3.723061750E0,3.282627452E0,-1.508581054E0,-5.942174435E-1,3.661223041E0
3.733142750E0,3.259406697E0,-1.556012498E0,-1.220697484E0,3.812480722E0
3.743222750E0,3.292422708E0,-1.547439310E0,-1.852696127E0,4.082535810E0
3.753303750E0,3.321354146E0,-1.553493517E0,-1.965304145E0,4.160186997E0
3.763384750E0,3.494729353E0,-1.454846311E0,-1.694816042E0,4.147542942E0
3.773464750E0,3.677717674E0,-1.283983653E0,-1.249256455E0,4.090826689E0
3.783545750E0,3.442502022E0,-1.127682901E0,-7.721055311E-1,3.703867688E0
3.793626750E0,2.915375239E0,-9.332670736E-1,-5.989180201E-1,3.119151008E0
3.803707750E0,2.428033788E0,-8.496553981E-1,-6.782243907E-1,2.660310263E0
3.813787750E0,1.988217336E0,-9.502450490E-1,-9.704208666E-1,2.407839382E0
3.823868750E0,1.608532773E0,-1.126715772E0,-1.505328248E0,2.474445240E0
3.833949750E0,1.209553860E0,-1.136715095E0,-1.928377224E0,2.544362487E0
3.844029750E0,8.335881266E-1,-9.488996047E-1,-2.125306184E0,2.472287605E0
3.854110750E0,6.473043144E-1,-8.177769631E-1,-1.964964421E0,2.224600462E0
3.864191750E0,7.212293462E-1,-7.264422852E-1,-1.500576215E0,1.816485382E0
3.874271750E0,9.019360842E-1,-5.754157215E-1,-1.062746648E0,1.507986203E0
3.884352750E0,9.848938948E-1,-4.211579865E-1,-8.877640414E-1,1.391227885E0
3.894433750E0,1.138391199E0,-2.920836246E-1,-6.948714137E-1,1.365318149E0
3.904513750E0,1.274400505E0,-2.915953821E-1,-4.553080648E-1,1.384351815E0
3.914594750E0,1.239756483E0,-1.849123478E-1,-3.552826703E-1,1.302848606E0
3.924675750E0,1.126247848E0,1.827021003E-2,-4.393059897E-1,1.209031748E0
3.934755750E0,1.003601038E0,2.572570235E-1,-4.847786164E-1,1.143855990E0
3.944836750E0,9.477560355E-1,5.122435731E-1,-5.318077719E-1,1.201438507E0
3.954917750E0,8.992123049E-1,6.418243039E-1,-6.738424873E-1,1.294057535E0
3.964998750E0,8.037639646E-1,7.016956991E-1,-8.192802823E-1,1.345226206E0
3.975078750E0,7.075420377E-1,8.001756746E-1,-8.839978498E-1,1.386488025E0
3.985159750E0,6.510292831E-1,9.402936727E-1,-9.813943362E-1,1.507025601E0
3.995240750E0,4.805928871E-1,1.023401318E0,-1.066821572E0,1.554486426E0
4.005320750E0,3.576481614E-1,1.058341355E0,-1.052757264E0,1.535023286E0
4.015401750E0,3.178841713E-1,1.091241884E0,-1.005501237E0,1.517528231E0
4.025482750E0,2.083368784E-1,1.033091909E0,-8.888253111E-1,1.378656440E0
4.035562750E0,1.186277264E-1,1.041344084E0,-6.967203033E-1,1.258526607E0
4.045643750E0,9.454012156E-2,1.127087654E0,-5.790719855E-1,1.270664700E0
4.055724750E0,8.576959044E-2,1.163603516E0,-5.391951442E-1,1.285325239E0
4.065804750E0,6.952982605E-2,1.106540539E0,-7.102864283E-1,1.316728207E0
4.075885750E0,7.977721766E-2,1.045215526E0,-9.568021166E-1,1.419263961E0
4.085966750E0,1.246819335E-1,1.026447133E0,-9.468571723E-1,1.402026321E0
4.096046750E0,1.036494988E-1,8.760877365E-1,-8.396309316E-1,1.217888764E0
4.106127750E0,1.275273348E-1,6.189096504E-1,-7.991845715E-1,1.018826951E0
4.116208750E0,1.352151078E-1,3.497851181E-1,-6.866712785E-1,7.824002805E-1
4.126289750E0,1.766359064E-1,2.789262199E-1,-2.601566577E-1,4.203350641E-1
4.136369750E0,2.633344732E-1,3.405780923E-1,3.396741128E-1,5.483766814E-1
4.146450750E0,3.024331963E-1,4.499052376E-1,6.831617796E-1,8.721184427E-1
4.156531750E0,3.056839558E-1,5.830732352E-1,5.937835801E-1,8.865641648E-1
4.166611750E0,3.296307890E-1,5.913809592E-1,2.309287655E-1,7.153432677E-1
4.176692750E0,5.634239593E-1,5.320504314E-1,-1.557885361E-1,7.904393003E-1
4.186773750E0,8.708492160E-1,4.941879559E-1,-3.299829376E-1,1.054271707E0
4.196853750E0,1.038703189E0,4.637444276E-1,-3.570514530E-1,1.192245339E0
4.206934750E0,1.169008975E0,4.816193658E-1,-5.232889634E-1,1.368345912E0
4.217015750E0,1.237903208E0,3.780488044E-1,-6.150615978E-1,1.433047808E0
4.227095750E0,1.257833151E0,1.503734297E-1,-5.715477884E-1,1.389756553E0
4.237176750E0,1.237272148E0,-1.344614017E-1,-6.021696568E-1,1.382581112E0
4.247257750E0,1.198378662E0,-4.536954027E-1,-5.471783477E-1,1.393325188E0
4.257337750E0,1.169854628E0,-7.088357341E-1,-4.287429947E-1,1.433467302E0
4.267418750E0,1.177459809E0,-8.584449327E-1,-1.762070131E-1,1.467783437E0
4.277499750E0,1.200933603E0,-8.795756006E-1,2.052735221E-1,1.502674940E0
4.287580750E0,1.202397746E0,-8.245287430E-1,4.454601842E-1,1.524481145E0
4.297660750E0,1.152765117E0,-8.253935462E-1,4.350269973E-1,1.483034190E0
4.307741750E0,1.266759364E0,-7.610285658E-1,2.969736511E-1,1.507327806E0
4.317822750E0,1.598273687E0,-6.197808856E-1,2.601437938E-1,1.733863293E0
4.327902750E0,1.951200514E0,-5.285076034E-1,1.719087249E-1,2.028806630E0
4.337983750E0,2.260396893E0,-5.151104629E-1,-4.585386515E-3,2.318351554E0
4.348064750E0,2.577274320E0,-5.719834059E-1,1.515288395E-1,2.644327688E0
4.358144750E0,2.771616180E0,-5.645013088E-1,6.623591405E-1,2.905036593E0
4.368225750E0,2.740335038E0,-5.820499724E-1,1.084731009E0,3.004140418E0
4.378306750E0,2.574267097E0,-7.333993024E-1,1.315167439E0,2.982346562E0
4.388386750E0,2.349240364E0,-9.717329818E-1,1.513087503E0,2.958484252E0
4.398467750E0,2.012076607E0,-1.209831018E0,1.546313721E0,2.811268306E0
4.408548750E0,1.653430765E0,-1.333807193E0,1.436637497E0,2.564527680E0
4.418628750E0,1.423592797E0,-1.285669405E0,1.192884618E0,2.258879365E0
4.428709750E0,1.491564633E0,-9.945353687E-1,7.744982117E-1,1.952873046E0
4.438790750E0,1.735285060E0,-6.172385162E-1,2.727392811E-1,1.861876564E0
4.448871750E0,1.965724852E0,-3.764992923E-1,-3.892491460E-3,2.001459733E0
4.458951750E0,2.032915207E0,-1.601546520E-1,-2.134105074E-1,2.050350652E0
4.469032750E0,2.052485253E0,-2.875192881E-2,-3.699182510E-1,2.085752118E0
4.479113750E0,2.085839233E0,-7.399475992E-2,-4.174145991E-1,2.128481965E0
4.489193750E0,2.100930165E0,-1.746697801E-1,-4.055517679E-1,2.146832394E0
4.499274750E0,2.140556600E0,-2.949750727E-1,-3.912243354E-1,2.195916513E0
4.509355750E0,2.171705156E0,-3.171640867E-1,-3.300916958E-1,2.219427149E0
4.519435750E0,2.157634563E0,-2.991295195E-1,-1.564305604E-1,2.183880925E0
4.529516750E0,2.218923615E0,-2.660401261E-1,1.250076234E-2,2.234850247E0
4.539597750E0,2.198433948E0,-2.574745399E-1,3.037780559E-1,2.234208153E0
4.549677750E0,2.143941553E0,-2.661102927E-1,5.379491025E-1,2.226362349E0
4.559758833E0,1.986235422E0,-3.419229519E-1,5.535331017E-1,2.090081662E0
4.569839833E0,1.748068681E0,-4.805931795E-1,4.267309678E-1,1.862475030E0
4.579919833E0,1.557474155E0,-5.911494094E-1,1.982837605E-1,1.677647108E0
4.590000833E0,1.471120136E0,-6.535245824E-1,-5.570642352E-2,1.610711656E0
4.600081833E0,1.521448436E0,-6.324219811E-1,-1.520767236E-1,1.654657136E0
4.610161833E0,1.714496454E0,-5.181767428E-1,-9.002957940E-2,1.793351765E0
4.620242833E0,1.787761043E0,-4.355947620E-1,1.025601625E-3,1.840063421E0
4.630323833E0,1.769595352E0,-4.801043522E-1,1.979153860E-1,1.844217557E0
4.640404833E0,1.669034352E0,-5.861658275E-1,4.501689470E-1,1.825354247E0
4.650484833E0,1.540375581E0,-6.393994635E-1,6.050359619E-1,1.774163780E0
4.660565833E0,1.414657667E0,-6.856193644E-1,5.634453017E-1,1.669970310E0
4.670646833E0,1.312977803E0,-7.537973142E-1,2.799752104E-1,1.539645160E0
4.680726833E0,1.256290509E0,-8.412453479E-1,6.592911065E-2,1.513375772E0
4.690807833E0,1.260654140E0,-8.550599796E-1,-9.002490163E-2,1.525936077E0
4.700888833E0,1.291285510E0,-9.200816023E-1,-1.741078627E-1,1.595080553E0
4.710968833E0,1.346674283E0,-1.125894238E0,-2.800406992E-2,1.755549398E0
4.721049833E0,1.393374533E0,-1.405190002E0,2.867129570E-1,1.999563915E0
4.731130833E0,1.331300784E0,-1.605585192E0,5.424830335E-1,2.155122602E0
4.741210833E0,1.127687725E0,-1.696487761E0,6.058341068E-1,2.125272992E0
4.751291833E0,8.371078581E-1,-1.694085724E0,5.459381533E-1,1.966907338E0
4.761372833E0,5.427287628E-1,-1.563472375E0,4.676755106E-1,1.719802536E0
4.771452833E0,3.303574517E-1,-1.401025615E0,3.754900628E-1,1.487616082E0
4.781533833E0,2.710242927E-1,-1.176341676E0,2.385020792E-1,1.230494676E0
4.791614833E0,2.848178744E-1,-1.010236312E0,5.976556063E-2,1.051318482E0
4.801694833E0,3.296316661E-1,-8.419440901E-1,1.048639655E-2,9.042327414E-1
4.811775833E0,4.424954997E-1,-6.751113331E-1,1.195691282E-1,8.160112473E-1
4.821856833E0,7.333757673E-1,-5.456674272E-1,3.166898775E-1,9.674117198E-1
4.831937833E0,1.015330260E0,-4.967250627E-1,5.147122675E-1,1.241998407E0
4.842017833E0,1.186667274E0,-5.321761465E-1,6.051049590E-1,1.434413706E0
4.852098833E0,1.301547520E0,-6.112813729E-1,6.257678497E-1,1.568207979E0
4.862179833E0,1.365822307E0,-7.398575521E-1,6.529234886E-1,1.684983339E0
4.872259833E0,1.353246261E0,-8.625186878E-1,7.043210989E-1,1.752507387E0
4.882340833E0,1.209835111E0,-1.012936556E0,7.450411087E-1,1.744943471E0
4.892421833E0,9.820110713E-1,-1.242216407E0,7.941378397E-1,1.771468954E0
4.902501833E0,7.441283584E-1,-1.479558399E0,7.718394828E-1,1.827171655E0
4.912582833E0,5.705116618E-1,-1.742989497E0,7.285619009E-1,1.973397676E0
4.922663833E0,4.260906976E-1,-1.977048862E0,6.929851019E-1,2.137873672E0
4.932743833E0,2.659943716E-1,-2.139838269E0,6.558079201E-1,2.253828932E0
4.942824833E0,1.467690597E-1,-2.149042372E0,6.358455259E-1,2.245934951E0
4.952905833E0,1.229346393E-1,-2.110329126E0,6.167795098E-1,2.202048798E0
4.962985833E0,1.629379267E-1,-2.070065784E0,6.682162964E-1,2.181337694E0
4.973066833E0,1.902856466E-1,-1.928513464E0,5.946214861E-1,2.027053901E0
4.983147833E0,3.330015627E-1,-1.680303837E0,4.000892991E-1,1.759085692E0
4.993227833E0,5.999845523E-1,-1.397359995E0,2.019347620E-1,1.534071076E0
5.003308833E0,1.045735635E0,-1.011387044E0,1.286744124E-1,1.460487548E0
5.013389833E0,1.527853769E0,-6.128724003E-1,3.892047071E-1,1.691576195E0
5.023470833E0,1.776275065E0,-3.223394573E-1,9.592140931E-1,2.044296336E0
5.033550833E0,1.821090757E0,-1.558844304E-1,1.492915778E0,2.359972250E0
5.043631833E0,1.865602978E0,-1.426200217E-1,1.812435123E0,2.604944533E0
5.053712833E0,1.825674974E0,-2.424606442E-1,2.077243241E0,2.776115227E0
5.063792833E0,1.701792939E0,-3.434666169E-1,2.221843715E0,2.819691121E0
5.073873833E0,1.490789438E0,-3.306805104E-1,2.220408223E0,2.694812689E0
5.083954833E0,1.353307073E0,-1.626859117E-1,1.963144183E0,2.389945987E0
5.094034833E0,1.275928237E0,1.001850235E-1,1.608014710E0,2.055174253E0
5.104115833E0,1.130136977E0,3.138785362E-1,1.201011078E0,1.678736708E0
5.114196833E0,9.904937732E-1,4.694232434E-1,6.716714162E-1,1.285526580E0
5.124276833E0,9.080050555E-1,5.288917655E-1,1.833663440E-1,1.066687816E0
5.134357833E0,8.389631796E-1,4.936406565E-1,-9.831917703E-2,9.783695493E-1
5.144438833E0,7.258932316E-1,4.382388729E-1,-3.154701483E-1,9.047075262E-1
5.154518833E0,6.635566503E-1,4.282325327E-1,-3.218208092E-1,8.527949129E-1
5.164599833E0,4.901951846E-1,2.778848308E-1,-2.031340259E-1,5.989780720E-1
5.174680833E0,1.892886963E-1,1.813689351E-2,-7.324514687E-2,2.037744072E-1
5.184760833E0,-1.072928989E-1,-1.799287659E-1,-2.079211414E-2,2.105194503E-1
5.194841833E0,-3.031819323E-1,-2.254019773E-1,-7.436021090E-2,3.850386687E-1
5.204922833E0,-3.627326077E-1,-1.616328281E-1,-1.482900667E-1,4.238986432E-1
5.215002833E0,-2.162358820E-1,-9.653811514E-2,-1.528421241E-1,2.818479719E-1
5.225083833E0,-3.297537267E-2,-1.297731042E-2,-7.023558497E-2,7.866907388E-2
5.235164833E0,1.107664374E-1,1.600839007E-1,-3.603639007E-3,1.947024528E-1
5.245245833E0,2.494357878E-1,2.596216375E-1,7.825854957E-2,3.684372504E-1
5.255325833E0,2.393844241E-1,7.659443200E-2,2.967619818E-1,3.888949516E-1
5.265406833E0,2.977033836E-1,-1.613375437E-1,7.793841451E-1,8.497627630E-1
5.275487833E0,3.958649781E-1,-2.747004372E-1,1.118893951E0,1.218233592E0
5.285567833E0,3.823190260E-1,-3.279586315E-1,1.086591593E0,1.197666895E0
5.295648833E0,3.184615839E-1,-3.934527093E-1,8.470352608E-1,9.867581000E-1
5.305729833E0,1.992617074E-1,-4.090869945E-1,5.644480991E-1,7.250234850E-1
5.315809833E0,-2.000858724E-2,-4.015668905E-1,1.770408261E-1,4.393173855E-1
5.325890833E0,-1.882075462E-1,-3.463200581E-1,-1.736009091E-1,4.306935555E-1
5.335971833E0,-2.197041580E-1,-2.346522725E-1,-5.132791150E-1,6.056294708E-1
5.346051833E0,-1.679279405E-1,-6.371477008E-2,-7.692690468E-1,7.899583732E-1
5.356132833E0,-1.242951402E-1,1.206754214E-1,-1.017081648E0,1.031730060E0
5.366213833E0,-5.594177395E-2,2.548023623E-1,-1.255552152E0,1.282366926E0
5.376293833E0,9.424045175E-2,3.835697454E-1,-1.475158369E0,1.527121222E0
5.386374833E0,1.984074292E-1,4.580024618E-1,-1.516974732E0,1.596979680E0
5.396455833E0,1.725484103E-1,4.616476160E-1,-1.427091333E0,1.509795068E0
5.406535833E0,4.018177360E-2,4.152300793E-1,-1.146294588E0,1.219845022E0
5.416616833E0,-8.752112389E-2,3.202461541E-1,-7.556380177E-1,8.253522642E-1
5.426697833E0,-1.820141754E-1,1.331358379E-1,-4.939037812E-1,5.429505101E-1
5.436778833E0,-2.689043847E-1,-7.108226180E-2,-3.984403843E-1,4.859187132E-1
5.446858833E0,-3.502248287E-1,-1.305741727E-1,-4.123713756E-1,5.565583497E-1
5.456939833E0,-3.617914984E-1,4.884763956E-3,-4.713627648E-1,5.942220168E-1
5.467020833E0,-3.602875945E-1,2.149787307E-1,-5.690796787E-1,7.070181653E-1
5.477100833E0,-3.450658303E-1,3.876703978E-1,-6.074157786E-1,7.989447370E-1
5.487181833E0,-2.719496146E-1,5.685119140E-1,-6.480521733E-1,9.039546496E-1
5.497262833E0,-2.003340867E-1,7.599333823E-1,-7.090105659E-1,1.058455703E0
5.507342833E0,-1.338524142E-1,9.118358588E-1,-7.212242299E-1,1.170267274E0
5.517423833E0,-6.292305708E-2,9.930753189E-1,-7.442780471E-1,1.242621307E0
5.527504833E0,-6.720731199E-2,1.018703080E0,-6.837663817E-1,1.228742957E0
5.537584833E0,-1.450091940E-1,9.426284659E-1,-6.264543128E-1,1.141061391E0
5.547665833E0,-1.751764414E-1,8.277885658E-1,-5.868417656E-1,1.029710616E0
5.557746250E0,-1.656267688E-1,7.091889060E-1,-5.231123775E-1,8.966759116E-1
5.567826250E0,-1.099003185E-1,6.523294115E-1,-4.577334899E-1,8.044449570E-1
5.577907250E0,-4.387502119E-2,6.808614850E-1,-4.224876434E-1,8.024918617E-1
5.587988250E0,-1.487063885E-2,7.638843459E-1,-3.532794142E-1,8.417522048E-1
5.598068250E0,5.877036452E-3,8.301543492E-1,-2.888436824E-1,8.789888827E-1
5.608149250E0,1.728320003E-2,8.646143299E-1,-2.061605448E-1,8.890212701E-1
5.618230250E0,2.404886708E-2,9.208838403E-1,-2.037801433E-1,9.434679338E-1
5.628310250E0,1.781222686E-2,8.990930218E-1,-3.010778117E-1,9.483318965E-1
5.638391250E0,4.440229386E-3,7.984659487E-1,-3.402874857E-1,8.679649531E-1
5.648472250E0,-1.356790844E-1,6.783606309E-1,-2.497147000E-1,7.354858196E-1
5.658552250E0,-4.433655654E-1,6.944515836E-1,-2.216007024E-1,8.531956973E-1
5.668633250E0,-7.553193444E-1,8.002388245E-1,-3.618444157E-1,1.158369919E0
5.678714250E0,-1.025786105E0,9.696151203E-1,-5.634833086E-1,1.519836851E0
5.688794250E0,-1.051979000E0,1.066209953E0,-7.625055724E-1,1.680737406E0
5.698875250E0,-7.673138840E-1,1.092581481E0,-9.927619082E-1,1.663755119E0
5.708956250E0,-2.639618795E-1,1.041749881E0,-1.181652117E0,1.597254023E0
5.719037250E0,2.442422909E-1,8.660714561E-1,-1.251522251E0,1.541441536E0
5.729117250E0,5.989364389E-1,7.025143093E-1,-7.863744915E-1,1.212697841E0
5.739198250E0,6.574249676E-1,5.715021801E-1,6.849019110E-2,8.737924445E-1
5.749279250E0,4.779011214E-1,3.286567891E-1,6.153907961E-1,8.456421221E-1
5.759359250E0,1.756755012E-1,-5.467789829E-2,9.142472506E-1,9.325768544E-1
5.769440250E0,-1.463603394E-1,-5.203372890E-1,1.050782660E0,1.181658344E0
5.779521250E0,-4.890421137E-1,-9.887705988E-1,1.116444553E0,1.569483331E0
5.789601250E0,-8.368511653E-1,-1.347741693E0,1.162486113E0,1.966748969E0
5.799682250E0,-1.112260870E0,-1.498556587E0,1.144269698E0,2.189097811E0
5.809763250E0,-1.224122198E0,-1.426238809E0,1.004667424E0,2.131194249E0
5.819843250E0,-1.336900078E0,-1.085712172E0,8.806590897E-1,1.934330161E0
5.829924250E0,-1.400891714E0,-6.184459662E-1,7.249898368E-1,1.694279572E0
5.840005250E0,-1.427337500E0,-2.004536623E-1,4.927507102E-1,1.523245638E0
5.850085250E0,-1.375496379E0,8.249193370E-2,2.624294704E-1,1.402734627E0
5.860166250E0,-1.287230320E0,1.751282018E-1,1.097282642E-1,1.303714721E0
5.870247250E0,-1.154947152E0,9.821685076E-2,1.577514464E-1,1.169801262E0
5.880327250E0,-1.010843838E0,-3.667139769E-2,3.317716008E-1,1.064529216E0
5.890408250E0,-9.244561967E-1,-1.800053644E-1,5.568455493E-1,1.094119809E0
5.900489250E0,-9.073349646E-1,-3.132914758E-1,7.375473171E-1,1.210530599E0
5.910569250E0,-9.017195910E-1,-3.655047727E-1,8.798153365E-1,1.311780083E0
5.920650250E0,-9.153640687E-1,-3.345624769E-1,9.769147843E-1,1.379922434E0
5.930731250E0,-9.561956142E-1,-3.340163469E-1,9.859844005E-1,1.413521210E0
5.940811250E0,-9.485850245E-1,-3.758771485E-1,8.917974508E-1,1.355138322E0
5.950892250E0,-8.702188861E-1,-3.415054607E-1,8.097902513E-1,1.236797130E0
5.960973250E0,-8.622307125E-1,-2.349592513E-1,7.992839742E-1,1.198958933E0
5.971054250E0,-9.413740920E-1,-9.560314536E-2,8.534408855E-1,1.274239572E0
5.981134250E0,-1.034884080E0,-5.664197803E-3,8.669467843E-1,1.350042173E0
5.991215250E0,-1.175693804E0,9.333325624E-3,7.188432437E-1,1.378070623E0
6.001296250E0,-1.321596745E0,-7.861230612E-2,3.320183533E-1,1.364930049E0
6.011376250E0,-1.504377636E0,-1.855052555E-1,-1.967301553E-1,1.528485207E0
6.021457250E0,-1.717853633E0,-2.486288720E-1,-6.497203839E-1,1.853368284E0
6.031538250E0,-1.851538086E0,-2.353077453E-1,-8.890036511E-1,2.067338992E0
6.041618250E0,-1.914953771E0,-1.692470723E-1,-1.012883347E0,2.172930093E0
6.051699250E0,-1.879460441E0,-8.813975930E-2,-1.137330807E0,2.198558967E0
6.061780250E0,-1.829761300E0,1.582315028E-2,-1.201740811E0,2.189168282E0
6.071860250E0,-1.831393404E0,1.343608296E-1,-1.117026935E0,2.149372887E0
6.081941250E0,-1.741165751E0,2.359965473E-1,-9.882659841E-1,2.015942012E0
6.092022250E0,-1.632359738E0,2.584650582E-1,-7.957469934E-1,1.834288903E0
6.102102250E0,-1.593171992E0,1.631864333E-1,-5.039276630E-1,1.678919264E0
6.112183250E0,-1.587945458E0,9.572886050E-2,-2.355223382E-1,1.608168388E0
6.122264250E0,-1.690401540E0,1.410751873E-1,-9.644514441E-2,1.699017728E0
6.132344250E0,-1.747370231E0,1.672783148E-1,-3.733681083E-2,1.755755905E0
6.142425250E0,-1.735867589E0,1.624531925E-1,4.665142536E-2,1.744076741E0
6.152506250E0,-1.684898871E0,2.409310126E-1,7.804044843E-2,1.703825775E0
6.162586250E0,-1.584087757E0,3.627542424E-1,1.060661530E-1,1.628549874E0
6.172667250E0,-1.449774436E0,4.954679114E-1,4.849271357E-2,1.532868524E0
6.182748250E0,-1.318357680E0,5.537202126E-1,-9.813966751E-2,1.433284494E0
6.192828250E0,-1.122643771E0,5.160910410E-1,-2.099179655E-1,1.253293481E0
6.202909250E0,-9.673357294E-1,4.467705452E-1,-2.188870096E-1,1.087774727E0
6.212990250E0,-7.971905248E-1,3.849029106E-1,-5.763191164E-2,8.871214238E-1
6.223070250E0,-6.408517657E-1,3.848742592E-1,2.124293447E-1,7.771392459E-1
6.233151250E0,-5.270044304E-1,4.319718271E-1,4.284646672E-1,8.049318606E-1
6.243232250E0,-5.267040297E-1,4.972302622E-1,4.864661229E-1,8.725275682E-1
6.253313250E0,-5.499910046E-1,6.430042720E-1,4.835565484E-1,9.745622271E-1
6.263393250E0,-6.206465659E-1,7.970643711E-1,3.827628297E-1,1.080287534E0
6.273474250E0,-7.419600646E-1,8.262782300E-1,2.055074108E-1,1.129368738E0
6.283555250E0,-8.187173416E-1,7.590972304E-1,1.071771240E-1,1.121612066E0
6.293635250E0,-7.805927646E-1,7.010612762E-1,2.557496113E-1,1.079916590E0
6.303716250E0,-6.897014518E-1,7.213897061E-1,5.685996222E-1,1.148649960E0
6.313797250E0,-6.434474909E-1,7.525039101E-1,7.556216455E-1,1.245492224E0
6.323877250E0,-5.639241886E-1,7.444862080E-1,8.762532127E-1,1.280659946E0
6.333958250E0,-5.120639174E-1,7.489774543E-1,9.408099818E-1,1.307019550E0
6.344039250E0,-5.568815097E-1,8.067485297E-1,7.679171705E-1,1.245253784E0
6.354119250E0,-6.245216618E-1,9.116265285E-1,5.160436785E-1,1.219586533E0
6.364200250E0,-6.745953164E-1,9.185934860E-1,1.698370564E-1,1.152274906E0
6.374281250E0,-7.255194484E-1,9.617278111E-1,-2.951323628E-2,1.205060116E0
6.384361250E0,-7.718383133E-1,9.956849313E-1,-6.244943261E-2,1.261357521E0
6.394442250E0,-7.644997653E-1,1.042836878E0,8.189610243E-3,1.293072200E0
6.404523250E0,-7.308151254E-1,1.071215170E0,1.388848203E-1,1.304178547E0
6.414603250E0,-6.623342898E-1,1.086712630E0,3.301957762E-1,1.314785269E0
6.424684250E0,-5.634434013E-1,9.922473532E-1,5.726517427E-1,1.276696242E0
6.434765250E0,-4.216897908E-1,9.518945485E-1,7.575629210E-1,1.287566344E0
6.444845250E0,-3.726553327E-1,1.060252225E0,8.004744673E-1,1.379770326E0
6.454926250E0,-4.973242562E-1,1.351873335E0,7.176656145E-1,1.609328079E0
6.465007250E0,-3.949396563E-1,1.609578840E0,5.140667349E-1,1.735219289E0
6.475087250E0,1.789774239E-2,1.486486180E0,4.305304885E-1,1.547681490E0
6.485168250E0,3.532055931E-1,1.233943182E0,5.601597512E-1,1.400410266E0
6.495249250E0,5.429790236E-1,9.335237664E-1,8.302929282E-1,1.362233163E0
6.505329250E0,6.006205831E-1,5.396927422E-1,1.072450687E0,1.342446951E0
6.515410250E0,5.437640123E-1,9.086514652E-2,1.233414009E0,1.351016614E0
6.525491250E0,3.449930325E-1,-3.147901171E-1,1.275085945E0,1.357923848E0
6.535571250E0,1.850260761E-1,-6.464599764E-1,1.261671263E0,1.429671125E0
6.545652250E0,6.543852925E-2,-8.063748926E-1,1.266202855E0,1.502595201E0
6.555733583E0,6.372134820E-2,-7.378320765E-1,1.231938171E0,1.437403298E0
6.565814583E0,2.458751258E-1,-6.198615772E-1,1.151535448E0,1.330682847E0
6.575894583E0,4.140466028E-1,-5.553697121E-1,1.006545550E0,1.221885449E0
6.585975583E0,4.724915698E-1,-6.236593437E-1,7.444604802E-1,1.080009568E0
6.596056583E0,3.831177557E-1,-8.383001053E-1,4.347165102E-1,1.019070520E0
6.606136583E0,2.373571944E-1,-1.033327551E0,8.764040709E-2,1.063853894E0
6.616217583E0,2.856423318E-2,-1.158400079E0,-3.319528645E-1,1.205362752E0
6.626298583E0,-1.607241708E-1,-1.220741923E0,-7.222702968E-1,1.427486421E0
6.636378583E0,-2.578366287E-1,-1.243538463E0,-9.980524689E-1,1.615232604E0
6.646459583E0,-2.706075324E-1,-1.226434187E0,-1.183636662E0,1.725794020E0
6.656540583E0,-1.968525083E-1,-1.206434956E0,-1.223319376E0,1.729377491E0
6.666620583E0,4.503320843E-2,-1.157270982E0,-1.036741156E0,1.554392595E0
6.676701583E0,3.296454071E-1,-1.039210435E0,-8.293994737E-1,1.369864194E0
6.686782583E0,5.716904604E-1,-9.296178263E-1,-8.118233281E-1,1.360175136E0
6.696862583E0,7.604074453E-1,-7.719219285E-1,-9.078585827E-1,1.413608911E0
6.706943583E0,9.823825157E-1,-4.963929409E-1,-1.063717285E0,1.530678223E0
6.717024583E0,9.943220915E-1,-3.266704899E-1,-1.137656497E0,1.545850036E0
6.727104583E0,8.070654488E-1,-2.455614227E-1,-1.011715073E0,1.317278422E0
6.737185583E0,5.779636458E-1,-2.964257669E-1,-8.229938489E-1,1.048441265E0
6.747266583E0,3.562521386E-1,-4.845394653E-1,-6.224910700E-1,8.655571685E-1
6.757346583E0,1.797555421E-1,-7.098391163E-1,-3.623975623E-1,8.170162906E-1
6.767427583E0,2.293146417E-2,-7.859265947E-1,-1.956741482E-1,8.102436897E-1
6.777508583E0,-1.284259057E-1,-7.066278255E-1,-8.769595563E-2,7.235376132E-1
6.787589583E0,-2.695908478E-1,-5.437840390E-1,-7.613893390E-2,6.117004525E-1
6.797669583E0,-3.994227165E-1,-4.014815211E-1,-1.621871442E-1,5.890930215E-1
6.807750583E0,-4.867552677E-1,-3.388853234E-1,-3.268102384E-1,6.771845280E-1
6.817831583E0,-5.327905427E-1,-2.879408723E-1,-4.104453027E-1,7.316017051E-1
6.827911583E0,-6.367461433E-1,-3.086441088E-1,-4.756499434E-1,8.526134560E-1
6.837992583E0,-8.081900145E-1,-3.358921337E-1,-5.030476570E-1,1.009480842E0
6.848073583E0,-9.288980341E-1,-2.701191437E-1,-5.122570217E-1,1.094633804E0
6.858153583E0,-9.757447565E-1,-1.805643582E-1,-4.910807455E-1,1.107177319E0
6.868234583E0,-1.024121403E0,-9.248774886E-2,-5.041785085E-1,1.145239975E0
6.878315583E0,-1.023394009E0,-9.422612607E-2,-5.366305554E-1,1.159390449E0
6.888395583E0,-1.051011578E0,-1.122747266E-1,-6.410723519E-1,1.236205773E0
6.898476583E0,-1.079880890E0,-1.432456738E-1,-7.614834791E-1,1.329104642E0
6.908557583E0,-1.036707388E0,-1.681238222E-1,-8.066081965E-1,1.324252473E0
6.918637583E0,-9.533016810E-1,-2.657267153E-2,-8.058328557E-1,1.248541867E0
6.928718583E0,-8.412123111E-1,1.612083203E-1,-8.875862861E-1,1.233464912E0
6.938799583E0,-7.222556788E-1,3.261442405E-1,-9.492159390E-1,1.236541237E0
6.948880583E0,-6.227346066E-1,4.001454324E-1,-8.405770111E-1,1.120037709E0
6.958960583E0,-4.648896047E-1,3.872417969E-1,-6.056136668E-1,8.560645228E-1
6.969041583E0,-3.259711629E-1,2.829818487E-1,-2.679732156E-1,5.080802791E-1
6.979122583E0,-3.182347119E-1,2.077311069E-1,-2.161364794E-2,3.806477300E-1
6.989202583E0,-4.815179166E-1,8.619088233E-2,1.744785762E-1,5.193564727E-1
6.999283583E0,-6.389692546E-1,-3.422960043E-3,2.005384469E-1,6.697082154E-1
7.009364583E0,-7.592849261E-1,3.796947956E-2,3.312272251E-2,7.609549231E-1
7.019444583E0,-7.403188974E-1,2.457233906E-1,-1.587115592E-1,7.960159631E-1
7.029525583E0,-6.229375049E-1,5.229878318E-1,-2.383336794E-1,8.475673130E-1
7.039606583E0,-5.201102708E-1,7.193496126E-1,-1.938755447E-1,9.086067828E-1
7.049686583E0,-4.073924714E-1,8.418949735E-1,7.683241367E-4,9.352841079E-1
7.059767583E0,-3.782967263E-1,9.019271672E-1,2.404877937E-1,1.007181914E0
7.069848583E0,-2.995896953E-1,8.516399431E-1,3.799298537E-1,9.794852076E-1
7.079929583E0,-2.952835134E-1,7.289174116E-1,3.250958347E-1,8.509995581E-1
7.090009583E0,-3.911158696E-1,6.403619152E-1,1.619099861E-1,7.676261131E-1
7.100090583E0,-5.730256721E-1,5.685744792E-1,-4.248002172E-2,8.083563024E-1
7.110171583E0,-6.584330276E-1,5.310119659E-1,-9.032720268E-2,8.506860544E-1
7.120251583E0,-5.907652473E-1,6.068421668E-1,-6.861122847E-3,8.469404158E-1
7.130332583E0,-6.059890580E-1,6.819654393E-1,1.335603458E-1,9.220292646E-1
7.140413583E0,-5.922945866E-1,6.879208285E-1,3.427707982E-1,9.703297190E-1
7.150493583E0,-4.466541857E-1,6.054955530E-1,5.230919123E-1,9.163787290E-1
7.160574583E0,-2.643280613E-1,3.975703186E-1,5.848157054E-1,7.549442970E-1
7.170655583E0,-4.377225637E-3,1.342099714E-1,6.571077561E-1,6.706877662E-1
7.180735583E0,2.801310387E-1,-1.548190677E-1,7.323432952E-1,7.992302826E-1
7.190816583E0,5.311058137E-1,-2.697273803E-1,8.692821622E-1,1.053792068E0
7.200897583E0,6.798309132E-1,-3.580408019E-1,9.803242958E-1,1.245551690E0
7.210977583E0,3.921522886E-1,-3.527046329E-1,8.992561591E-1,1.042518880E0
7.221058583E0,-2.605700558E-1,3.145334244E-2,4.448655224E-1,5.165185377E-1
7.231139583E0,-2.920742691E-1,2.673767996E-1,-2.658682179E-1,4.769524514E-1
7.241220583E0,3.763314772E-1,8.777021527E-2,-7.898880833E-1,8.793475852E-1
7.251300583E0,8.590214682E-1,-2.060558796E-2,-7.141379893E-1,1.117289372E0
7.261381583E0,9.638260844E-1,-5.395986021E-2,-1.800755310E-1,9.819875684E-1
7.271462583E0,9.729679137E-1,-1.211613250E-1,7.258838761E-1,1.219940175E0
7.281542583E0,1.058573782E0,-3.963815796E-1,1.463748112E0,1.849393237E0
7.291623583E0,1.018268925E0,-9.395616013E-1,1.848166873E0,2.309841639E0
7.301704583E0,8.285732621E-1,-1.387026211E0,1.963253526E0,2.542585253E0
7.311784583E0,5.523019704E-1,-1.641537382E0,1.895573174E0,2.567660434E0
7.321865583E0,2.386295485E-1,-1.842212069E0,1.833609645E0,2.610136721E0
7.331946583E0,3.429333508E-2,-1.842504430E0,1.890205430E0,2.639862719E0
7.342027583E0,-1.598520586E-1,-1.643927139E0,1.859090642E0,2.486818677E0
7.352107583E0,-4.397784448E-1,-1.389411875E0,1.836273052E0,2.344305688E0
7.362188583E0,-7.080478218E-1,-1.151669934E0,1.820094391E0,2.267249203E0
7.372269583E0,-9.242161685E-1,-1.063059474E0,1.603070304E0,2.134034998E0
7.382349583E0,-1.143437054E0,-1.089830950E0,1.174916124E0,1.968656318E0
7.392430583E0,-1.270573649E0,-1.179233124E0,7.236186647E-1,1.878449395E0
7.402511583E0,-1.304771967E0,-1.250890167E0,4.981652319E-1,1.874919916E0
7.412591583E0,-1.295789474E0,-1.240893182E0,5.573834932E-1,1.878713019E0
7.422672583E0,-1.390536879E0,-1.221082816E0,7.073973191E-1,1.981173143E0
7.432753583E0,-1.491147580E0,-1.199066294E0,9.886098003E-1,2.153747994E0
7.442833583E0,-1.504674529E0,-1.121870184E0,1.284162578E0,2.274139766E0
7.452914583E0,-1.420674598E0,-9.533616149E-1,1.339080212E0,2.172636761E0
7.462995583E0,-1.281571092E0,-7.723131073E-1,1.250296090E0,1.949905719E0
7.473076583E0,-1.083926140E0,-6.633864963E-1,1.210428019E0,1.755025216E0
7.483156583E0,-1.026561738E0,-5.714583260E-1,1.410606862E0,1.835811902E0
7.493237583E0,-1.130162120E0,-4.679216784E-1,1.557802330E0,1.980647676E0
7.503318583E0,-1.297633978E0,-4.558588725E-1,1.600725571E0,2.110446305E0
7.513398583E0,-1.442879984E0,-5.843169379E-1,1.590143280E0,2.225283035E0
7.523479583E0,-1.562723932E0,-7.485699034E-1,1.484991047E0,2.282030104E0
7.533560583E0,-1.668326401E0,-8.638039058E-1,1.207620771E0,2.233342359E0
7.543640583E0,-1.733193949E0,-9.377425325E-1,8.654919970E-1,2.152300797E0
7.553721083E0,-1.698932774E0,-9.269175822E-1,5.680242562E-1,2.016978019E0
7.563802083E0,-1.647260637E0,-8.288375562E-1,3.663035023E-1,1.880057860E0
7.573882083E0,-1.647604453E0,-6.738261151E-1,3.185411060E-1,1.808344686E0
7.583963083E0,-1.595920914E0,-5.250495601E-1,3.153532040E-1,1.709411667E0
7.594044083E0,-1.523129803E0,-4.634362793E-1,2.784140038E-1,1.616233875E0
7.604125083E0,-1.376137818E0,-4.676398426E-1,3.053532958E-1,1.485154185E0
7.614205083E0,-1.316442132E0,-3.679377991E-1,3.093902135E-1,1.401470804E0
7.624286083E0,-1.397136339E0,-2.025101280E-1,1.643968070E-1,1.421276403E0
7.634367083E0,-1.490998476E0,-8.836195350E-2,-9.310287595E-2,1.496513427E0
7.644447083E0,-1.454913847E0,-4.460256100E-3,-2.995066649E-1,1.485428705E0
7.654528083E0,-1.131591765E0,2.640778005E-2,-3.201449972E-1,1.176303580E0
7.664609083E0,-7.955668992E-1,3.602060258E-2,-1.079898870E-1,8.036703246E-1
7.674689083E0,-5.563973603E-1,1.396256626E-2,2.401135719E-1,6.061579853E-1
7.684770083E0,-3.833411193E-1,-9.030732214E-2,6.548121393E-1,7.641235266E-1
7.694851083E0,-3.906419528E-1,-3.283632588E-1,1.029937921E0,1.149432767E0
7.704932083E0,-5.003260705E-1,-5.552270401E-1,1.298453758E0,1.498194047E0
7.715012083E0,-6.691407412E-1,-6.465055847E-1,1.426151100E0,1.702828754E0
7.725093083E0,-8.846866518E-1,-6.077929240E-1,1.307872453E0,1.691925844E0
7.735174083E0,-1.017818104E0,-4.579550993E-1,1.108443223E0,1.572998075E0
7.745254083E0,-1.034766551E0,-2.761318356E-1,8.703369999E-1,1.380027934E0
7.755335083E0,-1.043725070E0,-1.141832578E-1,6.546314603E-1,1.237312486E0
7.765416083E0,-1.022506109E0,-9.624516964E-3,5.006807041E-1,1.138548437E0
7.775496083E0,-9.196836993E-1,-2.310878098E-2,4.343463814E-1,1.017353872E0
7.785577083E0,-7.109205589E-1,-1.191317564E-1,4.841324991E-1,8.683229198E-1
7.795658083E0,-4.911985669E-1,-2.358193767E-1,8.086769414E-1,9.751129196E-1
7.805738083E0,-2.794998318E-1,-2.441563368E-1,1.280480002E0,1.333177223E0
7.815819083E0,-1.705232272E-1,-2.393815005E-1,1.553545557E0,1.581102613E0
7.825900083E0,-6.966138840E-2,-2.563273162E-1,1.619587519E0,1.641225193E0
7.835981083E0,-7.736977279E-2,-2.895693219E-1,1.576750817E0,1.604985861E0
7.846061083E0,-1.600020397E-1,-3.155906010E-1,1.278103108E0,1.326177076E0
7.856142083E0,-2.580583844E-1,-4.239453542E-1,8.202129132E-1,9.586829591E-1
7.866223083E0,-3.073015881E-1,-5.845695376E-1,4.886056191E-1,8.215176574E-1
7.876303083E0,-2.643929654E-1,-7.074698246E-1,3.259501129E-1,8.225938663E-1
7.886384083E0,-7.812874138E-2,-7.696409297E-1,4.401795638E-1,8.900614076E-1
7.896465083E0,2.020335799E-1,-6.930739796E-1,6.940136272E-1,1.001411016E0
7.906545083E0,4.629851666E-1,-5.438553751E-1,9.594000345E-1,1.196069546E0
7.916626083E0,6.078405789E-1,-4.353006470E-1,1.012667584E0,1.258750356E0
7.926707083E0,6.038390368E-1,-3.918529111E-1,8.066023493E-1,1.081100197E0
7.936788083E0,3.755307010E-1,-1.595518041E-1,3.290356886E-1,5.241608245E-1
7.946868083E0,-3.676963091E-2,3.299116015E-1,-4.300960404E-1,5.433012742E-1
7.956949083E0,-2.610001186E-1,7.390839654E-1,-1.225674634E0,1.454869231E0
7.967030083E0,-8.711532712E-2,8.028414202E-1,-1.653139427E0,1.839840589E0
7.977110083E0,4.208969083E-1,7.946307600E-1,-1.555220200E0,1.796469349E0
7.987191083E0,1.034295266E0,7.725592750E-1,-1.162730527E0,1.737399438E0
7.997272083E0,1.307073138E0,5.880018532E-1,-3.906741124E-1,1.485534460E0
8.007352083E0,1.174868762E0,1.154719841E-1,6.099230647E-1,1.328780092E0
8.017433083E0,8.232148737E-1,-3.955448431E-1,1.526448390E0,1.778815094E0
8.027514083E0,4.560453987E-1,-7.507298648E-1,1.977672175E0,2.163968569E0
8.037594083E0,5.863763273E-2,-8.228885990E-1,1.877271974E0,2.050544826E0
8.047675083E0,-2.745367151E-1,-7.255312890E-1,1.134607759E0,1.374445643E0
8.057756083E0,-4.294452453E-1,-5.562479639E-1,2.123732114E-1,7.341235570E-1
8.067837083E0,-3.707275057E-1,-3.424316597E-1,-4.290897346E-1,6.624321289E-1
8.077917083E0,-2.230046189E-1,-1.353636271E-1,-7.828053510E-1,8.251294378E-1
8.087998083E0,-9.075287998E-2,-1.076706290E-1,-9.352843630E-1,9.458255068E-1
8.098079083E0,6.073385954E-2,-2.705383891E-1,-8.531391692E-1,8.970652505E-1
8.108159083E0,2.227680990E-1,-4.105049443E-1,-3.933726025E-1,6.106405977E-1
8.118240083E0,2.921561301E-1,-5.067588848E-1,2.610957205E-1,6.405706416E-1
8.128321083E0,3.014546648E-1,-6.361250228E-1,7.658279604E-1,1.040203069E0
8.138401083E0,2.666888747E-1,-8.461833215E-1,1.008666335E0,1.343337986E0
8.148482083E0,2.306843519E-1,-9.744782495E-1,1.193031968E0,1.557609837E0
8.158563083E0,1.758222663E-1,-8.438912129E-1,1.340689366E0,1.593898938E0
8.168644083E0,2.168194342E-1,-6.833991766E-1,1.328135979E0,1.509301255E0
8.178724083E0,2.880192250E-1,-6.092629141E-1,1.139834000E0,1.324151774E0
8.188805083E0,2.682407257E-1,-5.838041371E-1,9.472822648E-1,1.144606503E0
8.198886083E0,1.439555258E-1,-5.654175675E-1,6.328178376E-1,8.607430712E-1
8.208966083E0,-4.664557815E-2,-5.539219415E-1,1.627402908E-1,5.792147525E-1
8.219047083E0,-2.712324536E-1,-6.612920237E-1,-2.660570830E-1,7.626667397E-1
8.229128083E0,-4.376287159E-1,-7.117096406E-1,-6.071889067E-1,1.032825190E0
8.239208083E0,-5.522777045E-1,-6.545104229E-1,-9.364327562E-1,1.268976305E0
8.249289083E0,-6.599018481E-1,-4.953954059E-1,-1.223646235E0,1.475871663E0
8.259370083E0,-7.937665415E-1,-2.783262956E-1,-1.442930270E0,1.670203166E0
8.269450083E0,-9.215305424E-1,-1.000306571E-1,-1.668306520E0,1.908525954E0
8.279531083E0,-1.031120812E0,4.432189465E-4,-1.891287165E0,2.154107116E0
8.289612083E0,-1.120189109E0,7.894208908E-2,-2.006683136E0,2.299528800E0
8.299693083E0,-1.182348520E0,1.238264859E-1,-2.022401036E0,2.345929874E0
8.309773083E0,-1.237632190E0,1.726881588E-1,-1.855477062E0,2.237040404E0
8.319854083E0,-1.210684420E0,2.204540634E-1,-1.536557057E0,1.968594511E0
8.329935083E0,-1.102276164E0,2.720966721E-1,-1.219111719E0,1.665917983E0
8.340015083E0,-1.018747519E0,3.893508875E-1,-8.449992603E-1,1.379660963E0
8.350096083E0,-9.760672304E-1,5.064986837E-1,-6.053341699E-1,1.255259978E0
8.360177083E0,-8.950815395E-1,5.986648357E-1,-4.874946481E-1,1.182041277E0
8.370257083E0,-8.066096583E-1,6.605459189E-1,-3.483344239E-1,1.099216504E0
8.380338083E0,-6.997848290E-1,7.470923120E-1,-1.603528726E-1,1.036126813E0
8.390419083E0,-5.587096417E-1,8.324716008E-1,-6.268215179E-3,1.002598983E0
8.400500083E0,-4.173230901E-1,8.128845978E-1,4.399737418E-2,9.148091057E-1
8.410580083E0,-3.255253127E-1,7.194665569E-1,1.039594012E-1,7.964963357E-1
8.420661083E0,-2.583744264E-1,5.549913973E-1,1.104170662E-1,6.220648871E-1
8.430742083E0,-2.533297411E-1,4.281266981E-1,1.355694491E-1,5.156040175E-1
8.440822083E0,-2.994546247E-1,4.026123726E-1,1.528450477E-1,5.245296974E-1
8.450903083E0,-2.523251894E-1,4.448128974E-1,1.929382360E-1,5.465818126E-1
8.460984083E0,-2.072022262E-1,5.037078077E-1,1.381164962E-1,5.618989986E-1
8.471064083E0,-2.198202252E-1,6.030116558E-1,7.357317567E-2,6.460317335E-1
8.481145083E0,-2.189826116E-1,6.916823423E-1,8.995941281E-2,7.310749228E-1
8.491226083E0,-2.577309403E-1,7.100846994E-1,9.419455111E-2,7.612608826E-1
8.501307083E0,-3.102737278E-1,6.698453307E-1,5.717933714E-2,7.404269240E-1
8.511387083E0,-3.100334072E-1,5.695573962E-1,1.012854695E-2,6.485514078E-1
8.521468083E0,-2.414771426E-1,5.123499924E-1,-7.411696672E-2,5.712329208E-1
8.531549083E0,-1.780813381E-1,4.754230714E-1,-1.429223228E-1,5.274152540E-1
8.541629083E0,-1.984732103E-1,6.335352910E-1,-2.626265216E-1,7.139546694E-1
8.551710083E0,-2.965403724E-1,8.506353915E-1,-4.211913157E-1,9.944440085E-1
8.561791833E0,-4.213123530E-1,9.425302327E-1,-5.762261456E-1,1.182329865E0
8.571871833E0,-5.351836619E-1,9.612553561E-1,-7.671909463E-1,1.341273783E0
8.581952833E0,-5.952953777E-1,9.246400917E-1,-1.027979103E0,1.505349435E0
8.592033833E0,-6.255874631E-1,9.004565924E-1,-1.270923312E0,1.678519531E0
8.602114833E0,-6.745979476E-1,9.884250283E-1,-1.572687587E0,1.976211698E0
8.612194833E0,-7.074309406E-1,1.228212326E0,-1.803169625E0,2.293552866E0
8.622275833E0,-7.595474660E-1,1.483171393E0,-2.039571385E0,2.633735212E0
8.632356833E0,-8.635752797E-1,1.684455360E0,-2.231992142E0,2.926592053E0
8.642436833E0,-9.710892034E-1,1.702929638E0,-2.318305231E0,3.036037341E0
8.652517833E0,-1.054452665E0,1.618662490E0,-2.446982567E0,3.117637304E0
8.662598833E0,-1.127909188E0,1.528175073E0,-2.433181969E0,3.086725236E0
8.672678833E0,-1.011868270E0,1.403168035E0,-2.350321076E0,2.918350063E0
8.682759833E0,-7.431381324E-1,1.302946758E0,-2.077061977E0,2.562052107E0
8.692840833E0,-4.141115069E-1,1.384937586E0,-1.467097982E0,2.059591451E0
8.702921833E0,-1.105559376E-1,1.529751483E0,-8.926926595E-1,1.774616127E0
8.713001833E0,3.816331476E-2,1.515790671E0,-5.636061001E-1,1.617630870E0
8.723082833E0,9.562302589E-2,1.433508067E0,-2.744332194E-1,1.462669728E0
8.733163833E0,8.518750012E-2,1.401095197E0,-2.055062413E-2,1.403832963E0
8.743243833E0,4.402485609E-2,1.346743573E0,1.720502275E-1,1.358402635E0
8.753324833E0,9.190828979E-2,1.183860025E0,2.418425936E-1,1.211800121E0
8.763405833E0,2.588755327E-1,1.029064931E0,2.297856349E-1,1.085722162E0
8.773485833E0,4.784776568E-1,9.687596726E-1,9.913310945E-2,1.085017762E0
8.783566833E0,8.867384398E-1,9.971818185E-1,-5.578477621E-2,1.335585482E0
8.793647833E0,1.301236448E0,1.090656577E0,-3.311862946E-3,1.697868968E0
8.803727833E0,1.610967261E0,1.149531607E0,3.268096536E-1,2.005852184E0
8.813808833E0,1.778896664E0,1.078231829E0,5.580635244E-1,2.153715885E0
8.823889833E0,1.837500090E0,9.037561762E-1,7.253096795E-1,2.172384851E0
8.833970833E0,1.879598874E0,7.203717059E-1,7.200664812E-1,2.137831391E0
8.844050833E0,1.708224292E0,6.471897089E-1,4.419003993E-1,1.879404351E0
8.854131833E0,1.349024279E0,9.491837794E-1,-2.345709962E-1,1.666085204E0
8.864212833E0,1.439401476E0,1.265501189E0,-9.042824256E-1,2.119220747E0
8.874292833E0,1.845591175E0,1.349177769E0,-1.108136244E0,2.540561625E0
8.884373833E0,2.218501446E0,1.410398117E0,-1.034774153E0,2.825195402E0
8.894454833E0,2.609595681E0,1.274952629E0,-7.388325351E-1,2.996892948E0
8.904535833E0,2.880441634E0,7.827322608E-1,7.992734492E-2,2.985967545E0
8.914615833E0,2.993154317E0,1.095604491E-1,8.489905697E-1,3.113159367E0
8.924696833E0,2.927849981E0,-7.191285878E-1,1.564233098E0,3.396509476E0
8.934777833E0,2.718425813E0,-1.506271403E0,2.307365676E0,3.870740085E0
8.944857833E0,2.528779559E0,-2.037801433E0,2.759778784E0,4.261893907E0
8.954938833E0,2.274539992E0,-2.241255886E0,2.549533374E0,4.086181659E0
8.965019833E0,1.945800757E0,-2.166819077E0,1.572825581E0,3.309837731E0
8.975099833E0,1.685623926E0,-1.822402287E0,4.949773300E-1,2.531300194E0
8.985180833E0,1.590315188E0,-1.345499285E0,-1.783441705E-1,2.090759998E0
8.995261833E0,1.456713035E0,-1.089261432E0,-6.556553078E-1,1.933490940E0
9.005341833E0,1.198892340E0,-1.167810588E0,-9.561589229E-1,1.927528028E0
9.015422833E0,9.065034905E-1,-1.499186332E0,-9.156482434E-1,1.976795372E0
9.025503833E0,6.484872061E-1,-1.968739969E0,-5.648819625E-1,2.148386453E0
9.035584833E0,4.845549604E-1,-2.317366168E0,-8.402390420E-2,2.368974353E0
9.045664833E0,3.752012104E-1,-2.466473091E0,4.429979217E-1,2.533873047E0
9.055745833E0,2.680799273E-1,-2.360794609E0,9.417864668E-1,2.555812939E0
9.065826833E0,2.218275744E-1,-1.958383380E0,1.239222048E0,2.328120319E0
9.075906833E0,3.170079660E-1,-1.518491499E0,1.268984960E0,2.004154015E0
9.085987833E0,3.572461653E-1,-1.181082013E0,1.053948927E0,1.622771668E0
9.096068833E0,2.850114173E-1,-9.467519224E-1,6.427879250E-1,1.179299380E0
9.106148833E0,1.088304242E-1,-8.431720054E-1,1.864606905E-1,8.703738743E-1
9.116229833E0,-2.829292238E-2,-7.732211798E-1,-1.504430115E-1,7.882287626E-1
9.126310833E0,-1.831546748E-1,-6.933534765E-1,-2.823152661E-1,7.707052535E-1
9.136391833E0,-3.462297186E-1,-6.109790719E-1,-3.053035945E-1,7.657550059E-1
9.146471833E0,-4.846885693E-1,-6.045722777E-1,-2.345288962E-1,8.095890632E-1
9.156552833E0,-5.970840409E-1,-6.855211312E-1,-2.760528982E-2,9.095112013E-1
9.166633833E0,-6.724216139E-1,-8.463254088E-1,2.913731879E-1,1.119515904E0
9.176713833E0,-7.036840448E-1,-1.000125307E0,5.134709036E-1,1.326300959E0
9.186794833E0,-6.669392645E-1,-1.023187895E0,6.895504475E-1,1.402569524E0
9.196875833E0,-5.884842485E-1,-9.746758854E-1,8.378568864E-1,1.413616268E0
9.206955833E0,-5.511488995E-1,-9.494738013E-1,9.128620452E-1,1.427789453E0
9.217036833E0,-4.825587210E-1,-9.148395735E-1,9.872012061E-1,1.429811381E0
9.227117833E0,-4.308424374E-1,-8.913752818E-1,1.171307808E0,1.533667852E0
9.237198833E0,-3.984102711E-1,-8.214852673E-1,1.438767638E0,1.704001498E0
9.247278833E0,-4.021583363E-1,-7.641392845E-1,1.635774366E0,1.849702125E0
9.257359833E0,-4.672635743E-1,-7.634756255E-1,1.607865021E0,1.840233737E0
9.267440833E0,-6.519815022E-1,-8.070327044E-1,1.405341445E0,1.746816030E0
9.277520833E0,-7.803989294E-1,-8.889621359E-1,1.157059312E0,1.654709165E0
9.287601833E0,-8.313620916E-1,-9.004542536E-1,9.373870218E-1,1.542943686E0
9.297682833E0,-8.450963241E-1,-8.104170728E-1,5.889689827E-1,1.310667041E0
9.307762833E0,-7.290787947E-1,-6.624351543E-1,2.733146471E-1,1.022290134E0
9.317843833E0,-6.589399812E-1,-5.305202150E-1,2.022715616E-1,8.698088192E-1
9.327924833E0,-6.366091722E-1,-3.695732653E-1,1.340544355E-1,7.482153622E-1
9.338005833E0,-6.475803030E-1,-1.558189416E-1,-7.608630896E-2,6.703945985E-1
9.348085833E0,-7.223656064E-1,-2.935068369E-2,-4.069276178E-1,8.296165488E-1
9.358166833E0,-7.122013915E-1,8.773162365E-3,-8.011188304E-1,1.071960433E0
9.368247833E0,-6.292685777E-1,4.646489918E-2,-1.006759558E0,1.188150974E0
9.378327833E0,-5.418117732E-1,1.091213232E-1,-1.033722239E0,1.172198416E0
9.388408833E0,-5.088165200E-1,1.451045036E-1,-9.360515177E-1,1.075240444E0
9.398489833E0,-5.098178557E-1,1.238416886E-1,-7.373906118E-1,9.049839358E-1
9.408569833E0,-4.278752679E-1,1.842720777E-1,-3.906191486E-1,6.079611523E-1
9.418650833E0,-3.763536966E-1,3.019712663E-1,-1.262331998E-1,4.987620388E-1
9.428731833E0,-3.972288412E-1,4.046045190E-1,-1.267664659E-1,5.810037056E-1
9.438812833E0,-5.136431041E-1,4.406759924E-1,-2.871281093E-1,7.351646889E-1
9.448892833E0,-6.323097146E-1,4.731403184E-1,-4.891429782E-1,9.289446642E-1
9.458973833E0,-7.264801459E-1,5.561637640E-1,-7.451668239E-1,1.179985225E0
9.469054833E0,-7.613998640E-1,6.930207700E-1,-8.898468196E-1,1.360821407E0
9.479134833E0,-7.322722515E-1,8.505599624E-1,-8.416423738E-1,1.402867344E0
9.489215833E0,-7.317391317E-1,9.353364033E-1,-6.881740129E-1,1.372545014E0
9.499296833E0,-7.088541529E-1,9.547368801E-1,-5.224908185E-1,1.298843091E0
9.509376833E0,-6.659823677E-1,8.689465320E-1,-3.040791875E-1,1.136250299E0
9.519457833E0,-6.603814660E-1,8.322353733E-1,-1.270716906E-1,1.069984398E0
9.529538833E0,-6.818866481E-1,8.716403443E-1,2.402854800E-2,1.106934353E0
9.539619833E0,-6.142406487E-1,9.830321413E-1,7.465549529E-2,1.161558095E0
9.549699833E0,-4.654652631E-1,1.105558791E0,7.983554363E-2,1.202202922E0
9.559780250E0,-2.826890494E-1,1.247073689E0,-1.745452344E-2,1.278831711E0
9.569861250E0,-1.536874853E-1,1.303080660E0,-1.210648459E-1,1.317685754E0
9.579941250E0,-1.293389484E-2,1.322063060E0,-1.053574705E-1,1.326317540E0
9.590022250E0,1.126482175E-1,1.287214240E0,-1.207566977E-2,1.292190366E0
9.600103250E0,1.768863134E-1,1.113972934E0,3.197900712E-2,1.128382525E0
9.610183250E0,9.475734562E-2,9.245792806E-1,2.706144029E-1,9.680175390E-1
9.620264250E0,-3.376810893E-2,7.033434445E-1,3.465679801E-1,7.848195021E-1
9.630345250E0,-1.148510098E-1,4.928723323E-1,3.752199215E-1,6.300030793E-1
9.640426250E0,-2.822981630E-1,3.164033639E-1,3.862682354E-1,5.735908745E-1
9.650506250E0,-5.538123062E-1,2.563629842E-1,4.023428160E-1,7.309649730E-1
9.660587250E0,-8.949261497E-1,4.114498544E-1,2.262480694E-1,1.010629499E0
9.670668250E0,-1.048217779E0,6.271431148E-1,-1.332907891E-1,1.228753609E0
9.680748250E0,-7.528839791E-1,6.577567971E-1,-1.536776912E-1,1.011481647E0
9.690829250E0,-3.542762183E-1,4.629994923E-1,8.581198275E-2,5.892740153E-1
9.700910250E0,-8.537022561E-2,1.908946341E-1,6.182378054E-1,6.526460149E-1
9.710990250E0,-3.508329391E-3,-6.990346313E-2,1.216659397E0,1.218670953E0
9.721071250E0,3.255773529E-2,-2.781228125E-1,1.655450832E0,1.678966873E0
9.731152250E0,5.084212482E-2,-3.948466855E-1,1.912069339E0,1.953073983E0
9.741233250E0,9.042426646E-3,-3.929404932E-1,1.815319555E0,1.857382320E0
9.751313250E0,1.284735605E-2,-3.030179179E-1,1.284270167E0,1.319596444E0
9.761394250E0,-5.242291957E-2,-1.969979578E-1,6.526282042E-1,6.837250404E-1
9.771475250E0,-1.954446450E-2,-3.817822516E-2,2.515706062E-1,2.552005738E-1
9.781555250E0,7.533874243E-2,5.908845305E-2,2.228128302E-1,2.425137701E-1
9.791636250E0,7.989810884E-2,1.379124284E-2,2.555724406E-1,2.681253039E-1
9.801717250E0,-2.871129066E-2,-1.654487211E-1,3.085002673E-1,3.512407044E-1
9.811797250E0,-1.477087073E-1,-4.712844121E-1,2.637842703E-1,5.599187446E-1
9.821878250E0,-1.122586468E-1,-7.958879113E-1,1.465054965E-1,8.170088321E-1
9.831959250E0,-1.160760015E-2,-1.050148821E0,2.369642615E-2,1.050480273E0
9.842040250E0,6.118570313E-2,-1.164993984E0,-1.281651199E-1,1.173618750E0
9.852120250E0,5.346840173E-2,-1.126554388E0,-3.367341328E-1,1.177018919E0
9.862201250E0,8.299976438E-2,-1.016230878E0,-4.126520419E-1,1.099952665E0
9.872282250E0,7.181257904E-2,-8.960290807E-1,-4.551332331E-1,1.007557155E0
9.882362250E0,3.431380033E-2,-8.412979728E-1,-4.014973086E-1,9.328235657E-1
9.892443250E0,4.234071180E-2,-8.951239318E-1,-3.470924753E-1,9.609957209E-1
9.902524250E0,6.504837379E-2,-1.013514261E0,-1.749264729E-1,1.030554084E0
9.912604250E0,-6.634440914E-2,-1.109103373E0,1.387076497E-2,1.111172476E0
9.922685250E0,-3.206143825E-1,-1.149408231E0,1.618573612E-1,1.204213714E0
9.932766250E0,-5.919260658E-1,-1.159351421E0,2.411304027E-1,1.323864062E0
9.942847250E0,-8.629538669E-1,-1.131153224E0,2.089058125E-1,1.437998133E0
9.952927250E0,-1.047488777E0,-1.116090211E0,1.468153989E-1,1.537675147E0
9.963008250E0,-1.187272460E0,-1.069769738E0,1.052662539E-1,1.601594260E0
9.973089250E0,-1.253740977E0,-9.509122163E-1,-7.427951932E-2,1.575315183E0
9.983169250E0,-1.123265330E0,-8.440122503E-1,-3.756263030E-1,1.454364741E0
9.993250250E0,-1.004918854E0,-7.546972007E-1,-6.015580380E-1,1.393306083E0
1.000333125E1,-9.070860194E-1,-6.357087010E-1,-5.600182486E-1,1.241189364E0
1.001341125E1,-7.934851442E-1,-4.982400763E-1,-3.412306416E-1,9.971460267E-1
1.002349225E1,-8.072540215E-1,-3.276621777E-1,-1.467955184E-1,8.834989995E-1
1.003357325E1,-8.291167608E-1,-1.355770504E-1,-1.968932927E-2,8.403590955E-1
1.004365325E1,-9.216588888E-1,-9.492954612E-2,1.093786007E-1,9.329685977E-1
1.005373425E1,-1.099425793E0,-1.834528828E-1,1.851702100E-1,1.129902669E0
1.006381525E1,-1.298304654E0,-2.535890651E-1,1.164174789E-1,1.327951587E0
1.007389625E1,-1.397980531E0,-3.118694329E-1,3.570894599E-2,1.432790018E0
1.008397625E1,-1.357897429E0,-3.142387247E-1,2.249189973E-2,1.393964594E0
1.009405725E1,-1.203700067E0,-2.320046532E-1,1.288515830E-1,1.232608105E0
1.010413825E1,-1.201653249E0,-1.037763834E-1,2.040023375E-1,1.223256728E0
1.011421825E1,-1.192687859E0,1.678150892E-4,2.228976148E-1,1.213337424E0
1.012429925E1,-1.104438903E0,6.778209329E-2,3.520292795E-1,1.161165069E0
1.013438025E1,-1.098207525E0,1.197275877E-2,5.047614759E-1,1.208713061E0
1.014446025E1,-1.111024037E0,-1.082132506E-1,4.623323250E-1,1.208236607E0
1.015454125E1,-1.123364732E0,-2.823193592E-1,3.231241536E-1,1.202523081E0
1.016462225E1,-1.120717259E0,-4.156896704E-1,2.484119403E-1,1.220865910E0
1.017470225E1,-1.097257061E0,-4.779631019E-1,2.705875057E-1,1.227044980E0
1.018478325E1,-1.148899084E0,-5.171534801E-1,2.767411155E-1,1.289962198E0
1.019486425E1,-1.208484405E0,-5.667109716E-1,2.938793045E-1,1.366733671E0
1.020494525E1,-1.307709315E0,-6.091646808E-1,3.251186389E-1,1.478812832E0
1.021502525E1,-1.375339527E0,-6.327435780E-1,2.513881731E-1,1.534639783E0
1.022510625E1,-1.378479336E0,-6.994468600E-1,2.061359864E-1,1.559462483E0
1.023518725E1,-1.361416722E0,-8.034963083E-1,3.523216403E-1,1.619627225E0
1.024526725E1,-1.183999189E0,-8.354922724E-1,4.878899199E-1,1.529031717E0
1.025534825E1,-1.007923154E0,-8.890200233E-1,5.640814787E-1,1.457550548E0
1.026542925E1,-9.252888402E-1,-9.758792424E-1,7.107208765E-1,1.521060123E0
1.027550925E1,-8.922659589E-1,-1.000436379E0,8.631612968E-1,1.594383553E0
1.028559025E1,-9.147236525E-1,-9.939225805E-1,8.219881278E-1,1.581222925E0
1.029567125E1,-9.289560677E-1,-9.373718190E-1,6.786547458E-1,1.483980312E0
1.030575225E1,-9.799684927E-1,-9.415479004E-1,6.437790281E-1,1.503762658E0
1.031583225E1,-9.205371004E-1,-9.575920755E-1,7.761213988E-1,1.538419826E0
1.032591325E1,-8.185109349E-1,-9.876157737E-1,9.592754889E-1,1.601734850E0
1.033599425E1,-7.203301176E-1,-1.119485689E0,1.194038858E0,1.788254032E0
1.034607425E1,-5.349577401E-1,-1.378426711E0,1.477626479E0,2.090363603E0
1.035615525E1,-3.812473775E-1,-1.756428738E0,1.795985152E0,2.540856969E0
1.036623625E1,-2.359706003E-1,-2.118112355E0,1.990169429E0,2.915965780E0
1.037631625E1,-1.715709020E-1,-2.516353934E0,2.115167112E0,3.291717729E0
1.038639725E1,-7.919132665E-2,-2.857130831E0,2.120995032E0,3.559225728E0
1.039647825E1,-2.685765021E-2,-3.030223033E0,2.041871679E0,3.654067996E0
1.040655825E1,-2.690457411E-2,-3.127062280E0,2.083702660E0,3.757799773E0
1.041663925E1,-2.072764859E-2,-3.261957545E0,2.477154200E0,4.095984569E0
1.042672025E1,-5.563304096E-2,-3.195617375E0,2.956688449E0,4.353971983E0
1.043680125E1,-1.159175420E-1,-3.026308322E0,3.189317000E0,4.398149823E0
1.044688125E1,-1.178751898E-1,-2.951130378E0,3.269384678E0,4.405898460E0
1.045696225E1,-8.316012427E-2,-2.983268429E0,3.066102133E0,4.278760149E0
1.046704325E1,-1.066473663E-1,-2.986204024E0,2.658714924E0,3.999694136E0
1.047712325E1,-2.963382049E-1,-2.926815024E0,2.088530706E0,3.607772585E0
1.048720425E1,-4.891106723E-1,-2.808465040E0,1.596571709E0,3.267376066E0
1.049728525E1,-6.272162050E-1,-2.559053811E0,1.360098029E0,2.965134604E0
1.050736525E1,-6.706804593E-1,-2.223294117E0,1.334946231E0,2.678606064E0
1.051744625E1,-6.535320376E-1,-2.002678085E0,1.509530057E0,2.591622007E0
1.052752725E1,-6.213312748E-1,-1.907581894E0,1.824549969E0,2.711808220E0
1.053760725E1,-6.571557033E-1,-1.873285050E0,1.915876461E0,2.758918830E0
1.054768825E1,-7.486840703E-1,-1.849096288E0,1.912339481E0,2.763462902E0
1.055776983E1,-8.329800162E-1,-1.843668610E0,1.832172984E0,2.729437213E0
1.056784983E1,-8.106806360E-1,-1.847329845E0,1.700074443E0,2.638197066E0
1.057793083E1,-7.293477666E-1,-1.841741076E0,1.584041710E0,2.536364819E0
1.058801183E1,-6.174493083E-1,-1.880945487E0,1.524752698E0,2.498813791E0
1.059809283E1,-6.592196243E-1,-1.868495596E0,1.491325336E0,2.479898700E0
1.060817283E1,-7.537313868E-1,-1.777963156E0,1.374603801E0,2.370400725E0
1.061825383E1,-8.186490753E-1,-1.645487761E0,1.065495424E0,2.124405041E0
1.062833483E1,-8.454436487E-1,-1.483971877E0,7.167481863E-1,1.852208265E0
1.063841483E1,-8.073445071E-1,-1.343421770E0,3.741054422E-1,1.611378939E0
1.064849583E1,-7.707404986E-1,-1.297832491E0,1.069870895E-1,1.513227124E0
1.065857683E1,-8.244895667E-1,-1.285272964E0,2.154991329E-2,1.527145716E0
1.066865683E1,-8.358438362E-1,-1.283341337E0,5.273896158E-2,1.532442920E0
1.067873783E1,-9.328935827E-1,-1.333075999E0,1.656562972E-1,1.635488937E0
1.068881883E1,-9.351840833E-1,-1.384396133E0,3.662929773E-1,1.710348640E0
1.069889883E1,-8.961226362E-1,-1.425129299E0,5.788801968E-1,1.780205489E0
1.070897983E1,-9.247916807E-1,-1.472761303E0,7.027113605E-1,1.875651557E0
1.071906083E1,-9.101055215E-1,-1.494924297E0,8.647318590E-1,1.952140339E0
1.072914083E1,-8.931197986E-1,-1.528934042E0,1.003288066E0,2.035163193E0
1.073922183E1,-8.705790746E-1,-1.530582957E0,9.307960403E-1,1.991726231E0
1.074930283E1,-8.483201864E-1,-1.508875753E0,8.018649352E-1,1.907705573E0
1.075938383E1,-8.424311632E-1,-1.490241262E0,8.495285136E-1,1.911075084E0
1.076946383E1,-8.713719571E-1,-1.540281733E0,9.756260580E-1,2.020792694E0
1.077954483E1,-9.028878647E-1,-1.589341627E0,1.192887542E0,2.182703367E0
1.078962583E1,-9.958539158E-1,-1.697322743E0,1.425496797E0,2.429952805E0
1.079970583E1,-1.133141569E0,-1.799876474E0,1.595568911E0,2.658835325E0
1.080978683E1,-1.196375406E0,-1.859013458E0,1.633949450E0,2.749006358E0
1.081986783E1,-1.208144097E0,-1.859516904E0,1.433480585E0,2.640507880E0
1.082994783E1,-1.239897548E0,-1.806932893E0,1.125117728E0,2.463380261E0
1.084002883E1,-1.227350592E0,-1.766274279E0,9.127725828E-1,2.336507670E0
1.085010983E1,-1.133824670E0,-1.719725180E0,8.997625279E-1,2.247795739E0
1.086018983E1,-9.321085940E-1,-1.679553639E0,1.037728751E0,2.183256242E0
1.087027083E1,-7.944959816E-1,-1.653721810E0,1.283404194E0,2.239005586E0
1.088035183E1,-7.167999342E-1,-1.664660196E0,1.469122288E0,2.333070083E0
1.089043183E1,-6.173148224E-1,-1.755401382E0,1.582415600E0,2.442652397E0
1.090051283E1,-5.982324341E-1,-1.811578506E0,1.663560920E0,2.531231649E0
1.091059383E1,-7.124757721E-1,-1.813086503E0,1.473947411E0,2.442831423E0
1.092067383E1,-8.197566842E-1,-1.773366367E0,1.228453231E0,2.307796922E0
1.093075483E1,-7.908974589E-1,-1.678280700E0,1.026352408E0,2.120269833E0
1.094083583E1,-6.739126539E-1,-1.535608639E0,9.789385056E-1,1.941796270E0
1.095091683E1,-6.205927715E-1,-1.425076382E0,1.083250494E0,1.894573756E0
1.096099683E1,-5.237333518E-1,-1.243091151E0,1.119722502E0,1.753097462E0
1.097107783E1,-4.274763416E-1,-1.121812297E0,1.062772960E0,1.603335653E0
1.098115883E1,-4.013676466E-1,-1.087242973E0,1.154063784E0,1.635559992E0
1.099123883E1,-4.247578248E-1,-1.108563675E0,1.187571838E0,1.679184178E0
1.100131983E1,-3.962736985E-1,-1.169906815E0,1.233668362E0,1.745752682E0
1.101140083E1,-4.051779847E-1,-1.258492132E0,1.358154999E0,1.895404085E0
1.102148083E1,-4.731485045E-1,-1.235581571E0,1.465689973E0,1.974532457E0
1.103156183E1,-6.063015917E-1,-1.093969025E0,1.291882657E0,1.798146448E0
1.104164283E1,-7.188047983E-1,-9.703963083E-1,9.669499594E-1,1.547042843E0
1.105172283E1,-6.633056585E-1,-9.071680266E-1,7.361229354E-1,1.343430386E0
1.106180383E1,-6.210392064E-1,-7.784719795E-1,5.498055017E-1,1.137538750E0
1.107188483E1,-6.599841477E-1,-6.421581799E-1,4.439708984E-1,1.022279982E0
1.108196483E1,-6.754918407E-1,-5.076418144E-1,4.723152763E-1,9.680243585E-1
1.109204583E1,-7.305189639E-1,-4.408636880E-1,5.074166965E-1,9.927187175E-1
1.110212683E1,-7.532162471E-1,-4.433259505E-1,5.741486299E-1,1.045714714E0
1.111220683E1,-7.829393984E-1,-5.123874146E-1,5.838661176E-1,1.102920943E0
1.112228783E1,-8.182978038E-1,-5.678014773E-1,5.454978579E-1,1.135595758E0
1.113236883E1,-8.470307292E-1,-6.478656471E-1,4.559331322E-1,1.159769793E0
1.114244983E1,-8.703834853E-1,-7.461257672E-1,3.458487725E-1,1.197448306E0
1.115252983E1,-8.005402485E-1,-8.130296087E-1,2.558437514E-1,1.169332228E0
1.116261083E1,-7.663227810E-1,-7.981092685E-1,1.754357654E-1,1.120270823E0
1.117269183E1,-7.238782811E-1,-7.203208351E-1,9.529207349E-2,1.025642458E0
1.118277183E1,-5.674398270E-1,-6.500934362E-1,1.829009056E-3,8.629094845E-1
1.119285283E1,-4.202135150E-1,-5.915177840E-1,-2.323741972E-2,7.259563793E-1
1.120293383E1,-3.045086655E-1,-5.204518944E-1,6.738565207E-2,6.067425548E-1
1.121301383E1,-2.575812516E-1,-4.516588175E-1,2.578785825E-1,5.803836248E-1
1.122309483E1,-2.721419880E-1,-4.874437773E-1,4.902732450E-1,7.429875856E-1
1.123317583E1,-2.719868906E-1,-5.638540220E-1,6.090249324E-1,8.733954403E-1
1.124325583E1,-2.903440779E-1,-6.305818623E-1,5.860360193E-1,9.084995237E-1
1.125333683E1,-3.142435487E-1,-6.237704408E-1,4.709920514E-1,8.424203720E-1
1.126341783E1,-1.851139306E-1,-6.328225154E-1,2.958369523E-1,7.226693612E-1
1.127349783E1,4.244362280E-2,-6.351941460E-1,2.202049720E-1,6.736195469E-1
1.128357883E1,2.324551812E-1,-6.136190897E-1,2.162054765E-1,6.908752468E-1
1.129365983E1,3.752272305E-1,-5.757010657E-1,2.315175802E-1,7.251396979E-1
1.130373983E1,5.361714028E-1,-5.629401022E-1,2.154734051E-1,8.067280336E-1
1.131382083E1,7.683437249E-1,-5.547978544E-1,1.646061373E-1,9.618980816E-1
1.132390183E1,9.945678207E-1,-4.681959128E-1,3.277598262E-2,1.099748529E0
1.133398183E1,1.114580168E0,-4.038531518E-1,-9.679480791E-3,1.185529422E0
1.134406283E1,1.102032189E0,-4.917315406E-1,-6.775811970E-2,1.208662905E0
1.135414383E1,1.132750390E0,-6.149990326E-1,-8.601488113E-2,1.291799449E0
1.136422383E1,1.135404149E0,-7.746017075E-1,6.554553330E-2,1.376025655E0
1.137430483E1,1.056672560E0,-8.884411490E-1,3.393267882E-1,1.421628377E0
1.138438583E1,9.279832372E-1,-9.445954692E-1,5.694316810E-1,1.441411089E0
1.139446683E1,8.690704930E-1,-9.047238904E-1,5.943057364E-1,1.388167190E0
1.140454683E1,8.804086827E-1,-7.863329762E-1,3.803871059E-1,1.240215041E0
1.141462783E1,9.496240747E-1,-6.267414111E-1,-1.412394941E-2,1.137888468E0
1.142470883E1,9.410466479E-1,-4.657049990E-1,-3.780183989E-1,1.115951544E0
1.143478883E1,8.764992343E-1,-2.076036376E-1,-6.456811273E-1,1.108266347E0
1.144486983E1,8.417881157E-1,1.258917224E-1,-8.616831207E-1,1.211178665E0
1.145495083E1,7.989688092E-1,4.331558883E-1,-9.938284403E-1,1.346725715E0
1.146503083E1,8.371995132E-1,6.355923414E-1,-1.117175454E0,1.533936650E0
1.147511183E1,9.902379575E-1,6.875536233E-1,-1.287856264E0,1.764050723E0
1.148519283E1,1.200540377E0,6.216461474E-1,-1.544896941E0,2.052912002E0
1.149527283E1,1.477057106E0,5.269960982E-1,-1.655139175E0,2.280111460E0
1.150535383E1,1.776200220E0,3.686856580E-1,-1.395780078E0,2.288890203E0
1.151543483E1,1.985785772E0,2.657711542E-1,-5.110279369E-1,2.067638506E0
1.152551483E1,2.016845450E0,2.434792292E-1,4.025404519E-1,2.070986847E0
1.153559583E1,1.934194472E0,1.117870688E-1,9.179298270E-1,2.143874943E0
1.154567683E1,1.808792454E0,-1.581461334E-1,1.114108590E0,2.130253105E0
1.155575683E1,1.718671512E0,-3.674384469E-1,1.096784459E0,2.071660911E0
1.156583746E1,1.677201743E0,-3.004977679E-1,8.155784100E-1,1.889040163E0
1.157591846E1,1.748695210E0,-1.209940946E-1,4.429587454E-1,1.807978694E0
1.158599846E1,1.889515167E0,8.154936254E-2,2.367572701E-1,1.906035642E0
1.159607946E1,2.002900864E0,2.555753642E-1,2.427617759E-1,2.033682354E0
1.160616046E1,2.004511041E0,3.560954332E-1,3.951057172E-1,2.073879697E0
1.161624146E1,1.918986303E0,3.007889593E-1,4.744354767E-1,1.999517804E0
1.162632146E1,1.764140630E0,1.668292487E-1,4.310888976E-1,1.823694547E0
1.163640246E1,1.491236604E0,-2.097980976E-3,2.014564598E-1,1.504784276E0
1.164648346E1,1.233462102E0,-1.500003773E-1,-2.571891958E-1,1.268887368E0
1.165656346E1,1.081072699E0,-2.415759605E-1,-7.061553705E-1,1.313671394E0
1.166664446E1,1.031509506E0,-2.369262546E-1,-1.087209644E0,1.517290585E0
1.167672546E1,1.082172414E0,-1.665813267E-1,-1.250832864E0,1.662356558E0
1.168680546E1,1.238458840E0,-1.977528334E-2,-1.158252729E0,1.695795019E0
1.169688646E1,1.349608709E0,1.887756032E-1,-9.431506222E-1,1.657290859E0
1.170696746E1,1.267581921E0,3.744790792E-1,-7.628716081E-1,1.526096851E0
1.171704746E1,1.097660372E0,4.181039858E-1,-6.565902776E-1,1.345652269E0
1.172712846E1,9.457019086E-1,3.162823266E-1,-6.043997848E-1,1.166055620E0
1.173720946E1,8.285536739E-1,2.430038506E-1,-6.283341926E-1,1.067874487E0
1.174728946E1,6.724365243E-1,2.159329963E-1,-7.503228986E-1,1.030428256E0
1.175737046E1,5.656561339E-1,2.248616946E-1,-8.948251390E-1,1.082239194E0
1.176745146E1,4.967756411E-1,3.063864988E-1,-9.906048703E-1,1.149763773E0
1.177753146E1,3.547695771E-1,4.141629624E-1,-1.046932268E0,1.180448892E0
1.178761246E1,1.285237004E-1,5.224393630E-1,-1.169658893E0,1.287463846E0
1.179769346E1,-8.607934669E-2,6.097195816E-1,-1.017381025E0,1.189214771E0
1.180777346E1,-2.667966096E-1,7.286759216E-1,-8.914904720E-1,1.181907057E0
1.181785446E1,-3.693211041E-1,7.942249632E-1,-7.429647624E-1,1.148559101E0
1.182793546E1,-4.097804743E-1,7.671850991E-1,-7.030996156E-1,1.118410516E0
1.183801546E1,-3.985427105E-1,7.662366807E-1,-7.161786675E-1,1.121992347E0
1.184809646E1,-3.881649260E-1,8.431527096E-1,-7.142958641E-1,1.171237415E0
1.185817746E1,-4.524699725E-1,9.806447232E-1,-7.238683408E-1,1.300145578E0
1.186825746E1,-5.044356398E-1,1.161440631E0,-7.192414391E-1,1.456265052E0
1.187833846E1,-5.445137715E-1,1.370517767E0,-7.692591065E-1,1.663302068E0
1.188841946E1,-5.808571404E-1,1.570041722E0,-8.421627760E-1,1.873943480E0
1.189850046E1,-6.571809925E-1,1.690950447E0,-8.521673620E-1,2.004342657E0
1.190858046E1,-7.616078787E-1,1.711793432E0,-7.999166429E-1,2.037191682E0
1.191866146E1,-8.018200578E-1,1.565078605E0,-5.933742750E-1,1.855930892E0
1.192874246E1,-6.991487981E-1,1.350410947E0,-2.435803860E-1,1.540048756E0
1.193882246E1,-5.699093986E-1,1.151493933E0,2.229052162E-1,1.304002199E0
1.194890346E1,-4.228510478E-1,1.022869806E0,6.402362001E-1,1.278658688E0
1.195898446E1,-3.302505939E-1,8.663182086E-1,8.406501013E-1,1.251505208E0
1.196906446E1,-2.734905021E-1,6.960467041E-1,8.120607251E-1,1.103956833E0
1.197914546E1,-2.260774769E-1,6.030192572E-1,5.078365266E-1,8.201470526E-1
1.198922646E1,-2.953988497E-1,6.438760918E-1,2.687146425E-2,7.089139423E-1
1.199930646E1,-4.331969650E-1,7.373543590E-1,-3.787393606E-1,9.353045304E-1
1.200938746E1,-6.594206223E-1,9.475980145E-1,-5.157004470E-1,1.264406780E0
1.201946846E1,-7.935512178E-1,1.271029147E0,-6.082004750E-1,1.617141443E0
1.202954846E1,-8.438170995E-1,1.397917235E0,-7.088737410E-1,1.780084794E0
1.203962946E1,-5.797450000E-1,1.364236688E0,-6.258169663E-1,1.609003692E0
1.204971046E1,-2.087591936E-1,1.171952755E0,-5.503469539E-1,1.311463088E0
1.205979046E1,1.257149903E-1,8.502044517E-1,-2.565307993E-1,8.969168966E-1
1.206987146E1,3.742781543E-1,5.050246006E-1,3.272704142E-1,7.086888655E-1
1.207995246E1,4.250115940E-1,1.654533988E-1,1.091190428E0,1.182669114E0
1.209003246E1,4.081607956E-1,-1.377609855E-1,1.730767647E0,1.783572250E0
1.210011346E1,4.525342919E-1,-4.382049590E-1,1.853949770E0,1.958045102E0
1.211019446E1,6.085063574E-1,-7.414860016E-1,1.602398459E0,1.867555167E0
1.212027446E1,7.698797885E-1,-8.940977454E-1,1.156863431E0,1.652409957E0
1.213035546E1,8.366388383E-1,-1.009888403E0,7.215516740E-1,1.496821950E0
1.214043646E1,8.102226529E-1,-1.157076269E0,5.930263656E-1,1.531981237E0
1.215051646E1,6.197940418E-1,-1.278710049E0,6.823841000E-1,1.576354054E0
1.216059746E1,2.573210505E-1,-1.357447486E0,8.819694507E-1,1.639130230E0
1.217067846E1,-1.135962705E-1,-1.492046297E0,9.569594067E-1,1.776197504E0
1.218075846E1,-4.849101788E-1,-1.700734593E0,8.862121904E-1,1.978132474E0
1.219083946E1,-7.134820779E-1,-1.843385605E0,6.652073193E-1,2.085576166E0
1.220092046E1,-8.264577395E-1,-1.875530673E0,2.812592590E-1,2.068756746E0
1.221100046E1,-7.344967517E-1,-1.725483518E0,-1.757392359E-1,1.883524125E0
1.222108146E1,-4.900466654E-1,-1.479694639E0,-5.051889074E-1,1.638553567E0
1.223116246E1,-3.300957157E-1,-1.322351913E0,-6.048710704E-1,1.491122656E0
1.224124346E1,-2.782004343E-1,-1.248339611E0,-6.024345356E-1,1.413744898E0
1.225132346E1,-2.446635827E-1,-1.245408987E0,-5.476853013E-1,1.382339684E0
1.226140446E1,-2.767617269E-1,-1.374858155E0,-3.737013996E-1,1.451373397E0
1.227148546E1,-3.428142138E-1,-1.501153920E0,-9.097975194E-2,1.542485654E0
1.228156546E1,-3.718875933E-1,-1.564352966E0,2.279080939E-1,1.624020530E0
1.229164646E1,-4.289011618E-1,-1.646151420E0,5.327795792E-1,1.782589348E0
1.230172746E1,-4.842349716E-1,-1.615081070E0,6.798119098E-1,1.817997416E0
1.231180746E1,-4.879564320E-1,-1.449055229E0,6.039495492E-1,1.643963988E0
1.232188846E1,-3.541287223E-1,-1.268534140E0,4.295078105E-1,1.385302485E0
1.233196946E1,-1.445193435E-1,-1.041959796E0,1.707533151E-1,1.065702938E0
1.234204946E1,6.444362551E-3,-8.235890955E-1,-9.384956539E-2,8.289440686E-1
1.235213046E1,8.734629214E-2,-6.870349753E-1,-2.014102668E-1,7.212576014E-1
1.236221146E1,1.752081625E-1,-5.581389534E-1,-1.416721880E-1,6.019036471E-1
1.237229146E1,2.339352576E-1,-4.962783355E-1,-9.282922626E-2,5.564487005E-1
1.238237246E1,1.625390004E-1,-5.073740119E-1,-8.259776831E-2,5.391379284E-1
1.239245346E1,1.247785588E-1,-6.377242362E-1,-1.199287319E-1,6.607910343E-1
1.240253346E1,8.732217237E-2,-7.639738083E-1,-2.525997162E-2,7.693628583E-1
1.241261446E1,6.145599067E-2,-8.498156118E-1,8.943959534E-2,8.567163207E-1
1.242269546E1,4.415400647E-2,-8.406103402E-1,2.476015162E-1,8.774291033E-1
1.243277546E1,3.505712762E-2,-7.833023643E-1,2.986360145E-1,8.390322195E-1
1.244285646E1,5.328275263E-4,-6.767064536E-1,3.158835465E-1,7.468027337E-1
1.245293746E1,8.132570654E-2,-5.960920608E-1,3.271025991E-1,6.847888184E-1
1.246301746E1,2.525033102E-1,-5.094433415E-1,3.661216539E-1,6.762658540E-1
1.247309846E1,4.571927686E-1,-4.551297247E-1,4.132086968E-1,7.661003336E-1
1.248317946E1,6.069816229E-1,-4.279705775E-1,4.786881566E-1,8.835880584E-1
1.249325946E1,6.367530137E-1,-3.834896386E-1,5.639124942E-1,9.330144717E-1
1.250334046E1,6.670372054E-1,-3.806794667E-1,4.939762866E-1,9.131637649E-1
1.251342146E1,6.922647250E-1,-3.778728032E-1,2.739987713E-1,8.349213325E-1
1.252350146E1,6.905747335E-1,-3.612959468E-1,6.038711965E-2,7.817127528E-1
1.253358246E1,6.027419530E-1,-2.557917112E-1,-1.860852993E-1,6.807018437E-1
1.254366346E1,5.343451712E-1,-1.832950079E-1,-4.113744253E-1,6.988209640E-1
1.255374346E1,5.242156009E-1,-1.576257312E-1,-4.775222218E-1,7.264126511E-1
1.256382458E1,4.884781498E-1,-1.413640398E-1,-3.606966072E-1,6.234554812E-1
1.257390558E1,4.201445910E-1,-1.548272538E-1,-2.232636505E-1,5.003394982E-1
1.258398558E1,3.796290144E-1,-1.698183453E-1,-1.681466264E-1,4.485863874E-1
1.259406658E1,3.565355824E-1,-7.541914165E-2,-3.165811193E-1,4.827310571E-1
1.260414758E1,2.749219005E-1,1.103252649E-2,-4.775619829E-1,5.511526245E-1
1.261422858E1,1.713035381E-1,3.964295268E-2,-4.825642759E-1,5.135997919E-1
1.262430858E1,1.527609940E-1,2.037403822E-2,-4.442696911E-1,4.702409820E-1
1.263438958E1,1.538767889E-1,3.846649289E-2,-3.314488345E-1,3.674453254E-1
1.264447058E1,1.629544450E-1,1.962302184E-1,-2.866100460E-1,3.836740391E-1
1.265455058E1,1.875326313E-1,4.255264413E-1,-4.685502541E-1,6.601367894E-1
1.266463158E1,1.503612967E-1,6.019141334E-1,-5.807717711E-1,8.498264491E-1
1.267471258E1,2.751714304E-2,7.119762737E-1,-7.477653265E-1,1.032869978E0
1.268479258E1,-1.415042268E-1,8.454243529E-1,-7.333706510E-1,1.128094985E0
1.269487358E1,-3.298426044E-1,1.048719762E0,-5.451131111E-1,1.227093145E0
1.270495458E1,-4.007396556E-1,1.182023415E0,-3.858121526E-1,1.306377680E0
1.271503458E1,-3.087459965E-1,1.245599021E0,-2.717014003E-1,1.311740318E0
1.272511558E1,-1.588137393E-1,1.343349264E0,-2.667651808E-1,1.378757670E0
1.273519658E1,-2.174850666E-1,1.362764359E0,-4.361245197E-1,1.447284025E0
1.274527658E1,-3.303672458E-1,1.269290770E0,-6.541338623E-1,1.465650942E0
1.275535758E1,-2.934406172E-1,1.065324685E0,-7.579535151E-1,1.339969258E0
1.276543858E1,-1.878485271E-1,8.726396334E-1,-4.346539450E-1,9.928298197E-1
1.277551858E1,-1.081605526E-1,8.057983571E-1,1.176103109E-1,8.214876035E-1
1.278559958E1,-1.533527322E-1,8.155936128E-1,4.560348737E-1,9.469307302E-1
1.279568058E1,-1.752311128E-1,8.940123761E-1,6.149440688E-1,1.099145249E0
1.280576058E1,-9.463148430E-2,1.138866870E0,4.053079391E-1,1.212537584E0
1.281584158E1,-5.844072774E-2,1.322346066E0,-1.826658475E-1,1.336181592E0
1.282592258E1,3.803657636E-2,1.304310914E0,-8.366517752E-1,1.550051591E0
1.283600258E1,8.874538466E-3,1.265561416E0,-1.153098409E0,1.712121606E0
1.284608358E1,-1.015951527E-1,1.265119366E0,-1.216969299E0,1.758369376E0
1.285616458E1,-1.784397724E-1,1.285765300E0,-1.261724473E0,1.810243576E0
1.286624458E1,-2.195449676E-1,1.196082460E0,-1.276683404E0,1.763160163E0
1.287632558E1,-1.743389739E-1,1.024178998E0,-1.193973370E0,1.582690464E0
1.288640658E1,-8.194127217E-2,7.701753652E-1,-9.552572823E-1,1.229797114E0
1.289648658E1,9.276695341E-2,5.408469826E-1,-6.759591794E-1,8.706560621E-1
1.290656758E1,3.339425258E-1,2.813083756E-1,-5.584529489E-1,7.088876561E-1
1.291664858E1,4.838819459E-1,9.649075270E-3,-5.290426236E-1,7.170222729E-1
1.292672858E1,5.897193266E-1,-1.987725878E-1,-4.715533841E-1,7.807957607E-1
1.293680958E1,7.235733488E-1,-4.113177073E-1,-3.741732699E-1,9.125493320E-1
1.294689058E1,9.091152956E-1,-5.377122903E-1,-3.781903070E-1,1.121897070E0
1.295697058E1,1.090125943E0,-6.778197634E-1,-3.428748786E-1,1.328675049E0
1.296705158E1,1.176874503E0,-8.768057746E-1,-2.119416869E-1,1.482815309E0
1.297713258E1,1.338202984E0,-1.047239247E0,3.948823535E-1,1.744542731E0
1.298721258E1,1.433887990E0,-1.120896038E0,9.652992904E-1,2.060156648E0
1.299729358E1,1.395995986E0,-9.512630492E-1,1.435525941E0,2.216853831E0
1.300737458E1,1.296342036E0,-5.774107915E-1,1.835193656E0,2.319879663E0
1.301745458E1,1.496917613E0,-1.433129168E-1,2.111433080E0,2.592190306E0
1.302753558E1,1.983696269E0,1.797761536E-1,2.554157352E0,3.238995235E0
1.303761658E1,2.589584463E0,3.848894620E-1,3.134091218E0,4.083701182E0
1.304769658E1,3.267392239E0,4.605764061E-1,3.767111953E0,5.007905265E0
1.305777758E1,4.014447129E0,5.170406288E-1,4.437108727E0,6.005917966E0
1.306785858E1,4.426296056E0,5.181878525E-1,5.084023032E0,6.760762207E0
1.307793958E1,4.432187710E0,3.151824653E-1,5.465656180E0,7.043935360E0
1.308801958E1,4.144611704E0,-7.899588346E-3,5.438433883E0,6.837721234E0
1.309810058E1,3.835561214E0,-3.002001446E-1,5.028354616E0,6.331350574E0
1.310818158E1,3.789332542E0,-4.131168956E-1,4.472710669E0,5.876635723E0
1.311826158E1,4.058196874E0,-1.889521891E-1,3.784691607E0,5.552346833E0
1.312834258E1,4.429614936E0,2.486183470E-1,2.967919781E0,5.337775509E0
1.313842358E1,4.531071728E0,5.356254190E-1,2.155553246E0,5.046178296E0
1.314850358E1,4.241347748E0,4.968776751E-1,1.287937540E0,4.460347660E0
1.315858458E1,3.866136305E0,2.744571930E-1,8.287504327E-1,3.963478770E0
1.316866558E1,3.465047132E0,-4.924700439E-2,8.572503465E-1,3.569853645E0
1.317874558E1,2.884787577E0,-5.392085928E-1,1.177157362E0,3.162031740E0
1.318882658E1,2.180077638E0,-1.043042700E0,1.257354848E0,2.724264634E0
1.319890758E1,1.504984139E0,-1.456457804E0,9.461859119E-1,2.298154558E0
1.320898758E1,9.667137319E-1,-1.745197406E0,4.783320612E-1,2.051597179E0
1.321906858E1,5.579343009E-1,-1.954984394E0,1.077443039E-1,2.035893784E0
1.322914958E1,3.596993646E-1,-1.979614035E0,-1.422469693E-1,2.017049717E0
1.323922958E1,3.823266274E-1,-1.784752650E0,-2.199827778E-1,1.838452636E0
1.324931058E1,4.306605890E-1,-1.523425380E0,-1.776132685E-1,1.593059919E0
1.325939158E1,3.386762854E-1,-1.414749030E0,-1.945573300E-1,1.467674691E0
1.326947158E1,1.408044612E-1,-1.405640237E0,-5.886035317E-1,1.530393574E0
1.327955258E1,-8.085383624E-2,-1.443924297E0,-1.290112705E0,1.938000389E0
1.328963358E1,-2.871716711E-1,-1.628005171E0,-1.773645279E0,2.424600170E0
1.329971358E1,-5.042974994E-1,-1.790083557E0,-1.849153299E0,2.622609965E0
1.330979458E1,-7.801349276E-1,-1.906256622E0,-1.759133660E0,2.708685299E0
1.331987558E1,-1.010664913E0,-1.929601046E0,-1.704170417E0,2.765682660E0
1.332995558E1,-1.208532059E0,-1.914225792E0,-1.559659406E0,2.749063038E0
1.334003658E1,-1.293865155E0,-1.893078752E0,-1.461166274E0,2.718977948E0
1.335011758E1,-1.288321118E0,-1.826621053E0,-1.318260031E0,2.595019323E0
1.336019758E1,-1.314832394E0,-1.747810526E0,-1.235277516E0,2.511879058E0
1.337027858E1,-1.312354344E0,-1.711835532E0,-1.173825326E0,2.455711854E0
1.338035958E1,-1.190981349E0,-1.586349607E0,-1.104292284E0,2.270331055E0
1.339043958E1,-1.003330166E0,-1.422908235E0,-1.011339097E0,2.013491007E0
1.340052058E1,-8.430851743E-1,-1.224775917E0,-9.730494824E-1,1.776990139E0
1.341060158E1,-7.387983289E-1,-1.129884378E0,-1.143515114E0,1.769205611E0
1.342068158E1,-5.812372094E-1,-1.228261442E0,-1.101194722E0,1.749026209E0
1.343076258E1,-3.637014914E-1,-1.289284154E0,-7.875398415E-1,1.553947041E0
1.344084358E1,-2.500797124E-1,-1.232677259E0,-5.173955548E-1,1.360048252E0
1.345092358E1,-2.302016643E-1,-1.143093238E0,-3.440472454E-1,1.215739883E0
1.346100458E1,-1.573485732E-1,-1.067183515E0,-2.838256019E-1,1.115435431E0
1.347108558E1,-9.784438312E-2,-9.921877116E-1,-2.442057458E-1,1.026472808E0
1.348116558E1,-1.281769605E-1,-8.857754034E-1,-1.449817121E-1,9.066681285E-1
1.349124658E1,-2.194072656E-1,-7.196671164E-1,-1.649265647E-1,7.702344308E-1
1.350132758E1,-3.382647876E-1,-5.411685795E-1,-3.214740694E-1,7.145852470E-1
1.351140758E1,-4.296251933E-1,-2.892956722E-1,-5.269569218E-1,7.388865881E-1
1.352148858E1,-4.537461273E-1,-7.411930561E-3,-7.665816665E-1,8.908355270E-1
1.353156958E1,-3.667211397E-1,2.400153387E-1,-1.009670302E0,1.100693361E0
1.354164958E1,-1.815504912E-1,2.744250333E-1,-9.049805832E-1,9.629431633E-1
1.355173058E1,-5.321492493E-2,2.968309790E-1,-5.993118301E-1,6.709061991E-1
1.356181183E1,-9.583981141E-2,3.082388967E-1,-2.811084008E-1,4.280402083E-1
1.357189283E1,-1.341064757E-1,2.398451847E-1,-1.374121991E-1,3.072334160E-1
1.358197283E1,-1.321217845E-1,8.171542346E-2,-4.197394520E-2,1.609204414E-1
1.359205383E1,-1.657599391E-1,-1.733991802E-2,1.578941184E-1,2.295813207E-1
1.360213383E1,2.182283208E-2,-1.355372894E-1,4.913906479E-1,5.102071752E-1
1.361221483E1,3.609000903E-1,-2.739215881E-1,8.370414922E-1,9.517984930E-1
1.362229583E1,6.267757635E-1,-2.357345921E-1,8.143706676E-1,1.054333078E0
1.363237683E1,7.949311607E-1,-6.217812181E-2,4.835395914E-1,9.325192789E-1
1.364245683E1,8.477261093E-1,3.011286825E-1,5.045503914E-2,9.010348222E-1
1.365253783E1,7.109002398E-1,7.514379627E-1,-2.842267209E-1,1.072764183E0
1.366261883E1,4.820266244E-1,1.051087884E0,-6.110597634E-1,1.307872104E0
1.367269883E1,1.895850040E-1,1.119578075E0,-1.076848378E0,1.564928103E0
1.368277983E1,1.493525058E-2,8.883920324E-1,-1.595230358E0,1.825985586E0
1.369286083E1,2.269851109E-1,3.736575454E-1,-1.695848660E0,1.751298055E0
1.370294083E1,6.894810118E-1,-1.073063475E-1,-1.366407759E0,1.534264932E0
1.371302183E1,1.026564954E0,-2.129094011E-1,-8.929628009E-1,1.377152345E0
1.372310283E1,1.269381840E0,-1.492805851E-1,-5.627664399E-1,1.396538941E0
1.373318283E1,1.322392405E0,-1.793475527E-1,-5.447847900E-1,1.441415167E0
1.374326383E1,1.053287168E0,-3.103982735E-1,-8.210131046E-1,1.371066543E0
1.375334483E1,6.465256114E-1,-5.060022551E-1,-1.187853381E0,1.443963055E0
1.376342483E1,2.395436145E-1,-6.272852021E-1,-1.442041201E0,1.590707608E0
1.377350583E1,-1.169340804E-2,-7.292261446E-1,-1.426547834E0,1.602169226E0
1.378358683E1,-1.292813534E-1,-7.742649078E-1,-1.124051488E0,1.371018440E0
1.379366683E1,-1.188263856E-1,-7.955692381E-1,-6.710331926E-1,1.047537908E0
1.380374783E1,-8.317620412E-2,-8.160912108E-1,-2.162195098E-1,8.483360312E-1
1.381382883E1,-4.769895405E-2,-8.183815652E-1,4.503554732E-2,8.210065633E-1
1.382390883E1,7.613074780E-4,-7.799758834E-1,2.501164037E-1,8.190977803E-1
1.383398983E1,2.523333755E-1,-7.057764709E-1,5.640703690E-1,9.380660640E-1
1.384407083E1,5.886428542E-1,-6.772601849E-1,9.302043021E-1,1.292463466E0
1.385415083E1,9.871485811E-1,-7.313896143E-1,1.431868508E0,1.886700960E0
1.386423183E1,1.374305301E0,-7.052893978E-1,1.692207599E0,2.291225600E0
1.387431283E1,1.648543516E0,-6.888756788E-1,1.884773367E0,2.597039867E0
1.388439283E1,1.776106519E0,-6.907959044E-1,2.035566334E0,2.788419561E0
1.389447383E1,1.694422085E0,-6.012762022E-1,2.022917638E0,2.706435856E0
1.390455483E1,1.437726249E0,-5.560263544E-1,1.607887825E0,2.227448166E0
1.391463483E1,9.511199386E-1,-6.116690433E-1,8.604435110E-1,1.420961362E0
1.392471583E1,4.670445961E-1,-6.285511243E-1,5.319387496E-2,7.848800921E-1
1.393479683E1,5.667165264E-2,-4.661295068E-1,-5.049825007E-1,6.895619764E-1
1.394487683E1,-3.569653527E-1,-1.689605588E-1,-9.357965791E-1,1.015720026E0
1.395495783E1,-6.501272039E-1,1.205193007E-1,-1.213272105E0,1.381745086E0
1.396503883E1,-8.055445880E-1,2.933717662E-1,-1.495243555E0,1.723578360E0
1.397511883E1,-8.752447873E-1,3.455417937E-1,-1.671441212E0,1.918115819E0
1.398519983E1,-8.272885557E-1,3.088592863E-1,-1.599582440E0,1.827146517E0
1.399528083E1,-7.233898193E-1,2.585843414E-1,-1.319476252E0,1.526819004E0
1.400536083E1,-6.636089098E-1,2.544731641E-1,-1.079074997E0,1.292105346E0
1.401544183E1,-4.582994273E-1,1.243416256E-1,-8.102621216E-1,9.391612803E-1
1.402552283E1,-2.531269889E-1,-1.168975353E-2,-5.467859995E-1,6.026481993E-1
1.403560283E1,-1.789277226E-2,-3.972189009E-2,-3.369610047E-1,3.397656524E-1
1.404568383E1,2.582339470E-1,2.449749470E-2,-1.792358708E-1,3.152941421E-1
1.405576483E1,4.330865257E-1,6.792710423E-2,1.374896747E-1,4.594360030E-1
1.406584483E1,5.499550442E-1,1.903631222E-1,4.674223262E-1,7.464397498E-1
1.407592583E1,4.423712464E-1,3.123956823E-1,4.302328652E-1,6.916528756E-1
1.408600683E1,1.839261418E-1,2.831712985E-1,1.694365221E-1,3.777876983E-1
1.409608683E1,-1.427382816E-1,1.240533578E-1,-2.632925195E-1,3.241703309E-1
1.410616783E1,-5.264091108E-1,-2.359526932E-2,-7.476331794E-1,9.146686065E-1
1.411624883E1,-7.336300481E-1,1.172337502E-1,-1.049851783E0,1.286135905E0
1.412632883E1,-7.205998204E-1,3.983211011E-1,-1.108882933E0,1.381139081E0
1.413640983E1,-5.594119654E-1,5.883497626E-1,-1.067385244E0,1.341047519E0
1.414649083E1,-3.258588964E-1,7.426653850E-1,-8.956028187E-1,1.208238513E0
1.415657083E1,-3.717471870E-1,8.676759320E-1,-8.362483174E-1,1.261098229E0
1.416665183E1,-6.681489804E-1,1.121428719E0,-1.054329581E0,1.677985786E0
1.417673283E1,-9.934626970E-1,1.445760908E0,-1.455669014E0,2.279509818E0
1.418681283E1,-1.099677077E0,1.787693215E0,-1.837385777E0,2.789466472E0
1.419689383E1,-1.207759642E0,2.062093105E0,-1.842995596E0,3.017870788E0
1.420697483E1,-1.262129392E0,2.149753393E0,-1.513554695E0,2.916377559E0
1.421705483E1,-1.044852267E0,2.112280927E0,-8.975247985E-1,2.521705323E0
1.422713583E1,-6.484714186E-1,1.963923032E0,-2.435037875E-1,2.082499208E0
1.423721683E1,-1.820418034E-1,1.626691301E0,4.028000683E-1,1.685678410E0
1.424729683E1,2.368787460E-1,1.298464283E0,7.232561374E-1,1.505064940E0
1.425737783E1,3.853530000E-1,1.138362840E0,2.817422390E-1,1.234400899E0
1.426745883E1,4.675899951E-1,1.077291012E0,-1.279920423E-1,1.181345966E0
1.427753883E1,6.935446805E-1,9.646677911E-1,-1.149971902E-1,1.193655111E0
1.428761983E1,6.238534713E-1,6.650593847E-1,2.773334384E-3,9.118688668E-1
1.429770083E1,1.924670966E-1,1.986351782E-1,7.781006813E-2,2.873219866E-1
1.430778083E1,-3.801597954E-1,-1.319623017E-1,-2.180075884E-2,4.030022236E-1
1.431786183E1,-8.922203507E-1,-1.421943444E-1,-2.737666368E-1,9.440469041E-1
1.432794283E1,-1.325152291E0,1.455360281E-1,-4.581989282E-1,1.409665062E0
1.433802283E1,-1.248375425E0,7.036714733E-1,-5.714138871E-1,1.542760051E0
1.434810383E1,-1.178517278E0,1.135326381E0,-7.788719290E-1,1.812321839E0
1.435818483E1,-9.103929122E-1,1.285878736E0,-1.242339199E0,2.006416224E0
1.436826483E1,-6.223035206E-1,1.566003050E0,-1.460498815E0,2.229951572E0
1.437834583E1,-2.025892116E-1,1.893179909E0,-1.686668531E0,2.543624047E0
1.438842683E1,1.421702246E-1,1.943706284E0,-1.746900115E0,2.617224962E0
1.439850783E1,-1.859503017E-1,1.781091124E0,-1.609418626E0,2.407714979E0
1.440858783E1,-8.485290051E-1,1.615953475E0,-1.469714611E0,2.343366839E0
1.441866883E1,-1.409844678E0,1.380709464E0,-1.694586246E0,2.601085001E0
1.442874983E1,-1.784685700E0,1.138534164E0,-1.889511951E0,2.837537401E0
1.443882983E1,-1.955749794E0,8.721022743E-1,-2.008296382E0,2.935774854E0
1.444891083E1,-2.063813356E0,7.085796261E-1,-1.695434092E0,2.763314571E0
1.445899183E1,-2.221387047E0,7.166750962E-1,-1.030837807E0,2.551628929E0
1.446907183E1,-2.267782364E0,6.810333931E-1,-3.064274293E-1,2.387580596E0
1.447915283E1,-2.351863279E0,5.074161118E-1,2.688853812E-1,2.420956700E0
1.448923383E1,-2.407576281E0,3.662046844E-1,5.142053139E-1,2.488962941E0
1.449931383E1,-2.306026663E0,2.419273782E-1,5.763676482E-1,2.389244126E0
1.450939483E1,-1.974681324E0,1.878295237E-1,2.398422611E-1,1.998041684E0
1.451947583E1,-1.721806789E0,1.942357332E-1,-3.136376309E-1,1.760884636E0
1.452955583E1,-1.245950000E0,2.385400862E-1,-6.913163066E-1,1.444718316E0
1.453963683E1,-4.921191744E-1,4.097769660E-1,-3.874511272E-1,7.484763320E-1
1.454971783E1,2.810693341E-1,5.238023490E-1,4.085145521E-1,7.212856651E-1
1.455979783E1,7.098712760E-1,2.784900177E-1,1.195211810E0,1.417746518E0
1.456987871E1,6.992017154E-1,-4.062265366E-1,2.012442058E0,2.168830578E0
1.457995971E1,2.992153274E-1,-1.242253829E0,2.511602486E0,2.817955187E0
1.459003971E1,-2.833543164E-1,-1.894400808E0,2.769943584E0,3.367733889E0
1.460012071E1,-7.774308828E-1,-2.268670557E0,2.594311352E0,3.532947249E0
1.461020171E1,-9.816058592E-1,-2.405049260E0,1.903511354E0,3.220429705E0
1.462028171E1,-7.737088376E-1,-2.150696549E0,1.318294530E0,2.638564283E0
1.463036271E1,-4.177727410E-1,-1.723634044E0,9.714587474E-1,2.022172218E0
1.464044371E1,2.962784171E-2,-1.197488716E0,8.049815011E-1,1.443209011E0
1.465052371E1,6.739476641E-1,-5.040826142E-1,8.370219040E-1,1.186975317E0
1.466060471E1,1.337101514E0,2.181976229E-1,9.467636168E-1,1.652819412E0
1.467068571E1,1.896052938E0,6.087185383E-1,1.179934790E0,2.314692444E0
1.468076571E1,2.195727272E0,7.128340602E-1,1.090835502E0,2.553286655E0
1.469084671E1,2.014664000E0,5.604123509E-1,7.148221135E-1,2.209955586E0
1.470092771E1,1.578013085E0,9.983419061E-2,2.093800217E-1,1.594970895E0
1.471100771E1,1.358694697E0,-5.030318695E-1,-6.982861876E-2,1.450506249E0
1.472108871E1,1.169508619E0,-1.025644895E0,-8.415078878E-2,1.557812317E0
1.473116971E1,1.027372382E0,-1.258036049E0,7.452919543E-2,1.625946897E0
1.474124971E1,9.626560566E-1,-1.311832772E0,4.040121961E-1,1.676555325E0
1.475133071E1,9.605896506E-1,-1.137457107E0,4.532972074E-1,1.556283877E0
1.476141171E1,1.082980426E0,-8.082442474E-1,1.849281353E-1,1.363929537E0
1.477149171E1,1.229702927E0,-5.018372834E-1,-1.495887333E-1,1.336557794E0
1.478157271E1,1.280650740E0,-2.782450193E-1,-3.537185401E-1,1.357425289E0
1.479165371E1,1.228964570E0,-1.035670531E-1,-5.613192540E-1,1.355049576E0
1.480173371E1,9.696195057E-1,-2.100027502E-2,-7.535300964E-1,1.228173686E0
1.481181471E1,6.202139450E-1,-5.043340445E-2,-9.911586016E-1,1.170300918E0
1.482189571E1,3.473268025E-1,-1.560499066E-1,-1.271287009E0,1.327086335E0
1.483197571E1,3.278117933E-1,-2.226771748E-1,-1.491706574E0,1.543448800E0
1.484205671E1,2.957394500E-1,-3.382801366E-1,-1.505880225E0,1.571486724E0
1.485213771E1,1.642751118E-1,-4.181425774E-1,-1.335737944E0,1.409264128E0
1.486221771E1,1.430112004E-2,-4.889734089E-1,-1.008383914E0,1.120775462E0
1.487229871E1,-1.052557290E-1,-4.562295860E-1,-6.983616167E-1,8.407931680E-1
1.488237971E1,-7.240446344E-2,-4.240365708E-1,-4.532410741E-1,6.248815015E-1
1.489245971E1,-6.125506572E-2,-4.137425476E-1,-2.579926032E-1,4.914216744E-1
1.490254071E1,-1.160352172E-1,-4.054833555E-1,-1.367523408E-1,4.433758292E-1
1.491262171E1,-1.909288403E-1,-3.776734132E-1,-1.039260721E-1,4.357655993E-1
1.492270171E1,-2.411920908E-1,-3.453137523E-1,-1.470212209E-1,4.461282905E-1
1.493278271E1,-2.145093454E-1,-3.497482806E-1,-1.883341384E-1,4.514508465E-1
1.494286371E1,-1.312633402E-1,-3.426684719E-1,-2.452655536E-1,4.413693894E-1
1.495294371E1,7.430210419E-2,-1.895714092E-1,-3.813039494E-1,4.322624477E-1
1.496302471E1,3.857380392E-1,1.100299805E-1,-4.833741152E-1,6.281329212E-1
1.497310571E1,7.885641275E-1,4.298317462E-1,-5.934877110E-1,1.076483338E0
1.498318571E1,1.045618764E0,7.847969127E-1,-7.121756637E-1,1.488764243E0
1.499326671E1,1.074698064E0,1.096383925E0,-9.252750993E-1,1.792531073E0
1.500334771E1,9.122637288E-1,1.280968244E0,-1.093825768E0,1.915609450E0
1.501342771E1,5.813458215E-1,1.297795361E0,-1.182700523E0,1.849598954E0
1.502350871E1,1.861502764E-1,1.261565428E0,-1.290281104E0,1.814118128E0
1.503358971E1,-1.351549546E-1,1.146411533E0,-1.376224650E0,1.796251806E0
1.504366971E1,-4.061317386E-1,1.003355893E0,-1.473352749E0,1.828232578E0
1.505375071E1,-6.085860988E-1,9.264346021E-1,-1.553222791E0,1.908182159E0
1.506383171E1,-6.583446615E-1,9.357714361E-1,-1.507963003E0,1.892891516E0
1.507391171E1,-4.482142228E-1,1.024050944E0,-1.336974045E0,1.742720839E0
1.508399271E1,-1.937324341E-1,1.207163519E0,-1.190799501E0,1.706686693E0
1.509407371E1,-5.813045986E-2,1.378161832E0,-1.172026430E0,1.810070479E0
1.510415371E1,-1.335796416E-3,1.442981726E0,-1.128082266E0,1.831602480E0
1.511423471E1,-1.371519249E-2,1.430313733E0,-9.686971074E-1,1.727529904E0
1.512431571E1,-1.143564450E-1,1.375062808E0,-7.413474226E-1,1.566356001E0
1.513439571E1,-1.486335175E-1,1.287092618E0,-5.625477540E-1,1.412501081E0
1.514447671E1,-9.162729453E-2,1.192933150E0,-3.521123099E-1,1.247184084E0
1.515455771E1,3.813755047E-2,1.185293178E0,-1.264542246E-1,1.192629474E0
1.516463771E1,2.291475940E-1,1.259885523E0,9.467343807E-2,1.284049536E0
1.517471871E1,4.526162991E-1,1.249660497E0,2.738315409E-1,1.357017533E0
1.518479971E1,6.139678761E-1,1.175134225E0,3.895146096E-1,1.381889515E0
1.519487971E1,7.051628056E-1,1.178231496E0,3.903905225E-1,1.427546426E0
1.520496071E1,7.190171984E-1,1.223441582E0,2.933729357E-1,1.449090306E0
1.521504171E1,6.121715384E-1,1.234347224E0,9.470442832E-2,1.381063355E0
1.522512171E1,4.894429769E-1,1.116966124E0,-1.613287729E-1,1.230119800E0
1.523520271E1,4.936286697E-1,9.724089199E-1,-3.097960103E-1,1.133676294E0
1.524528371E1,4.834564148E-1,7.623459435E-1,-3.196883297E-1,9.576544631E-1
1.525536371E1,4.154988319E-1,5.413036501E-1,-3.245719242E-1,7.556426768E-1
1.526544471E1,3.935094273E-1,4.115784931E-1,-3.880235696E-1,6.890637241E-1
1.527552571E1,4.959807853E-1,3.962769145E-1,-4.475172347E-1,7.767264690E-1
1.528560571E1,7.465512253E-1,3.758537596E-1,-4.153458542E-1,9.333364662E-1
1.529568671E1,1.129797327E0,4.233793437E-1,-2.874736798E-1,1.240295604E0
1.530576771E1,1.521299625E0,4.023135799E-1,-9.884659588E-2,1.576698898E0
1.531584771E1,1.846941151E0,1.796457607E-1,2.671709776E-2,1.855849675E0
1.532592871E1,2.055555041E0,-2.874520451E-1,5.257062024E-1,2.141098367E0
1.533600971E1,2.085468373E0,-8.022754097E-1,9.359123540E-1,2.422551569E0
1.534608971E1,1.846336987E0,-1.335287123E0,1.126422241E0,2.541806255E0
1.535617071E1,1.588313394E0,-1.788314189E0,1.167094889E0,2.661375125E0
1.536625171E1,1.281631611E0,-2.118747947E0,1.095586950E0,2.707763508E0
1.537633171E1,1.027196454E0,-2.298496619E0,8.783242965E-1,2.666396975E0
1.538641271E1,8.359084480E-1,-2.344201965E0,7.246910441E-1,2.592142530E0
1.539649371E1,7.719403473E-1,-2.188366066E0,7.670430118E-1,2.444011645E0
1.540657371E1,8.004398225E-1,-1.951650896E0,8.101516092E-1,2.259643945E0
1.541665471E1,8.776939666E-1,-1.800313261E0,7.545632994E-1,2.140289772E0
1.542673571E1,1.034090686E0,-1.682826326E0,6.417278248E-1,2.076791417E0
1.543681571E1,1.159979266E0,-1.674817979E0,5.669939768E-1,2.114722046E0
1.544689671E1,1.127863726E0,-1.666650589E0,6.021819359E-1,2.100577029E0
1.545697771E1,1.164264398E0,-1.599868954E0,7.207272166E-1,2.105834746E0
1.546705771E1,1.246616729E0,-1.498510394E0,8.832786423E-1,2.140039212E0
1.547713871E1,1.354555307E0,-1.388825399E0,1.019757918E0,2.191703055E0
1.548721971E1,1.368327985E0,-1.234477032E0,1.178245529E0,2.187354005E0
1.549729971E1,1.416527753E0,-1.096388603E0,1.381769564E0,2.262278933E0
1.550738071E1,1.649710035E0,-1.033999397E0,1.682217631E0,2.573043744E0
1.551746171E1,1.949592091E0,-9.318187183E-1,1.890904173E0,2.871361008E0
1.552754171E1,2.206745912E0,-7.088860202E-1,1.960706479E0,3.035888141E0
1.553762271E1,2.309527099E0,-4.708294988E-1,1.858377866E0,3.001526966E0
1.554770371E1,2.187419110E0,-3.449219888E-1,1.365610784E0,2.601666072E0
1.555778371E1,2.025638786E0,-4.397655809E-1,7.789438498E-1,2.214353128E0
1.556786446E1,1.959296569E0,-6.000979882E-1,4.036917686E-1,2.088522848E0
1.557794546E1,1.858631635E0,-6.575281709E-1,2.955989707E-1,1.993547994E0
1.558802546E1,1.722134818E0,-6.028134352E-1,3.041721582E-1,1.849771086E0
1.559810646E1,1.595707783E0,-5.430934829E-1,4.573002112E-1,1.746527223E0
1.560818746E1,1.619048260E0,-5.449330169E-1,7.239613116E-1,1.855367683E0
1.561826746E1,1.684313127E0,-6.107966387E-1,9.186367553E-1,2.013424131E0
1.562834846E1,1.706980297E0,-7.251804560E-1,9.349767995E-1,2.076980992E0
1.563842946E1,1.691378756E0,-7.722476184E-1,8.557604760E-1,2.046815691E0
1.564850946E1,1.647552997E0,-7.305610639E-1,6.512114239E-1,1.916305473E0
1.565859046E1,1.615547970E0,-6.265309113E-1,4.582802045E-1,1.792360726E0
1.566867146E1,1.727630323E0,-4.653997743E-1,3.119606495E-1,1.816211147E0
1.567875146E1,1.933417816E0,-3.302004540E-1,1.960302436E-1,1.971183565E0
1.568883246E1,2.094033521E0,-2.061055809E-1,2.443358463E-1,2.118290797E0
1.569891346E1,2.243327262E0,-5.015215337E-2,4.190576667E-1,2.282683020E0
1.570899346E1,2.387168182E0,8.089798272E-2,5.272644854E-1,2.446042570E0
1.571907446E1,2.377986154E0,8.679197609E-2,5.710759181E-1,2.447136837E0
1.572915546E1,2.304274545E0,-4.307994604E-2,5.736399221E-1,2.374994699E0
1.573923546E1,2.323233849E0,-2.420928544E-1,6.001389188E-1,2.411678086E0
1.574931646E1,2.410147886E0,-4.430312508E-1,7.451118600E-1,2.561304591E0
1.575939646E1,2.489247411E0,-4.564307302E-1,8.202368867E-1,2.660351525E0
1.576947746E1,2.611674074E0,-4.621732807E-1,8.583624870E-1,2.787692912E0
1.577955846E1,2.791589684E0,-5.393658829E-1,9.396329373E-1,2.994461316E0
1.578963846E1,2.874783576E0,-7.397189730E-1,1.055270398E0,3.150422254E0
1.579971946E1,2.914129490E0,-1.019243363E0,1.243426781E0,3.328230442E0
1.580980046E1,2.838947453E0,-1.356097364E0,1.277560487E0,3.395700737E0
1.581988046E1,2.524533019E0,-1.792539972E0,1.096430118E0,3.284604317E0
1.582996146E1,2.127633084E0,-2.183433940E0,9.502193213E-1,3.193293451E0
1.584004246E1,1.653039440E0,-2.364905201E0,8.418552125E-1,3.005667347E0
1.585012246E1,1.239052186E0,-2.291841318E0,7.513531780E-1,2.711515913E0
1.586020346E1,9.416972237E-1,-1.912538286E0,3.803379893E-1,2.165468389E0
1.587028446E1,6.480061995E-1,-1.523698445E0,-5.481998563E-2,1.656675652E0
1.588036446E1,5.114297137E-1,-1.197455387E0,-3.961377507E-1,1.361023465E0
1.589044546E1,4.869356543E-1,-8.794077855E-1,-5.952085465E-1,1.168219842E0
1.590052646E1,7.110753639E-1,-6.993848795E-1,-6.766222537E-1,1.205232366E0
1.591060646E1,1.115187694E0,-7.663466084E-1,-5.507743853E-1,1.460918594E0
1.592068746E1,1.472570537E0,-9.469483888E-1,-9.384137928E-2,1.753277344E0
1.593076846E1,1.602319230E0,-1.198576298E0,5.319668162E-1,2.070507365E0
1.594084846E1,1.483872328E0,-1.476823071E0,1.071443211E0,2.351781033E0
1.595092946E1,1.271880794E0,-1.685257013E0,1.391424487E0,2.528603183E0
1.596101046E1,1.049529455E0,-1.812151533E0,1.382969413E0,2.509583562E0
1.597109046E1,8.233492135E-1,-1.892709793E0,1.350742484E0,2.466730537E0
1.598117146E1,6.675409430E-1,-1.938205808E0,1.264766194E0,2.408710483E0
1.599125246E1,5.214250173E-1,-1.974469655E0,1.128346560E0,2.333148179E0
1.600133246E1,4.984898986E-1,-1.994947189E0,8.942357397E-1,2.242312205E0
1.601141346E1,5.856464486E-1,-1.934460667E0,6.475118905E-1,2.122355173E0
1.602149446E1,6.543617575E-1,-1.858691862E0,5.713220859E-1,2.051666072E0
1.603157446E1,6.512008989E-1,-1.843143530E0,6.053575587E-1,2.046386684E0
1.604165546E1,7.044405283E-1,-1.796285114E0,6.409910756E-1,2.033161633E0
1.605173646E1,8.100244322E-1,-1.779577864E0,7.728411108E-1,2.102455788E0
1.606181646E1,1.015058219E0,-1.683916832E0,1.154648505E0,2.280160576E0
1.607189746E1,1.233310805E0,-1.458779148E0,1.656707398E0,2.528590823E0
1.608197846E1,1.353223457E0,-1.211627868E0,2.089817094E0,2.768861011E0
1.609205846E1,1.536207686E0,-1.001998170E0,2.471208166E0,3.077467171E0
1.610213946E1,1.638605296E0,-8.803275526E-1,2.497900706E0,3.114403932E0
1.611222046E1,1.468079291E0,-7.042866004E-1,2.435906187E0,2.930002623E0
1.612230046E1,1.334284180E0,-5.452253777E-1,2.125086329E0,2.567796115E0
1.613238146E1,1.164869000E0,-3.728529686E-1,1.681258687E0,2.079079098E0
1.614246246E1,1.067067009E0,-3.437010902E-1,1.258852320E0,1.685666517E0
1.615254246E1,9.791856967E-1,-2.616740102E-1,1.096200907E0,1.492961602E0
1.616262346E1,1.033181079E0,-2.401813996E-1,1.122511039E0,1.544403211E0
1.617270446E1,1.039591820E0,-2.474202526E-1,1.290465292E0,1.675490556E0
1.618278446E1,1.081551001E0,-1.892521513E-1,1.522011523E0,1.876722681E0
1.619286546E1,1.138419412E0,-1.386333901E-1,1.595648434E0,1.965022111E0
1.620294646E1,1.158532226E0,-1.316383660E-1,1.468923483E0,1.875436423E0
1.621302646E1,1.048066920E0,-1.798159146E-1,1.127865919E0,1.550115984E0
1.622310746E1,9.519034655E-1,-1.792738777E-1,7.337337631E-1,1.215164419E0
1.623318846E1,8.980621576E-1,-1.531298071E-1,4.365209609E-1,1.010205388E0
1.624326846E1,9.242835577E-1,-8.697265506E-2,2.954755944E-1,9.742536449E-1
1.625334946E1,8.669913693E-1,-1.521620929E-2,1.909788340E-1,8.879067983E-1
1.626343046E1,7.357329261E-1,-9.846711159E-3,8.835318267E-2,7.410844629E-1
1.627351046E1,6.992587258E-1,-3.238363445E-2,2.344382644E-2,7.004006556E-1
1.628359146E1,6.563454254E-1,-1.628677601E-1,9.095519364E-2,6.823401439E-1
1.629367246E1,5.670708677E-1,-3.377386844E-1,2.458473516E-1,7.043278414E-1
1.630375246E1,5.138550657E-1,-5.193654817E-1,3.244198966E-1,7.993971488E-1
1.631383346E1,4.030155382E-1,-5.765097356E-1,3.937684590E-1,8.061256716E-1
1.632391446E1,2.483625314E-1,-3.352810997E-1,4.009868467E-1,5.786949231E-1
1.633399446E1,2.625733119E-1,-7.708033562E-2,1.927347529E-1,3.347130222E-1
