"Time (s)","Linear Acceleration x (m/s^2)","Linear Acceleration y (m/s^2)","Linear Acceleration z (m/s^2)","Absolute acceleration (m/s^2)"
8.510749998E-3,-6.641932659E-1,-8.670426786E-2,-5.023541772E-1,8.372753692E-1
1.859075000E-2,-4.363535844E-1,2.858645260E-2,-8.243030405E-1,9.331115359E-1
2.867175000E-2,-9.117943436E-2,2.544310641E-1,-7.557970619E-1,8.026693307E-1
3.875175000E-2,2.935240862E-1,3.499418235E-1,-5.532658839E-1,7.174390617E-1
4.883275000E-2,6.680690928E-1,1.137271750E-1,-5.763460135E-1,8.896206553E-1
5.891275000E-2,9.617734194E-1,-2.913047755E-1,-7.763137722E-1,1.269854187E0
6.899375000E-2,1.001254258E0,-3.920218956E-1,-1.235626595E0,1.637975683E0
7.907375000E-2,7.461506179E-1,-2.378243870E-1,-1.615920730E0,1.795689558E0
8.915475000E-2,3.218710953E-1,-2.443457866E-1,-1.976047234E0,2.016945348E0
9.923475000E-2,-1.142684810E-1,-3.351834512E-1,-2.570913134E0,2.595187772E0
1.093157500E-1,-4.391469455E-1,-3.381468201E-1,-2.777412817E0,2.832175006E0
1.193957500E-1,-6.419396402E-1,-3.906109625E-1,-2.581042850E0,2.688204906E0
1.294757500E-1,-7.497511871E-1,-6.010037220E-1,-2.117390224E0,2.325225511E0
1.395567500E-1,-7.890852606E-1,-8.508026218E-1,-1.402051216E0,1.819963808E0
1.496367500E-1,-6.070881884E-1,-8.803228748E-1,-5.924001288E-1,1.222482043E0
1.597177500E-1,-4.274950527E-1,-8.292275655E-1,-8.266267240E-2,9.365914226E-1
1.697977500E-1,-3.644538818E-1,-7.834725183E-1,1.015632123E-1,8.700407491E-1
1.798787500E-1,-3.897313951E-1,-4.663452691E-1,3.157554924E-2,6.085766062E-1
1.899587500E-1,-5.028554298E-1,-8.637331545E-2,-1.895445120E-1,5.442894955E-1
2.000397500E-1,-5.074792618E-1,3.442752868E-1,-3.954898793E-1,7.297074200E-1
2.101197500E-1,-4.212234753E-1,6.866929132E-1,-4.013575602E-1,9.000357017E-1
2.202007500E-1,-4.661933877E-1,5.875527871E-1,-2.331232256E-1,7.854304492E-1
2.302807500E-1,-7.213861978E-1,-1.103545010E-1,-2.787192285E-2,7.303102124E-1
2.403617500E-1,-1.089623521E0,-1.050285062E0,8.475656033E-2,1.515771025E0
2.504417500E-1,-1.444388127E0,-1.703452379E0,-3.680570823E-1,2.263509021E0
2.605227500E-1,-1.509399371E0,-1.728431684E0,-1.625362229E0,2.812039283E0
2.706027500E-1,-1.487222637E0,-1.479195871E0,-3.000310432E0,3.660835189E0
2.806837500E-1,-1.435984509E0,-1.331320372E0,-3.642690221E0,4.135656839E0
2.907637500E-1,-1.041514384E0,-1.222089121E0,-4.299895041E0,4.589918452E0
3.008447500E-1,-1.896412835E-1,-1.041610717E0,-4.410529624E0,4.535822777E0
3.109247500E-1,5.919063315E-1,-8.337819618E-1,-3.604189814E0,3.746428924E0
3.210057500E-1,1.110313162E0,-8.605452526E-1,-2.958504009E0,3.275069377E0
3.310857500E-1,1.272901279E0,-1.649808853E0,-2.552774486E0,3.295270019E0
3.411667500E-1,1.231856310E0,-2.897523982E0,-2.289509448E0,3.892938313E0
3.512467500E-1,1.405713328E0,-4.073758653E0,-2.064933683E0,4.778649458E0
3.613267500E-1,1.404457053E0,-4.685067216E0,-1.458583267E0,5.103902387E0
3.714077500E-1,1.108477429E0,-4.632977295E0,-1.899591966E0,5.128513475E0
3.814877500E-1,7.650476494E-1,-4.082018723E0,-2.631192665E0,4.916436677E0
3.915687500E-1,5.697804675E-1,-3.271400506E0,-2.949149634E0,4.441192927E0
4.016487500E-1,-1.400737932E0,-3.002110497E0,-3.622501540E0,4.908895150E0
4.117297500E-1,-4.087489085E0,-2.260175137E0,-3.461061085E0,5.813338327E0
4.218097500E-1,-2.732112098E0,-9.221330979E-1,-2.083526659E0,3.557506052E0
4.318907500E-1,2.883770746E-1,-4.310649240E-1,-8.028484368E-1,9.557949144E-1
4.419707500E-1,2.320657566E0,-1.122840822E-2,1.233064930E0,2.627932027E0
4.520517500E-1,2.557768593E0,-3.844099903E-1,3.201055870E0,4.115423417E0
4.621317500E-1,2.595608264E0,-9.074419686E-1,4.496096608E0,5.270248371E0
4.722127500E-1,1.562069044E0,-2.209491472E0,4.881577808E0,5.581372068E0
4.822927500E-1,9.299230510E-1,-2.336557607E0,3.594936596E0,4.387234603E0
4.923737500E-1,7.687503988E-1,-1.142045417E0,1.923970177E0,2.365778128E0
5.024537500E-1,1.018545790E0,-4.334489800E-1,6.792839062E-1,1.298745614E0
5.125347500E-1,1.474526285E0,1.137029091E0,8.194551140E-1,2.034347463E0
5.226147500E-1,1.511868358E0,2.229888899E0,-1.319564545E-1,2.697325145E0
5.326947500E-1,2.165375399E0,3.257472730E0,-3.724331385E-1,3.929209291E0
5.427757500E-1,3.018746118E0,4.069860607E0,-1.537156981E-1,5.069538638E0
5.528557500E-1,3.099066396E0,3.813843486E0,-1.109947711E-1,4.915479071E0
5.629367500E-1,2.489619879E0,2.592884339E0,1.020789367E-1,3.596064021E0
5.730167500E-1,1.573592151E0,1.699108044E0,4.931915903E-1,2.367783425E0
5.830977500E-1,9.280414170E-1,1.156049425E0,1.274085487E0,1.954739106E0
5.931777500E-1,9.032854754E-1,7.677598073E-1,2.016974235E0,2.339565096E0
6.032587500E-1,7.779702884E-1,5.847156449E-1,2.249244352E0,2.450761170E0
6.133387500E-1,4.322367060E-1,5.212845379E-1,1.695276217E0,1.825521184E0
6.234197500E-1,2.108108354E-1,5.719842099E-1,5.112670881E-1,7.956137128E-1
6.334997500E-1,2.195179242E-1,5.645159268E-1,-6.791903508E-1,9.100361989E-1
6.435807500E-1,4.432335645E-1,2.875032082E-1,-1.601913140E0,1.686783862E0
6.536607500E-1,3.965014476E-1,-4.772702068E-2,-2.091810994E0,2.129592567E0
6.637417500E-1,2.084199089E-1,-2.678130019E-1,-3.147449766E0,3.165691503E0
6.738217500E-1,7.355803138E-1,-1.787416349E-1,-3.751301082E0,3.826916093E0
6.839027500E-1,1.826550302E0,2.169862260E-1,-3.284644741E0,3.764606235E0
6.939827500E-1,2.084665697E0,5.553656191E-1,-2.354693624E0,3.193562916E0
7.040637500E-1,2.779678613E-1,7.254130290E-1,-1.397431916E0,1.598845257E0
7.141437500E-1,-6.044617653E-1,2.465520872E-1,-6.699611056E-1,9.354196066E-1
7.242237500E-1,-4.716469395E-1,-1.163638453E0,-1.953858805E-1,1.270700959E0
7.343047500E-1,-1.265164974E0,-2.507988322E0,-7.268089056E-4,2.809029791E0
7.443847500E-1,-1.631944440E0,-2.856840225E0,-4.729865366E-1,3.323927645E0
7.544657500E-1,-1.486672706E0,-2.586352999E0,-1.297921076E0,3.253308576E0
7.645457500E-1,-1.333668614E0,-2.069781609E0,-1.756777232E0,3.024720503E0
7.746267500E-1,-1.108034502E0,-1.813907452E0,-1.822947832E0,2.800203475E0
7.847067500E-1,-9.505672306E-1,-2.042202924E0,-1.507475930E0,2.710471273E0
7.947877500E-1,-6.934575570E-1,-2.616215899E0,-4.842740017E-1,2.749543657E0
8.048677500E-1,-5.151513934E-1,-3.306992507E0,4.921817762E-1,3.382872049E0
8.149487500E-1,-6.751668817E-1,-3.909227068E0,9.154465145E-1,4.071357134E0
8.250287500E-1,-5.454165816E-1,-4.183580765E0,1.347504880E0,4.428949838E0
8.351097500E-1,-3.302741289E-2,-4.037511179E0,2.137138610E0,4.568363905E0
8.451897500E-1,1.782652330E-1,-3.512316608E0,2.721882395E0,4.447110322E0
8.552707500E-1,1.967061818E-1,-2.941848800E0,2.608834666E0,3.936900558E0
8.653507500E-1,1.628443712E-1,-3.007125362E0,2.318767161E0,3.800789705E0
8.754307500E-1,6.962396622E-1,-3.073626330E0,2.770038893E0,4.195836502E0
8.855117500E-1,1.912835324E0,-2.521838037E0,3.570708658E0,4.771641896E0
8.955917500E-1,2.695912571E0,-1.807345707E0,3.910625430E0,5.082069888E0
9.056727500E-1,3.418058322E0,-1.069084445E0,4.305381483E0,5.600211957E0
9.157527500E-1,3.753413681E0,-5.440986192E-1,4.566537723E0,5.936111888E0
9.258337500E-1,3.547259569E0,-8.812338710E-3,4.378705275E0,5.635262904E0
9.359137500E-1,3.990138792E0,7.975520289E-1,3.788745190E0,5.559845945E0
9.459947500E-1,5.020677806E0,1.342547611E0,3.374911425E0,6.196746473E0
9.560747500E-1,6.039425325E0,1.518338302E0,2.875723808E0,6.859285450E0
9.661557500E-1,6.864082122E0,1.699478611E0,1.864582054E0,7.313037479E0
9.762357500E-1,7.769941542E0,2.072753164E0,1.581344390E0,8.195666375E0
9.863167500E-1,8.410785268E0,2.629809798E0,1.521109736E0,8.942649676E0
9.963967500E-1,8.900545712E0,3.379090138E0,1.507858338E0,9.639066392E0
1.006477792E0,9.065914326E0,3.835889243E0,1.083715201E0,9.903498750E0
1.016557792E0,8.856890400E0,3.963354451E0,1.387209521E-1,9.704222255E0
1.026638792E0,8.086477053E0,3.677299891E0,-1.005313980E0,8.940039251E0
1.036718792E0,7.144923890E0,3.240825123E0,-2.318160367E0,8.180877236E0
1.046798792E0,6.348675206E0,2.788422539E0,-3.491066072E0,7.763280199E0
1.056879792E0,5.530018237E0,2.241231912E0,-4.418103814E0,7.424544666E0
1.066959792E0,4.710080143E0,1.593073905E0,-4.804361233E0,6.914088969E0
1.077040792E0,4.302325729E0,1.315845716E0,-4.514709465E0,6.373700509E0
1.087120792E0,4.692436169E0,1.425497382E0,-4.299322014E0,6.521899245E0
1.097201792E0,4.665282285E0,1.513705553E0,-4.823459408E0,6.879093251E0
1.107281792E0,4.280903285E0,1.833516675E0,-4.569884377E0,6.524703790E0
1.117362792E0,4.100548257E0,1.873994025E0,-3.535287395E0,5.729276270E0
1.127442792E0,3.929834118E0,1.704008449E0,-2.562869119E0,4.991546765E0
1.137523792E0,3.414382762E0,1.250263345E0,-2.299728189E0,4.302315402E0
1.147603792E0,2.338980986E0,5.989016479E-1,-3.380681165E0,4.154337538E0
1.157684792E0,2.879356098E-1,-4.088332254E-1,-3.737484112E0,3.770787584E0
1.167764792E0,-9.677393335E-1,-1.228709924E0,-2.632053959E0,3.061691614E0
1.177845792E0,-2.990880042E-1,-1.470465394E0,-1.277476287E0,1.970702355E0
1.187925792E0,1.524638093E-1,-1.219530380E0,-2.096572528E-1,1.246778137E0
1.198005792E0,5.096936023E-1,7.228386462E-2,7.567735469E-1,9.152697562E-1
1.208086792E0,1.095010999E0,7.000181329E-1,2.121493361E-1,1.316845403E0
1.218166792E0,1.082920711E0,9.305352545E-1,-8.596716785E-1,1.666627889E0
1.228247792E0,1.024305298E0,5.669963157E-1,-1.040996760E0,1.566639850E0
1.238327792E0,4.470459491E-1,4.786367011E-1,-1.153886029E0,1.326799208E0
1.248408792E0,-1.909618771E-1,7.351476198E-1,-1.724404707E0,1.884271757E0
1.258488792E0,1.300678039E-1,1.144840971E0,-1.504986185E0,1.895405471E0
1.268569792E0,5.945045418E-1,1.886588928E0,-1.075954923E0,2.251739867E0
1.278649792E0,1.466450695E0,2.255278094E0,9.132409813E-2,2.691671788E0
1.288730792E0,2.146401184E0,2.468634807E0,1.292298394E0,3.517276076E0
1.298810792E0,2.776936854E0,3.479058815E0,2.322161470E0,5.020723296E0
1.308891792E0,3.178810723E0,4.560868555E0,2.431359392E0,6.067772909E0
1.318971792E0,2.996041964E0,4.185891293E0,2.462819166E0,5.706437734E0
1.329051792E0,2.271355013E0,3.891709687E0,2.213882146E0,5.020531052E0
1.339132792E0,-7.924415624E-1,2.282303925E0,-1.281724289E0,2.734902555E0
1.349212792E0,-3.583426936E0,2.345335740E-1,-2.880633130E0,4.603694368E0
1.359293792E0,-4.316995223E0,-1.179009175E0,-1.383844156E0,4.684179228E0
1.369373792E0,-3.558696138E0,-2.036009261E0,-2.725082795E-1,4.109003854E0
1.379454792E0,-3.954597076E0,-2.865769508E0,-6.630514508E-1,4.928601235E0
1.389534792E0,-3.312491521E0,-2.184426797E0,-1.286283363E0,4.171192324E0
1.399615792E0,-2.373658483E0,-1.000837498E0,-2.045918537E0,3.289637207E0
1.409695792E0,-1.729562536E0,-2.939980030E-2,-2.907370108E0,3.383053630E0
1.419776792E0,-1.175775080E0,1.530896367E0,-3.006078710E0,3.572478123E0
1.429856792E0,-3.255764759E-1,3.492805619E0,-2.684072544E0,4.417005383E0
1.439937792E0,-2.480482435E-1,3.546146843E0,-1.806695496E0,3.987584981E0
1.450017792E0,-1.432678932E-1,2.431735952E0,5.216849260E-3,2.435958261E0
1.460098792E0,-1.073607266E-2,1.029676550E0,1.822864217E0,2.093605267E0
1.470178792E0,4.194745731E-1,-1.181736317E0,2.255858722E0,2.580960715E0
1.480258792E0,1.290381092E0,-2.437767355E0,2.512612885E0,3.731087851E0
1.490339792E0,2.647290634E0,-7.961194611E-1,2.625315043E0,3.812378913E0
1.500419792E0,3.474295673E0,1.071180671E0,2.548367440E0,4.439857549E0
1.510500792E0,3.715206220E0,2.384077052E0,2.207671233E0,4.935624877E0
1.520580792E0,2.827909956E0,3.046493495E0,1.132096379E0,4.308113224E0
1.530661792E0,4.906322640E-1,2.660805888E0,9.477272379E-1,2.866844068E0
1.540741792E0,-1.618183018E0,1.260649754E0,1.033642716E0,2.296991804E0
1.550822792E0,-3.725601400E0,-1.211906780E0,9.662518018E-1,4.035153824E0
1.560902792E0,-5.225467764E0,-4.285784540E0,1.526560657E0,6.928481068E0
1.570983792E0,-5.247328164E0,-5.652098744E0,2.539123576E0,8.119594916E0
1.581063792E0,-4.851020259E0,-5.935750099E0,3.813561065E0,8.562054356E0
1.591144792E0,-3.860329435E0,-4.964951502E0,4.573122565E0,7.776010337E0
1.601224792E0,-2.968342534E0,-3.456235963E0,4.158166720E0,6.168222994E0
1.611304792E0,-1.759599683E0,-1.910999883E0,2.577422254E0,3.659401191E0
1.621385792E0,-3.479368132E-1,-5.452885276E-1,5.892578351E-1,8.749996575E-1
1.631465792E0,2.659214276E-1,-5.721599919E-1,-8.287574494E-1,1.041595013E0
1.641546792E0,7.257148916E-1,-2.852388740E-1,-1.125393716E0,1.369136346E0
1.651626792E0,1.994967654E0,3.002217793E-1,-1.706686474E0,2.642500289E0
1.661707792E0,2.996914954E0,3.949642146E-1,-2.167486829E0,3.719609539E0
1.671787792E0,2.136307136E0,-4.853452116E-1,-1.105102708E0,2.453695203E0
1.681868792E0,1.591409202E0,-1.292638117E0,4.475681055E-1,2.098526569E0
1.691948792E0,1.191132792E0,-1.895095457E0,1.464950885E0,2.675119663E0
1.702029792E0,1.042874300E0,-9.787695211E-1,1.961908082E0,2.427892070E0
1.712109792E0,1.510469120E0,1.113670633E0,1.718300214E0,2.544471431E0
1.722190792E0,2.363363875E0,2.745524442E0,1.422097811E0,3.891754803E0
1.732270792E0,3.001136643E0,3.041475415E0,1.224488892E0,4.444858479E0
1.742350792E0,2.359042198E0,2.581374387E0,-1.994244061E-2,3.496994641E0
1.752431792E0,9.903370678E-1,2.731740215E0,-2.632032909E0,3.920557275E0
1.762511792E0,-3.803941226E-1,3.893320595E0,-3.413367101E0,5.191697209E0
1.772592792E0,-3.095342889E0,3.083168986E0,-8.571436349E-1,4.452165069E0
1.782672792E0,-5.571396058E0,6.156229305E-1,1.763033752E0,5.876030432E0
1.792753792E0,-5.739312304E0,-1.615104167E0,2.975408310E0,6.663431684E0
1.802833792E0,-5.607533020E0,-3.185126885E0,5.469140536E0,8.455823913E0
1.812914792E0,-3.642355176E0,-2.592161038E0,6.043725368E0,7.517490698E0
1.822994792E0,-2.576531723E0,-1.322073585E0,5.489378918E0,6.206422093E0
1.833075792E0,-2.243698853E0,-8.448115647E-2,4.188517277E0,4.752367682E0
1.843155792E0,-1.704577383E0,1.153564432E0,1.906301061E0,2.805401698E0
1.853236792E0,-9.054495299E-1,1.982216631E0,-8.600669503E-1,2.342805323E0
1.863316792E0,-5.365387541E-1,2.048318819E0,-2.804688324E0,3.514222590E0
1.873396792E0,-5.745123267E-1,1.846201624E0,-2.600726917E0,3.240726052E0
1.883477792E0,-8.418370861E-1,1.339695924E0,-9.210604262E-1,1.830799595E0
1.893557792E0,-8.057580113E-1,5.238473725E-1,1.578964573E0,1.848456428E0
1.903638792E0,-3.402892399E-1,-1.380264491E-1,2.766745741E0,2.791008790E0
1.913718792E0,-1.958951730E-1,-5.909985512E-1,2.269820119E0,2.353664713E0
1.923799792E0,1.189884996E-1,-4.564190358E-1,1.952429745E0,2.008596154E0
1.933879792E0,1.151373480E0,4.417191356E-1,1.180545239E0,1.707180057E0
1.943960792E0,2.879504033E0,2.079984416E0,-1.066450274E-1,3.553765863E0
1.954040792E0,4.019736228E0,2.726202902E0,-8.623444408E-1,4.932960525E0
1.964121792E0,4.419385232E0,2.462578846E0,-1.637814460E0,5.317677745E0
1.974201792E0,3.722284275E0,1.928377224E0,-2.224196634E0,4.745639009E0
1.984282792E0,1.625710139E0,8.683501160E-1,-2.580376267E0,3.171010416E0
1.994362792E0,-5.932894903E-1,-1.243042034E-1,-2.389852931E0,2.465530569E0
2.004442375E0,-2.071400118E0,-1.394612389E0,-1.878382360E0,3.124733982E0
2.014523375E0,-2.544244568E0,-3.256553548E0,-2.022532598E0,4.600973760E0
2.024603375E0,-2.302874429E0,-4.762397520E0,-2.174967756E0,5.719628092E0
2.034684375E0,-1.788166839E0,-4.737547438E0,-7.808500421E-1,5.123633785E0
2.044764375E0,-1.019631034E0,-2.524771585E0,1.681583208E0,3.200287657E0
2.054845375E0,-5.366340637E-1,-6.426107544E-1,1.829202599E0,2.011692533E0
2.064925375E0,-3.020934731E-1,2.800868922E-1,3.726698776E-1,5.555105502E-1
2.075006375E0,-4.103517473E-2,6.451396751E-1,-7.777124262E-1,1.011299018E0
2.085086375E0,4.790278798E-1,9.311731857E-1,-1.065506533E0,1.493939552E0
2.095167375E0,8.018883240E-1,1.237408242E0,-4.506039798E-2,1.475206589E0
2.105247375E0,5.156144929E-1,1.188143696E0,1.560888491E0,2.028279228E0
2.115328375E0,2.149769765E-1,1.022364607E0,2.554376038E0,2.759761119E0
2.125408375E0,4.042063236E-2,1.112370797E0,2.348313142E0,2.598764559E0
2.135488375E0,1.369973391E-1,1.902509726E0,-8.144703627E-2,1.909173944E0
2.145569375E0,7.083018833E-1,2.290063180E0,-5.385110199E-1,2.456842495E0
2.155649375E0,5.608432907E-1,1.822924443E0,6.358847022E-3,1.907259594E0
2.165730375E0,3.287930292E-1,1.453658742E0,-3.948370376E-1,1.541792749E0
2.175810375E0,2.502754480E-1,1.108236816E0,-4.088620229E-1,1.207474552E0
2.185891375E0,3.775494522E-1,7.998716193E-1,-3.514107902E-1,9.517498305E-1
2.195971375E0,3.521684432E-1,8.370704359E-1,-2.248535085E-1,9.355579230E-1
2.206052375E0,5.363656765E-1,1.137514994E0,-4.646317425E-1,1.340712929E0
2.216132375E0,1.404185742E0,1.358142135E0,-5.033727622E-1,2.017342756E0
2.226213375E0,2.778338431E0,1.675855275E0,9.425711632E-3,3.244648546E0
2.236293375E0,4.035745904E0,1.958363500E0,7.346324801E-1,4.545560195E0
2.246374375E0,4.812699947E0,2.268615593E0,4.144775426E-1,5.336711452E0
2.256454375E0,5.247849151E0,2.367522415E0,-4.316531539E-1,5.773335911E0
2.266534375E0,5.180367020E0,2.400860900E0,-7.933759475E-1,5.764527814E0
2.276615375E0,4.293040642E0,2.366217901E0,-7.224125303E-1,4.954903125E0
2.286695375E0,3.340913375E0,2.352783338E0,-9.432354069E-1,4.193683899E0
2.296776375E0,3.314742407E0,1.358042732E0,-1.030287584E0,3.727370359E0
2.306856375E0,4.051035789E0,-7.714032805E-1,-9.778519468E-1,4.238177487E0
2.316937375E0,4.597916513E0,-3.171192386E0,-8.243217516E-1,5.645954637E0
2.327017375E0,4.624822476E0,-4.929081758E0,2.414207169E-1,6.763365573E0
2.337098375E0,3.899885264E0,-5.334672117E0,2.195374393E0,6.963296661E0
2.347178375E0,2.872523042E0,-4.700471413E0,3.973422187E0,6.792194344E0
2.357259375E0,2.094689871E0,-3.879217111E0,4.501490664E0,6.300751483E0
2.367339375E0,1.686195199E0,-3.004218126E0,2.907239715E0,4.507840232E0
2.377420375E0,1.066350287E0,-2.077637343E0,9.555347326E-1,2.523237303E0
2.387500375E0,-3.232194632E-2,-9.267333949E-1,2.931666459E0,3.074824827E0
2.397580375E0,-1.552830735E0,-8.034454376E-1,1.856195101E0,2.549954532E0
2.407661375E0,-3.443827879E0,-2.518003433E0,-1.742390888E0,4.608277092E0
2.417741375E0,-3.590131354E0,-2.946400273E0,-1.030444582E-1,4.645528588E0
2.427822375E0,-3.008802343E0,-2.715562724E0,-1.324875133E0,4.264090356E0
2.437902375E0,-1.750579768E0,-2.055974579E0,-1.827022172E0,3.260302288E0
2.447983375E0,-8.875281063E-1,-1.390269077E0,-1.238085349E0,2.062379591E0
2.458063375E0,-4.411914244E-1,-6.581000286E-1,-4.129555124E-1,8.934639198E-1
2.468144375E0,1.530192947E-1,8.154526949E-3,1.195287824E-2,1.537018938E-1
2.478224375E0,3.384353802E-1,4.057213372E-1,-5.361076316E-2,5.310578348E-1
2.488305375E0,1.232356613E-1,7.516496319E-1,8.578157723E-1,1.147175704E0
2.498385375E0,-1.281695784E-1,1.306487832E0,6.741852073E-1,1.475758649E0
2.508465375E0,-4.203287052E-1,1.430033067E0,-1.622260720E0,2.203043494E0
2.518546375E0,-9.266412281E-1,9.868123662E-1,-2.983295034E0,3.276051262E0
2.528626375E0,-1.592620453E0,8.881867951E-1,-2.398703277E0,3.013153349E0
2.538707375E0,-1.580590684E0,1.356255239E0,-8.344255941E-1,2.243649093E0
2.548787375E0,-1.240286534E0,1.849999391E0,5.754736090E-1,2.300430026E0
2.558868375E0,-1.336689724E0,1.648041240E0,1.783827475E0,2.772150755E0
2.568948375E0,-1.586947923E0,9.852517444E-1,2.965104346E0,3.504421278E0
2.579029375E0,-2.059094215E0,1.173968875E-1,3.711876816E0,4.246372629E0
2.589109375E0,-2.205682742E0,-5.290356070E-1,3.443705964E0,4.123593796E0
2.599190375E0,-1.901698425E0,-1.080562529E0,2.640718364E0,3.428916119E0
2.609270375E0,-2.085655923E0,-2.009790931E0,1.789981230E0,3.404886638E0
2.619350375E0,-2.352417010E0,-2.934089545E0,1.041747103E0,3.902304995E0
2.629431375E0,-2.784900177E0,-3.442535352E0,3.679138255E-1,4.443205962E0
2.639511375E0,-3.129130732E0,-3.220523005E0,-3.059614062E-2,4.490452504E0
2.649592375E0,-3.138984460E0,-2.663265227E0,-3.841761017E-1,4.134464462E0
2.659672375E0,-2.902355244E0,-1.980505736E0,-8.790780026E-1,3.621994901E0
2.669753375E0,-2.196767053E0,-1.163950256E0,-1.571184560E0,2.940949950E0
2.679833375E0,-1.446892051E0,-4.658389002E-1,-1.972686254E0,2.490380201E0
2.689914375E0,-9.290477228E-1,-3.169126564E-1,-1.342566322E0,1.663143900E0
2.699994375E0,-9.957501277E-1,-6.460699672E-1,-9.838203460E-2,1.191051529E0
2.710075375E0,-1.691279646E0,-1.283288419E0,6.704110488E-1,2.226366318E0
2.720155375E0,-2.647008213E0,-1.530481800E0,3.887135410E-1,3.082227318E0
2.730236375E0,-3.362116840E0,-1.251815781E0,2.998282617E-1,3.600106857E0
2.740316375E0,-3.662957840E0,-7.863113415E-1,8.021897480E-1,3.831325365E0
2.750396375E0,-3.695057592E0,-2.578025687E-1,1.501081707E0,3.996643475E0
2.760477375E0,-3.553653207E0,2.634907401E-1,1.978695438E0,4.075918807E0
2.770557375E0,-3.353639840E0,7.718248647E-1,2.087644561E0,4.025030883E0
2.780638375E0,-3.183464522E0,1.135075536E0,1.952398170E0,3.903165568E0
2.790718375E0,-3.015395956E0,1.233775951E0,1.523139451E0,3.596494078E0
2.800799375E0,-2.882082655E0,1.230665233E0,1.095618817E0,3.319837035E0
2.810879375E0,-2.878993863E0,9.994762659E-1,8.362965569E-1,3.160213664E0
2.820960375E0,-3.020557001E0,6.129267794E-1,7.839800566E-1,3.180262341E0
2.831040375E0,-3.086782857E0,2.912843102E-1,7.744292146E-1,3.195749610E0
2.841121375E0,-3.042962362E0,6.301076531E-2,6.061559960E-1,3.103387727E0
2.851201375E0,-3.163958503E0,-4.776999772E-2,7.532310113E-1,3.252733056E0
2.861282375E0,-3.530996123E0,-7.832871616E-2,1.346964305E0,3.779997599E0
2.871362375E0,-3.966480080E0,-7.119335890E-2,1.988151847E0,4.437429491E0
2.881442375E0,-4.250013906E0,2.866188169E-2,2.182025638E0,4.777517723E0
2.891523375E0,-4.135571324E0,1.484426790E-1,1.996105523E0,4.594499174E0
2.901603375E0,-3.699063227E0,2.403755271E-1,1.914848521E0,4.172228902E0
2.911684375E0,-3.104945186E0,3.695931458E-1,1.872241030E0,3.644526057E0
2.921764375E0,-2.485221311E0,4.229688692E-1,1.696084010E0,3.038408893E0
2.931845375E0,-1.946654743E0,4.349696946E-1,1.503663838E0,2.497932797E0
2.941925375E0,-1.380382020E0,4.087671518E-1,1.690130668E0,2.220154675E0
2.952006375E0,-8.635603693E-1,2.278426051E-1,2.151805766E0,2.329789007E0
2.962086375E0,-4.358844915E-1,-1.111093765E-1,2.331984500E0,2.374972061E0
2.972167375E0,-7.358720899E-2,-4.235828269E-1,2.226370337E0,2.267501348E0
2.982247375E0,2.579467025E-1,-6.640565872E-1,1.872057427E0,2.003024379E0
2.992327375E0,3.500856650E-1,-1.050275121E0,1.297713500E0,1.705783730E0
3.002408000E0,3.681038600E-1,-1.266113393E0,6.669585603E-1,1.477625560E0
3.012488000E0,5.863239947E-1,-8.371078581E-1,-6.480381399E-2,1.024072716E0
3.022569000E0,9.034874967E-1,-2.158505505E-1,-4.458124790E-1,1.030354251E0
3.032649000E0,1.191197112E0,2.638444966E-1,-2.010819456E-1,1.236526759E0
3.042730000E0,1.325088117E0,6.240885293E-1,3.455181125E-1,1.504901252E0
3.052810000E0,1.111191706E0,4.969267917E-1,7.379969680E-1,1.423489645E0
3.062891000E0,9.511402577E-1,2.344370949E-1,5.024030015E-1,1.100925664E0
3.072971000E0,1.335967447E0,1.391432673E-1,-6.859975331E-1,1.508231575E0
3.083052000E0,1.768250054E0,2.768130362E-2,-1.799826772E0,2.523261960E0
3.093132000E0,2.145031182E0,-5.722085238E-3,-2.300219793E0,3.145187214E0
3.103212000E0,2.459291833E0,4.320507646E-2,-1.967043399E0,3.149482931E0
3.113293000E0,2.689640847E0,2.353001440E-1,-9.318217881E-1,2.856190801E0
3.123373000E0,2.677490918E0,2.667558253E-1,-3.220517743E-1,2.709950854E0
3.133454000E0,2.361624036E0,2.630334878E-1,-6.882434486E-1,2.473890407E0
3.143534000E0,1.705747411E0,7.278029323E-2,-1.232684276E0,2.105797171E0
3.153615000E0,8.219767258E-1,-4.491614717E-1,-1.545266923E0,1.806997960E0
3.163695000E0,1.442987573E-1,-8.976820886E-1,-1.568422190E0,1.812899178E0
3.173776000E0,-3.050755531E-1,-9.553753960E-1,-1.383078171E0,1.708425728E0
3.183856000E0,-1.173380646E0,-1.592396212E0,-1.883417398E0,2.731265079E0
3.193937000E0,-2.292354704E0,-2.644520808E0,-3.355614152E0,4.848559242E0
3.204017000E0,-3.290461552E0,-3.616514575E0,-5.139571581E0,7.093765638E0
3.214098000E0,-4.013831710E0,-4.049858159E0,-5.696365675E0,8.059824936E0
3.224178000E0,-4.213636039E0,-3.300146880E0,-3.103157108E0,6.186702040E0
3.234258000E0,-4.179798202E0,-1.593667397E0,1.056494878E0,4.596375768E0
3.244339000E0,-3.836669846E0,1.755193806E-1,3.759240432E0,5.374265642E0
3.254419000E0,-3.186050453E0,1.563267723E0,4.155272348E0,5.464523012E0
3.264500000E0,-2.663192429E0,2.137176617E0,2.838392844E0,4.440336895E0
3.274580000E0,-2.729432319E0,1.626122367E0,1.058430233E0,3.348783256E0
3.284661000E0,-2.671261879E0,1.495670986E-1,1.130780975E-1,2.677834386E0
3.294741000E0,-1.991061422E0,-1.558595213E0,5.956570280E-1,2.597759018E0
3.304822000E0,-9.371928942E-1,-2.462848402E0,1.585244483E0,3.075215902E0
3.314902000E0,-4.949668050E-3,-2.463125560E0,2.439392881E0,3.466648187E0
3.324983000E0,7.707770437E-1,-2.138011599E0,3.169551072E0,3.900159593E0
3.335063000E0,1.353669308E0,-1.748039153E0,3.635395235E0,4.254898352E0
3.345144000E0,1.784393046E0,-1.217264584E0,3.243981450E0,3.897333352E0
3.355224000E0,2.059626750E0,-4.650448483E-1,1.776856570E0,2.759628296E0
3.365304000E0,1.922846927E0,2.149401391E-1,1.146486870E-1,1.938216678E0
3.375385000E0,1.313916720E0,4.482387811E-1,-4.016662931E-1,1.445209660E0
3.385465000E0,7.777191505E-1,4.834653318E-1,5.584757531E-1,1.072604760E0
3.395546000E0,6.155501327E-1,6.542771190E-1,1.763855286E0,1.979435774E0
3.405626000E0,5.417456996E-1,6.327131724E-1,2.049945515E0,2.212711227E0
3.415707000E0,4.195377231E-1,3.834867150E-1,1.630608936E0,1.726835100E0
3.425787000E0,2.582609904E-1,3.011614269E-1,1.053548977E0,1.125771909E0
3.435868000E0,-1.018269217E-1,1.273143500E-1,3.888106048E-1,4.216056832E-1
3.445948000E0,-5.297735256E-1,-1.080161995E-1,-1.231310327E-2,5.408133692E-1
3.456029000E0,-7.662779036E-1,-3.455336076E-1,2.899520952E-2,8.410802707E-1
3.466109000E0,-9.050384706E-1,-5.751718926E-1,4.207603393E-1,1.151936024E0
3.476189000E0,-1.021745971E0,-7.016980380E-1,9.454772294E-1,1.558933019E0
3.486270000E0,-9.177497327E-1,-6.645033145E-1,1.136345551E0,1.604715064E0
3.496350000E0,-6.093886292E-1,-4.341750580E-1,1.116711843E0,1.344212715E0
3.506431000E0,-3.023910964E-1,-1.862572074E-1,1.111798428E0,1.167145178E0
3.516511000E0,1.989456654E-2,1.394788975E-1,1.067866543E0,1.077120750E0
3.526592000E0,3.786756259E-1,4.184834701E-1,9.552304582E-1,1.109499379E0
3.536672000E0,6.750087145E-1,7.571600479E-1,6.903333896E-1,1.226983411E0
3.546753000E0,9.432453471E-1,1.059753458E0,5.387923441E-1,1.517592293E0
3.556833000E0,1.245708657E0,1.180722994E0,5.508146580E-1,1.802579716E0
3.566914000E0,1.681342887E0,1.359820286E0,5.316007074E-1,2.226796898E0
3.576994000E0,2.143940968E0,1.368333832E0,3.526051571E-1,2.567713136E0
3.587074000E0,2.555016893E0,1.214070835E0,-1.928003148E-1,2.835357346E0
3.597155000E0,2.797752649E0,1.118792794E0,-5.902536891E-1,3.070426130E0
3.607235000E0,2.868187916E0,1.064179800E0,-7.327153243E-1,3.145767365E0
3.617316000E0,2.825842088E0,1.042536331E0,-8.795775010E-1,3.137821233E0
3.627396000E0,2.743669120E0,1.058889239E0,-1.025497618E0,3.114580554E0
3.637477000E0,2.645675925E0,1.114369960E0,-1.881063309E0,3.432174337E0
3.647557000E0,2.607238084E0,1.111135865E0,-3.465496783E0,4.476827145E0
3.657638000E0,2.599436729E0,8.904292023E-1,-3.960893943E0,4.820644801E0
3.667718000E0,2.481175330E0,7.764061582E-1,-2.971674863E0,3.948403352E0
3.677799000E0,1.908616558E0,6.774607444E-1,-2.327532138E0,3.085316204E0
3.687879000E0,1.268204942E0,7.547890019E-1,-2.159592649E0,2.615700790E0
3.697960000E0,9.602060732E-1,9.278221464E-1,-1.954099856E0,2.366718379E0
3.708040000E0,9.068557853E-1,1.093665555E0,-1.588161659E0,2.130903380E0
3.718120000E0,8.839317763E-1,1.102434039E0,-1.214940315E0,1.863538614E0
3.728201000E0,8.407419026E-1,9.723925477E-1,-1.150737303E0,1.725279848E0
3.738281000E0,8.012486386E-1,7.621073771E-1,-1.347557505E0,1.743191976E0
3.748362000E0,8.317450842E-1,7.024850732E-1,-1.584801410E0,1.922727405E0
3.758442000E0,1.146807974E0,6.361665380E-1,-1.546409177E0,2.027623667E0
3.768523000E0,1.585167592E0,4.026690906E-1,-1.162999645E0,2.006854969E0
3.778603000E0,1.803990282E0,7.226573825E-3,-1.059611517E0,2.092178226E0
3.788684000E0,1.811255740E0,-1.389526480E-1,-1.050250563E0,2.098328249E0
3.798764000E0,1.661491298E0,1.654387808E-1,-1.236510840E0,2.077710851E0
3.808845000E0,1.490695298E0,6.599968654E-1,-1.525861476E0,2.232940120E0
3.818925000E0,1.262405381E0,1.044934859E0,-1.688037803E0,2.352663986E0
3.829005000E0,1.104061319E0,1.282539391E0,-1.762097028E0,2.443121901E0
3.839086000E0,1.153381121E0,1.443545398E0,-1.687403672E0,2.502287450E0
3.849166000E0,1.419148767E0,1.488485928E0,-1.682891376E0,2.657385362E0
3.859247000E0,1.897864991E0,1.384994304E0,-1.774240526E0,2.944151862E0
3.869327000E0,2.391425248E0,1.126951999E0,-1.446334958E0,3.013439950E0
3.879408000E0,2.578255190E0,7.470864648E-1,-6.548774819E-1,2.763042259E0
3.889488000E0,2.562572373E0,3.242719620E-1,-2.429057635E-1,2.594404109E0
3.899569000E0,2.531510209E0,2.281408131E-2,-5.959540665E-2,2.532314363E0
3.909649000E0,2.402842521E0,-1.603511184E-1,2.517999633E-1,2.421315321E0
3.919730000E0,2.317532814E0,-3.026045197E-1,2.104699427E-1,2.346662617E0
3.929810000E0,2.370818052E0,-2.636334121E-1,-2.128252012E-1,2.394906131E0
3.939890000E0,2.557326836E0,-1.205532146E-1,-6.328552598E-1,2.637225702E0
3.949971000E0,2.886326564E0,-3.701287508E-4,-8.894696742E-1,3.020271092E0
3.960051000E0,3.390530216E0,5.965037048E-2,-1.193357804E0,3.594906975E0
3.970132000E0,3.814957965E0,2.066014248E-1,-1.283489125E0,4.030376255E0
3.980212000E0,4.142795267E0,2.750764132E-1,-1.355627394E0,4.367624673E0
3.990293000E0,4.382212143E0,8.719777286E-2,-1.160323959E0,4.534064226E0
4.000373167E0,4.520650236E0,-2.610834414E-1,-9.330706072E-1,4.623317410E0
4.010454167E0,4.500007811E0,-6.431282330E-1,-1.109665729E0,4.679213850E0
4.020534167E0,4.192897426E0,-8.442104709E-1,-1.168180717E0,4.433703456E0
4.030615167E0,3.691563004E0,-5.412270516E-1,-9.000199516E-1,3.838046384E0
4.040695167E0,2.982320303E0,-1.764590281E-1,-6.769334717E-1,3.063268043E0
4.050776167E0,1.992538136E0,-1.332024962E-1,-6.521152572E-1,2.100763061E0
4.060856167E0,8.929806349E-1,-2.584679818E-1,-9.511082442E-1,1.329972558E0
4.070936167E0,-1.588593476E-1,-3.294730604E-1,-1.700517662E0,1.739410563E0
4.081017167E0,-9.282408071E-1,-2.428851521E-1,-2.208961714E0,2.408347161E0
4.091097167E0,-1.410163351E0,-1.413546842E-1,-2.021057931E0,2.468444243E0
4.101178167E0,-1.684369698E0,-9.106687546E-2,-1.458083330E0,2.229663978E0
4.111258167E0,-2.027784275E0,-1.647470552E-1,-1.032135889E0,2.281305581E0
4.121339167E0,-2.423094937E0,-5.644808435E-1,-1.249378662E0,2.784057244E0
4.131419167E0,-2.521717877E0,-1.145846107E0,-1.168382446E0,3.006183942E0
4.141500167E0,-2.167522204E0,-1.577685787E0,-2.257329114E-1,2.690390361E0
4.151580167E0,-1.818563882E0,-1.914840919E0,7.457972268E-1,2.744085247E0
4.161661167E0,-1.601581603E0,-2.432913582E0,1.242240965E0,3.166590397E0
4.171741167E0,-1.550446825E0,-3.037734951E0,1.446304114E0,3.704526229E0
4.181821167E0,-1.405439093E0,-3.389305809E0,1.253722558E0,3.877431258E0
4.191902167E0,-1.131721281E0,-3.435056178E0,6.408127356E-1,3.673015786E0
4.201982167E0,-8.661834303E-1,-3.198039876E0,-1.846175750E-1,3.318405707E0
4.212063167E0,-7.280169404E-1,-2.756645261E0,-8.925445788E-1,2.987597293E0
4.222143167E0,-6.145216075E-1,-2.345695928E0,-1.325857465E0,2.763661378E0
4.232224167E0,-7.415845272E-1,-2.094440487E0,-1.377191048E0,2.614055039E0
4.242304167E0,-1.105830102E0,-1.909932182E0,-8.499093135E-1,2.364962366E0
4.252385167E0,-1.706077779E0,-1.702774102E0,1.635115385E-1,2.415962966E0
4.262465167E0,-2.113871662E0,-1.433349608E0,1.164612015E0,2.807002965E0
4.272546167E0,-2.506420976E0,-1.123864084E0,1.725861833E0,3.244043104E0
4.282626167E0,-2.607592133E0,-5.801648301E-1,1.576844519E0,3.102026208E0
4.292706167E0,-2.239015525E0,1.266068369E-1,1.041281665E0,2.472546728E0
4.302787167E0,-1.978115686E0,5.863482606E-1,6.665767372E-1,2.168195217E0
4.312867167E0,-1.837147796E0,7.080761808E-1,6.579943402E-1,2.075919183E0
4.322948167E0,-1.985029434E0,6.512763280E-1,8.389190331E-1,2.251285822E0
4.333028167E0,-2.041055700E0,6.856018227E-1,1.060818382E0,2.400269541E0
4.343109167E0,-2.092435769E0,6.961513692E-1,1.056351255E0,2.445156877E0
4.353189167E0,-1.825055754E0,7.840724427E-1,8.576909342E-1,2.163615455E0
4.363270167E0,-1.424702745E0,8.495630121E-1,5.205087586E-1,1.738523682E0
4.373350167E0,-1.212838826E0,7.883526045E-1,3.212761411E-1,1.481788179E0
4.383431167E0,-1.214384830E0,6.600892514E-1,4.894344619E-1,1.466285930E0
4.393511167E0,-1.682107118E0,4.249832350E-1,8.124501497E-1,1.915768867E0
4.403592167E0,-2.415302938E0,5.364381820E-1,9.201298419E-1,2.639714592E0
4.413672167E0,-3.272105972E0,8.403729433E-1,1.254301140E0,3.603633656E0
4.423752167E0,-3.858274723E0,1.223235176E0,1.188607965E0,4.218456712E0
4.433833167E0,-4.139819034E0,1.504856962E0,1.134503970E0,4.548603673E0
4.443913167E0,-4.196891075E0,1.627303505E0,1.127223895E0,4.640328124E0
4.453994167E0,-4.040445604E0,1.662773300E0,7.164947096E-1,4.427570484E0
4.464074167E0,-3.517943968E0,1.564912544E0,-4.080742568E-2,3.850525455E0
4.474155167E0,-2.453523263E0,1.440034729E0,-6.743099722E-1,2.923725425E0
4.484235167E0,-8.642710984E-1,1.554102797E0,-9.645640031E-1,2.023013532E0
4.494316167E0,8.780535704E-1,1.926793213E0,-1.485351528E0,2.586460771E0
4.504396167E0,2.346940216E0,2.107831196E0,-2.429194168E0,3.981465186E0
4.514477167E0,3.544832974E0,1.989553133E0,-3.098271467E0,5.111110306E0
4.524557167E0,4.527418388E0,1.662499650E0,-2.573166651E0,5.466498784E0
4.534637167E0,5.252519907E0,1.383346558E0,-1.787681959E0,5.718253217E0
4.544718167E0,5.304451368E0,1.278822901E0,-1.712319243E0,5.718796160E0
4.554798167E0,4.745024858E0,1.244543599E0,-1.660629126E0,5.178980475E0
4.564879167E0,3.699299455E0,1.371259194E0,-1.346740065E0,4.168798032E0
4.574959167E0,2.239952834E0,1.449772097E0,-1.102953564E0,2.887167193E0
4.585040167E0,6.913110441E-1,1.212349414E0,-1.074756829E0,1.761477875E0
4.595120167E0,-4.722924721E-1,5.876656383E-1,-1.437967446E0,1.623626022E0
4.605201167E0,-1.352592543E0,-4.537515360E-1,-1.772724051E0,2.275510405E0
4.615281167E0,-2.231224403E0,-1.834713600E0,-2.240122111E0,3.655500431E0
4.625362167E0,-2.658462324E0,-3.240238062E0,-3.265683390E0,5.313309010E0
4.635442167E0,-2.479260952E0,-4.216692671E0,-4.286812481E0,6.504151996E0
4.645522167E0,-1.802599522E0,-4.529091861E0,-2.882545462E0,5.663135745E0
4.655603167E0,-1.471612617E0,-4.791938238E0,5.936819847E-1,5.047848460E0
4.665683167E0,-1.505131196E0,-5.424459622E0,1.090422396E0,5.734038988E0
4.675764167E0,-1.067505112E0,-6.065568227E0,-1.427285753E0,6.322011523E0
4.685844167E0,-1.613433909E-1,-5.840315353E0,-5.415372464E-1,5.867587043E0
4.695925167E0,-2.323958319E-1,-4.256925023E0,4.261888139E0,6.028192845E0
4.706005167E0,-1.357964380E0,-1.870048909E0,6.274139578E0,6.686252884E0
4.716086167E0,-2.504358663E0,-1.267033160E-2,5.435223176E0,5.984448498E0
4.726166167E0,-3.490535730E0,1.017951713E0,3.879330254E0,5.316885234E0
4.736247167E0,-4.010635622E0,1.668334002E0,2.452050934E0,4.988094848E0
4.746327167E0,-4.427581566E0,1.936559817E0,1.408099869E0,5.033536301E0
4.756408167E0,-4.035045408E0,1.819994988E0,2.219966758E0,4.951992085E0
4.766488167E0,-2.911889421E0,9.331974918E-1,3.762270459E0,4.848158059E0
4.776568167E0,-2.053907588E0,-7.187683994E-1,3.741434491E0,4.328220932E0
4.786649167E0,-1.289153177E0,-1.994871760E0,2.916140932E0,3.761024752E0
4.796729167E0,-9.166060174E-1,-2.636660396E0,2.394776287E0,3.677920350E0
4.806810167E0,-8.527295718E-1,-2.704868751E0,2.329808020E0,3.670349860E0
4.816890167E0,-4.675398552E-1,-2.074307939E0,2.462727950E0,3.253671141E0
4.826971167E0,2.716712871E-1,-9.215217716E-1,2.016293035E0,2.233482766E0
4.837051167E0,1.002867651E0,1.871354592E-1,1.370377872E0,1.708419948E0
4.847132167E0,9.247608367E-1,4.529925674E-1,1.270676998E0,1.635544223E0
4.857212167E0,5.026149631E-2,1.542624128E-1,3.192696691E-1,3.581287919E-1
4.867293167E0,-7.354648313E-1,-1.594518167E-1,-6.222010481E-1,9.764566269E-1
4.877373167E0,-1.112367289E0,-3.426146775E-1,-5.087932042E-1,1.270281987E0
4.887453167E0,-9.852116910E-1,-3.539875120E-1,1.951894140E-1,1.064916965E0
4.897534167E0,-6.022149727E-1,-3.080582178E-1,4.288418126E-1,8.009169989E-1
4.907614167E0,-3.508355704E-1,-1.424574691E-1,4.836080769E-1,6.142120970E-1
4.917695167E0,-1.689976886E-1,6.033449471E-2,7.298787669E-1,7.516139198E-1
4.927775167E0,2.220772505E-3,1.395204127E-1,9.348271108E-1,9.451838998E-1
4.937856167E0,-5.129206806E-2,1.340895188E-1,1.139458755E0,1.148467296E0
4.947936167E0,-2.295897532E-1,1.142873383E-1,1.458080406E0,1.480463279E0
4.958017167E0,-4.260217005E-1,1.166741717E-1,1.684485766E0,1.741436087E0
4.968097167E0,-5.479712301E-1,3.200181127E-2,1.775192453E0,1.858118626E0
4.978178167E0,-4.979073697E-1,-1.276798010E-2,1.567746105E0,1.644962802E0
4.988258167E0,-3.542257860E-1,4.532644629E-2,1.398668017E0,1.443538228E0
4.998339167E0,-1.917910123E-1,1.617772543E-1,1.424479966E0,1.446408949E0
5.008419250E0,-1.431263906E-1,3.674138886E-1,1.158430485E0,1.223699030E0
5.018499250E0,-2.255142438E-1,5.538073361E-1,5.011180393E-1,7.801785238E-1
5.028580250E0,-3.327893087E-1,5.838316190E-1,-3.022344275E-1,7.368539425E-1
5.038660250E0,-3.700240856E-1,5.019173902E-1,-7.143940973E-1,9.482604162E-1
5.048741250E0,-2.583329111E-1,3.698492539E-1,-6.753522384E-1,8.121730170E-1
5.058821250E0,2.942406625E-2,3.393612868E-1,-2.790665897E-1,4.403521546E-1
5.068902250E0,2.472290486E-1,2.847670037E-1,1.195287824E-1,3.956028042E-1
5.078982250E0,4.502595788E-1,2.679515809E-1,4.180279354E-1,6.702828454E-1
5.089063250E0,6.617729571E-1,3.974972284E-1,8.814361846E-1,1.171698443E0
5.099143250E0,7.274535611E-1,5.145982468E-1,1.295507931E0,1.572367908E0
5.109224250E0,7.192966953E-1,5.935906219E-1,1.582912613E0,1.837212536E0
5.119304250E0,7.941612285E-1,7.334922731E-1,1.696652652E0,2.011798497E0
5.129384250E0,8.823480579E-1,8.711597031E-1,1.457381079E0,1.913482933E0
5.139465250E0,1.013663658E0,1.052947299E0,1.080861322E0,1.817821009E0
5.149545250E0,1.062955978E0,1.100741270E0,8.592238549E-1,1.754928029E0
5.159626250E0,8.495998496E-1,8.519024831E-1,1.175482208E0,1.682057123E0
5.169706250E0,6.801180115E-1,4.301451570E-1,1.755756308E0,1.931389546E0
5.179787250E0,7.429273403E-1,-3.841620684E-2,2.312661645E0,2.429366321E0
5.189867250E0,8.530704644E-1,-4.026527184E-1,2.573433284E0,2.740878927E0
5.199948250E0,8.548065028E-1,-4.954246420E-1,2.395875564E0,2.591593998E0
5.210028250E0,7.510409367E-1,-1.792393792E-1,1.958335433E0,2.105057460E0
5.220109250E0,6.068848515E-1,4.128362292E-1,1.586019824E0,1.747627493E0
5.230189250E0,4.307345563E-1,9.386973828E-1,1.283101308E0,1.647129018E0
5.240269250E0,1.619096938E-1,1.147420762E0,1.116642627E0,1.609248244E0
5.250350250E0,-2.172006726E-2,7.559011424E-1,1.216376538E0,1.432281460E0
5.260430250E0,-1.615047741E-1,-4.034479398E-1,1.577257186E0,1.636030031E0
5.270511250E0,-3.997650710E-1,-2.080410678E0,1.919715889E0,2.858886111E0
5.280591250E0,-7.981855747E-1,-3.833115909E0,2.052234700E0,4.420581980E0
5.290672250E0,-1.404579260E0,-5.252157964E0,1.863443455E0,5.747210427E0
5.300752250E0,-1.987686994E0,-5.974478547E0,1.318227872E0,6.432963409E0
5.310833250E0,-2.436542948E0,-5.634191061E0,6.233424246E-1,6.170041024E0
5.320913250E0,-2.774216729E0,-4.242958948E0,9.007664949E-2,5.070216257E0
5.330994250E0,-2.969979170E0,-2.311746410E0,-1.442975879E-1,3.766400075E0
5.341074250E0,-3.051949240E0,-5.232094413E-1,-2.922239578E-1,3.110231040E0
5.351155250E0,-3.001707039E0,6.204480529E-1,-6.670677571E-1,3.136906171E0
5.361235250E0,-2.888317541E0,1.018343477E0,-1.275217215E0,3.317465991E0
5.371315250E0,-2.629037966E0,1.121617584E0,-1.516538237E0,3.235700056E0
5.381396250E0,-2.120764360E0,1.083756863E0,-1.368236622E0,2.746678332E0
5.391476250E0,-1.533030309E0,1.019991222E0,-9.333838718E-1,2.064405356E0
5.401557250E0,-7.439128885E-1,7.967527145E-1,-6.403494899E-1,1.264226539E0
5.411637250E0,-3.243982619E-1,4.137858170E-1,-6.074214797E-1,8.033764925E-1
5.421718250E0,-5.020676637E-1,4.813720286E-2,-6.387662101E-1,8.138866016E-1
5.431798250E0,-1.049612047E0,-2.628358519E-1,-3.203547661E-1,1.128448187E0
5.441879250E0,-1.432335700E0,-2.803213656E-1,3.170564979E-2,1.459853032E0
5.451959250E0,-1.486737025E0,-1.606265223E-1,2.320794976E-1,1.513290704E0
5.462040250E0,-1.302231059E0,-5.175370574E-2,6.020781478E-1,1.435612160E0
5.472120250E0,-9.395931762E-1,8.427358031E-2,1.059132045E0,1.418343422E0
5.482200250E0,-5.069977435E-1,2.904662848E-1,1.384984363E0,1.503196282E0
5.492281250E0,-8.896538615E-2,4.813457161E-1,1.641004408E0,1.712455549E0
5.502361250E0,2.133514506E-1,5.207506871E-1,1.872242492E0,1.954991577E0
5.512442250E0,4.769646898E-1,5.881702530E-1,1.976329654E0,2.116440045E0
5.522522250E0,6.317650464E-1,6.327470863E-1,1.879024969E0,2.080920658E0
5.532603250E0,6.867163020E-1,7.075698119E-1,1.600744428E0,1.880057723E0
5.542683250E0,6.943130046E-1,8.431456929E-1,1.292598502E0,1.692269510E0
5.552764250E0,7.496987084E-1,8.818373036E-1,9.663962281E-1,1.507848418E0
5.562844250E0,8.437228131E-1,7.625318849E-1,6.770996788E-1,1.323550919E0
5.572925250E0,9.914410222E-1,5.214675558E-1,5.985701108E-1,1.270106251E0
5.583005250E0,1.146734007E0,1.722882092E-1,6.206294627E-1,1.315242578E0
5.593086250E0,1.144120594E0,-1.904900068E-1,2.538976519E-1,1.187334154E0
5.603166250E0,9.402413401E-1,-4.730572879E-1,-8.770940423E-1,1.370084280E0
5.613246250E0,6.157612172E-1,-7.752308679E-1,-2.364892484E0,2.563759200E0
5.623327250E0,2.535840949E-1,-1.064487364E0,-3.296087158E0,3.472985573E0
5.633407250E0,-6.454536706E-2,-1.245702517E0,-3.333574827E0,3.559306392E0
5.643488250E0,-3.254656711E-1,-1.327156570E0,-2.916557254E0,3.220804042E0
5.653568250E0,-4.817456657E-1,-1.267334876E0,-2.450369128E0,2.800450935E0
5.663649250E0,-4.845511597E-1,-1.157597256E0,-2.142950596E0,2.483356296E0
5.673729250E0,-4.126710454E-1,-9.450293326E-1,-1.795943052E0,2.070939226E0
5.683810250E0,-2.604156893E-1,-7.023593581E-1,-1.289645658E0,1.491412392E0
5.693890250E0,-4.198476255E-2,-3.990145808E-1,-7.623541296E-1,8.614866075E-1
5.703971250E0,1.475337294E-1,-1.124185681E-1,-4.150029150E-1,4.545674375E-1
5.714051250E0,3.885714537E-1,9.369227529E-2,4.432189465E-2,4.021572422E-1
5.724132250E0,5.661063695E-1,1.871015453E-1,5.665428641E-1,8.224683743E-1
5.734212250E0,5.914210126E-1,1.864905113E-1,9.641732629E-1,1.146380219E0
5.744292250E0,8.537718379E-1,3.147801769E-1,1.178964736E0,1.489285319E0
5.754373250E0,9.728503847E-1,3.973036855E-1,1.306873894E0,1.676963764E0
5.764453250E0,9.861481225E-1,3.929013169E-1,1.228348273E0,1.623483614E0
5.774534250E0,9.160522860E-1,4.975588757E-1,9.749625452E-1,1.427329181E0
5.784614250E0,8.557712933E-1,6.362951767E-1,5.691983771E-1,1.208802238E0
5.794695250E0,7.442561200E-1,7.930759853E-1,2.509551868E-1,1.116183317E0
5.804775250E0,6.655300856E-1,1.045548817E0,-7.470855877E-2,1.241645679E0
5.814856250E0,6.680324015E-1,1.338779665E0,-4.115375626E-1,1.551760757E0
5.824936250E0,7.491929242E-1,1.604565437E0,-5.423444545E-1,1.852041519E0
5.835017250E0,8.347806662E-1,1.714775512E0,-2.977986932E-1,1.930284404E0
5.845097250E0,1.045974787E0,1.786819641E0,1.728612363E-1,2.077659426E0
5.855178250E0,1.276515005E0,1.916748281E0,4.885614726E-1,2.354167972E0
5.865258250E0,1.259432364E0,1.941878445E0,3.401512456E-1,2.339394076E0
5.875338250E0,1.302596802E0,2.018467614E0,2.314675865E-1,2.413409866E0
5.885419250E0,1.288808776E0,2.122147518E0,4.263674171E-1,2.519191800E0
5.895499250E0,1.266409554E0,2.125765775E0,5.253033292E-1,2.529548750E0
5.905580250E0,1.353924831E0,2.073080024E0,4.244303808E-1,2.512153335E0
5.915660250E0,1.539991419E0,1.907824845E0,3.438300213E-1,2.475800536E0
5.925741250E0,1.702234989E0,1.487780753E0,2.650710963E-1,2.276259698E0
5.935821250E0,1.698167666E0,6.307163483E-1,-5.692986569E-1,1.898862158E0
5.945902250E0,1.507022771E0,-8.729904664E-1,-2.308546228E0,2.891818749E0
5.955982250E0,2.211662543E0,-2.447444497E0,-3.651601085E0,4.920937538E0
5.966063250E0,3.303740286E0,-3.353847708E0,-3.297585214E0,5.747787624E0
5.976143250E0,2.793396473E0,-3.164504340E0,-7.313897605E-1,4.283933071E0
5.986223250E0,1.115541742E0,-1.841795747E0,1.581703701E0,2.671784339E0
5.996304250E0,-1.134652197E-1,-7.604420900E-2,2.395103731E0,2.398995407E0
6.006384625E0,-7.095680979E-1,1.263749363E0,1.504514461E0,2.089045979E0
6.016465625E0,-1.205867191E0,1.987689625E0,-8.845621061E-1,2.487463738E0
6.026545625E0,-1.395546481E0,2.023126091E0,-2.982368835E0,3.864597396E0
6.036626625E0,-1.688544318E-1,1.586944853E0,-1.632058607E0,2.282656584E0
6.046706625E0,1.041455766E0,1.126589472E0,9.034673238E-1,1.780473857E0
6.056787625E0,1.267135194E0,5.908430153E-1,1.663726981E0,2.173180741E0
6.066867625E0,1.180340294E0,2.443604046E-1,1.636864872E0,2.032791634E0
6.076948625E0,1.153886906E0,1.060749239E-1,1.929454865E0,2.250667225E0
6.087028625E0,1.266262204E0,1.636126953E-1,2.399408451E0,2.717967991E0
6.097108625E0,1.161107925E0,2.805681181E-1,2.902263150E0,3.138474386E0
6.107189625E0,1.038700850E0,4.641706896E-1,3.329588195E0,3.518595094E0
6.117269625E0,1.040055358E0,5.824236095E-1,3.473893969E0,3.672719934E0
6.127350625E0,1.232363849E0,5.501259291E-1,3.240291857E0,3.510106908E0
6.137430625E0,1.541923631E0,3.323662627E-1,2.473365204E0,2.933518579E0
6.147511625E0,1.693332311E0,-9.768884718E-2,1.310581468E0,2.143488094E0
6.157591625E0,1.727654005E0,-4.888330758E-1,2.413414689E-1,1.811626849E0
6.167672625E0,1.633662644E0,-6.666843259E-1,-5.092345959E-1,1.836475292E0
6.177752625E0,1.393484168E0,-4.441913384E-1,-8.741271651E-1,1.703878626E0
6.187833625E0,9.308916423E-1,-1.322511542E-1,-1.132238467E0,1.471738279E0
6.197913625E0,4.700445101E-1,5.961762607E-2,-1.439426034E0,1.515402062E0
6.207994625E0,2.676273528E-1,2.645216042E-1,-1.361887277E0,1.412916499E0
6.218074625E0,3.083801070E-1,4.557331574E-1,-8.952578330E-1,1.050846130E0
6.228154625E0,5.165863001E-1,5.633581781E-1,-2.355194328E-1,7.998145070E-1
6.238235625E0,7.117011622E-1,6.563628209E-1,2.316034794E-1,9.954751973E-1
6.248315625E0,8.780769593E-1,7.404732639E-1,5.287274587E-1,1.264465312E0
6.258396625E0,1.000123553E0,8.368114042E-1,6.700663555E-1,1.466113695E0
6.268476625E0,1.195773727E0,9.044356227E-1,7.600590974E-1,1.680942722E0
6.278557625E0,1.440550746E0,9.345774347E-1,6.190640169E-1,1.825338788E0
6.288637625E0,1.693838972E0,9.666944361E-1,1.928165408E-1,1.959787441E0
6.298718625E0,1.876262745E0,9.914152944E-1,-3.664590383E-1,2.153499106E0
6.308798625E0,1.949602616E0,9.301317966E-1,-5.675213957E-1,2.233422498E0
6.318879625E0,1.772401869E0,8.125191468E-1,-2.647999682E-1,1.967667343E0
6.328959625E0,1.379787066E0,6.116690433E-1,-2.839937825E-2,1.509555527E0
6.339040625E0,9.695569405E-1,3.945905775E-1,5.789905630E-2,1.048377168E0
6.349120625E0,6.386884421E-1,2.741905600E-1,7.083781164E-2,6.986568434E-1
6.359200625E0,2.418206665E-1,3.674232441E-1,-1.627185830E-1,4.689929768E-1
6.369281625E0,-5.030505806E-2,4.133373356E-1,-5.135656285E-1,6.611565674E-1
6.379361625E0,-1.823024431E-1,2.403737730E-1,-7.176645181E-1,7.784960450E-1
6.389442625E0,-1.330463755E-1,-7.544311523E-2,-7.578144244E-1,7.730948865E-1
6.399522625E0,2.373998791E-2,-2.962433338E-1,-8.053756765E-1,8.584600633E-1
6.409603625E0,2.084152311E-1,-3.822354108E-1,-8.489210609E-1,9.540481044E-1
6.419683625E0,3.284667546E-1,-2.885764647E-1,-8.257986852E-1,9.344036886E-1
6.429764625E0,4.476873887E-1,-1.151363540E-1,-8.312764299E-1,9.511576530E-1
6.439844625E0,5.093240583E-1,7.027008355E-2,-8.744575328E-1,1.014408625E0
6.449925625E0,5.960002595E-1,3.041359055E-1,-8.797937018E-1,1.105328872E0
6.460005625E0,7.295807782E-1,5.343232441E-1,-8.475884074E-1,1.239433560E0
6.470085625E0,9.243491927E-1,7.924193430E-1,-8.907379353E-1,1.508563527E0
6.480166625E0,1.101211386E0,1.025585838E0,-9.738270159E-1,1.792437415E0
6.490246625E0,1.285516501E0,1.149730997E0,-9.501497394E-1,1.969065404E0
6.500327625E0,1.516575367E0,1.178357795E0,-9.901277375E-1,2.160759328E0
6.510407625E0,1.690394085E0,1.058346033E0,-9.341084880E-1,2.202291342E0
6.520488625E0,1.719490999E0,8.995438421E-1,-9.523412758E-1,2.161661936E0
6.530568625E0,1.632183299E0,8.557002497E-1,-1.105668134E0,2.149127093E0
6.540649625E0,1.504424268E0,8.446478426E-1,-1.129316028E0,2.062056509E0
6.550729625E0,1.399851786E0,7.131065404E-1,-1.009853758E0,1.867594863E0
6.560810625E0,1.298815993E0,5.083803177E-1,-8.904623853E-1,1.654779982E0
6.570890625E0,1.119155614E0,4.472231197E-1,-7.807114631E-1,1.435976391E0
6.580971625E0,8.129869241E-1,4.960339218E-1,-5.732043046E-1,1.111557720E0
6.591051625E0,4.849528635E-1,5.059905607E-1,-5.365236975E-1,8.826456850E-1
6.601131625E0,4.214474237E-1,4.886366093E-1,-6.533053118E-1,9.182545929E-1
6.611212625E0,4.951258492E-1,3.933883899E-1,-5.734734227E-1,8.536836642E-1
6.621292625E0,5.620872858E-1,2.312246346E-1,-3.777899189E-1,7.156341044E-1
6.631373625E0,6.502986735E-1,1.714590740E-1,-2.481893076E-1,7.168573856E-1
6.641453625E0,7.043661225E-1,2.185227281E-1,-1.504131907E-1,7.526672207E-1
6.651534625E0,7.079247379E-1,2.453842521E-1,-5.265300751E-2,7.510946711E-1
6.661614625E0,8.313983443E-1,2.925250894E-1,1.583683276E-1,8.954745457E-1
6.671695625E0,9.844696793E-1,3.048621297E-1,3.079230009E-1,1.075610544E0
6.681775625E0,1.188220879E0,2.291137898E-1,3.833883356E-1,1.269389066E0
6.691856625E0,1.355556496E0,8.049627900E-2,3.348507446E-1,1.398620065E0
6.701936625E0,1.502265184E0,1.845030427E-2,2.456767590E-1,1.522333132E0
6.712016625E0,1.619502150E0,7.100157022E-2,-8.343392015E-3,1.621079285E0
6.722097625E0,1.790195823E0,1.304414409E-1,-2.060710824E-1,1.806732229E0
6.732177625E0,2.005704896E0,1.355367047E-1,-2.443808699E-1,2.025078848E0
6.742258625E0,2.335440204E0,1.009170949E-1,-3.316191347E-1,2.361024451E0
6.752338625E0,2.636474747E0,1.109509170E-2,-5.649060823E-1,2.696338457E0
6.762419625E0,2.952079381E0,-1.098878932E-1,-9.094468327E-1,3.090945092E0
6.772499625E0,3.341137615E0,-3.428310245E-1,-1.031824817E0,3.513601590E0
6.782580625E0,3.710672289E0,-7.184514803E-1,-7.510152090E-1,3.853477029E0
6.792660625E0,3.974244305E0,-1.030998605E0,-6.296923546E-1,4.153804086E0
6.802741625E0,3.956487481E0,-1.151203326E0,-8.462353617E-1,4.206563511E0
6.812821625E0,3.591899844E0,-1.118346067E0,-1.160296916E0,3.936842815E0
6.822902625E0,3.105122649E0,-1.045302649E0,-1.455129316E0,3.584947088E0
6.832982625E0,2.790057128E0,-7.563005072E-1,-1.595027021E0,3.301593620E0
6.843062625E0,2.502953285E0,-2.863188547E-1,-1.563900391E0,2.965221420E0
6.853143625E0,1.825155449E0,-4.661926568E-2,-1.526573082E0,2.379872085E0
6.863223625E0,9.458830261E-1,1.172869599E-1,-1.763158298E0,2.004289928E0
6.873304625E0,1.747826314E-1,2.776146895E-1,-2.135942270E0,2.160987798E0
6.883384625E0,-2.781421083E-1,4.750435871E-1,-2.305704482E0,2.370506823E0
6.893465625E0,-5.924486607E-1,7.333455080E-1,-2.300907426E0,2.486557064E0
6.903545625E0,-7.736114815E-1,1.125803606E0,-1.655026909E0,2.145931628E0
6.913626625E0,-7.637598002E-1,1.570500144E0,-7.383209038E-1,1.896026764E0
6.923706625E0,-7.942202854E-1,1.752642666E0,-3.609714264E-1,1.957764681E0
6.933787625E0,-7.610116088E-1,1.575142833E0,6.675239861E-2,1.750619746E0
6.943867625E0,-7.057279390E-1,1.108593496E0,5.937964439E-1,1.442090732E0
6.953948625E0,-3.317876807E-1,3.576525468E-1,8.025046206E-1,9.391549794E-1
6.964028625E0,-8.808479548E-2,-4.710364902E-1,8.297514760E-1,9.581867346E-1
6.974108625E0,-1.712205076E-1,-1.267414398E0,8.692095836E-1,1.546344405E0
6.984189625E0,-3.155277434E-1,-1.997796537E0,9.681843797E-1,2.242349160E0
6.994269625E0,-4.379602531E-1,-2.579939480E0,1.210040422E0,2.883070365E0
7.004350000E0,-3.975834748E-1,-2.960463411E0,1.361582637E0,3.282731105E0
7.014430000E0,-2.311006737E-1,-3.053280943E0,1.127296400E0,3.262932609E0
7.024511000E0,4.086969852E-2,-2.903757114E0,6.706298809E-1,2.980473141E0
7.034591000E0,3.211132962E-1,-2.702269079E0,2.276566637E-1,2.730787337E0
7.044672000E0,4.820327640E-1,-2.383802817E0,5.745591044E-2,2.432729463E0
7.054752000E0,3.936205244E-1,-1.953985689E0,2.039228153E-1,2.003642110E0
7.064833000E0,1.001052091E-1,-1.464072048E0,2.371830936E-1,1.486534169E0
7.074913000E0,-2.824918520E-1,-1.025082393E0,2.515492639E-1,1.092644769E0
7.084993000E0,-6.092269537E-1,-7.047736734E-1,3.684330583E-1,1.001801542E0
7.095074000E0,-7.955610520E-1,-2.927782738E-1,3.546637425E-1,9.189248474E-1
7.105154000E0,-7.152758574E-1,1.751936907E-1,4.473967820E-2,7.377764026E-1
7.115235000E0,-6.206363332E-1,2.983758134E-1,-1.871819445E-1,7.136208128E-1
7.125315000E0,-7.959083766E-1,-3.615859687E-2,-3.101465508E-2,7.973327391E-1
7.135396000E0,-9.335237664E-1,-1.959290868E-1,3.295324096E-1,1.009181073E0
7.145476000E0,-1.173810416E0,-1.835926312E-1,7.657700729E-1,1.413485391E0
7.155557000E0,-1.298773016E0,-1.683167803E-1,1.022722164E0,1.661656556E0
7.165637000E0,-1.461171829E0,-2.076662028E-1,1.069538481E0,1.822652169E0
7.175718000E0,-1.624890944E0,-2.853172266E-1,9.841147533E-1,1.920978487E0
7.185798000E0,-1.783507193E0,-2.137847292E-1,7.953990841E-1,1.964500324E0
7.195879000E0,-2.083465848E0,4.128134251E-2,5.854574373E-1,2.164554111E0
7.205959000E0,-2.522205243E0,3.598434985E-1,3.388718748E-1,2.570183024E0
7.216039000E0,-2.951738781E0,5.627541608E-1,4.537500742E-1,3.038970748E0
7.226120000E0,-3.140320256E0,7.724364835E-1,7.954338750E-1,3.330312971E0
7.236200000E0,-3.084243119E0,9.926876485E-1,1.220122118E0,3.462178847E0
7.246281000E0,-2.874348543E0,1.137252454E0,1.438404233E0,3.409432420E0
7.256361000E0,-2.619575416E0,1.180972670E0,1.575944486E0,3.277266061E0
7.266442000E0,-2.218061736E0,1.040438935E0,1.553428905E0,2.900939917E0
7.276522000E0,-1.513657022E0,8.363553214E-1,1.419155199E0,2.237107347E0
7.286603000E0,-7.459433341E-1,5.922627193E-1,9.783616778E-1,1.365429661E0
7.296683000E0,-1.741435307E-1,4.119901371E-1,1.088941589E-1,4.603474560E-1
7.306764000E0,4.302714568E-1,3.495371962E-1,-1.158688639E0,1.284472320E0
7.316844000E0,1.135963728E0,5.137083006E-1,-2.142835844E0,2.479123891E0
7.326924000E0,1.972170530E0,1.079677845E0,-2.888209367E0,3.660179531E0
7.337005000E0,2.836498346E0,1.827724423E0,-3.701577238E0,5.008789622E0
7.347085000E0,3.368815411E0,2.315929508E0,-3.707631737E0,5.518965469E0
7.357166000E0,3.404293976E0,2.350155600E0,-2.817625873E0,5.005143792E0
7.367246000E0,3.003826655E0,1.803988820E0,-1.930440706E0,4.000493914E0
7.377327000E0,2.580440879E0,1.182184798E0,-9.895935944E-1,3.005916085E0
7.387407000E0,2.010373898E0,6.858339572E-1,-1.436941552E-1,2.128994936E0
7.397488000E0,1.040473726E0,2.918666929E-1,4.129332930E-2,1.081423543E0
7.407568000E0,-1.491168630E-1,4.370384395E-2,-2.118867230E-1,2.627581554E-1
7.417649000E0,-1.124611651E0,-1.977189195E-1,-7.175629959E-1,1.348606981E0
7.427729000E0,-1.778963322E0,-4.534755474E-1,-1.330477788E0,2.267271867E0
7.437810000E0,-2.162455007E0,-5.904348797E-1,-1.385434307E0,2.635195101E0
7.447890000E0,-2.523325861E0,-7.109664595E-1,-8.026239038E-1,2.741687772E0
7.457970000E0,-3.017096911E0,-8.340421629E-1,1.057460180E-1,3.132041238E0
7.468051000E0,-3.535078649E0,-9.378191310E-1,6.852907509E-1,3.721009163E0
7.478131000E0,-4.118035817E0,-1.024119941E0,4.588842219E-1,4.268209856E0
7.488212000E0,-4.770962521E0,-1.015329822E0,5.001263881E-1,4.903376840E0
7.498292000E0,-5.475604048E0,-8.693809801E-1,1.182657253E0,5.668927690E0
7.508373000E0,-5.921249004E0,-6.676830304E-1,1.672151064E0,6.188948180E0
7.518453000E0,-5.710225915E0,-9.915743387E-1,1.111572360E0,5.901312801E0
7.528534000E0,-4.700873994E0,-2.584955807E0,-1.032852173E-1,5.365713435E0
7.538614000E0,-3.404473194E0,-5.350851948E0,-2.991591064E0,7.012251520E0
7.548695000E0,-1.157535276E-1,-7.643051700E0,-3.337492754E0,8.340773109E0
7.558775000E0,4.419831082E0,-8.219574884E0,-1.839580822E-1,9.334353681E0
7.568855000E0,7.160802589E0,-6.672421503E0,8.416727793E-1,9.823783156E0
7.578936000E0,6.900351816E0,-3.226725147E0,3.168226093E0,8.250107087E0
7.589016000E0,4.345362405E0,9.936407447E-2,6.511213768E0,7.828662234E0
7.599097000E0,1.606094192E0,1.481437109E0,7.492933209E0,7.805013936E0
7.609177000E0,-7.552497625E-2,1.984702867E0,5.895286782E0,6.220864549E0
7.619258000E0,-5.771523446E-1,2.690431391E0,3.243066360E0,4.253117129E0
7.629338000E0,-8.809619755E-2,3.317213148E0,8.612858024E-1,3.428334471E0
7.639419000E0,1.273527370E0,3.240266129E0,7.496954924E-1,3.561353658E0
7.649499000E0,2.312087302E0,2.160164360E0,2.465494852E0,4.011324298E0
7.659580000E0,2.387351493E0,7.832713741E-1,3.335233974E0,4.175733092E0
7.669660000E0,2.064465028E0,-1.429462963E-1,3.037508371E0,3.675446449E0
7.679741000E0,1.643789145E0,-5.330122983E-1,2.244838767E0,2.832921805E0
7.689821000E0,1.194175683E0,-5.172733480E-1,1.482959139E0,1.973016748E0
7.699901000E0,1.012054796E0,-2.952610016E-2,1.522750611E0,1.828632310E0
7.709982000E0,1.211443681E0,6.077122325E-1,2.410602361E0,2.765486158E0
7.720062000E0,1.174506527E0,8.175050676E-1,3.193627860E0,3.499576978E0
7.730143000E0,6.931233886E-1,5.504264760E-1,3.319150038E0,3.435134104E0
7.740223000E0,6.837704748E-2,6.449186504E-2,3.204112794E0,3.205491136E0
7.750304000E0,-6.034022498E-1,-2.530686629E-1,2.870204036E0,2.943842596E0
7.760384000E0,-1.328649364E0,-4.167655581E-1,2.101187589E0,2.520712587E0
7.770465000E0,-1.704542592E0,-4.014236337E-1,1.364347054E0,2.219921005E0
7.780545000E0,-1.699894641E0,-1.852965099E-1,8.904176541E-1,1.927905647E0
7.790626000E0,-1.397046292E0,2.394434810E-2,9.883444829E-1,1.711472025E0
7.800706000E0,-1.084836844E0,4.603863716E-2,1.628219325E0,1.957061242E0
7.810787000E0,-7.773238787E-1,-2.378413439E-2,1.916857770E0,2.068608665E0
7.820867000E0,-5.131001902E-1,-1.312641442E-2,1.345954345E0,1.440498944E0
7.830947000E0,-2.555698094E-1,5.044392943E-3,5.399517739E-1,5.974021187E-1
7.841028000E0,1.220059553E-1,5.188409865E-2,1.017335124E-1,1.671140939E-1
7.851108000E0,5.295668265E-1,1.512394023E-1,7.091978230E-2,5.552873095E-1
7.861189000E0,7.566943172E-1,1.860472924E-1,1.191102679E-1,7.882811304E-1
7.871269000E0,7.979563639E-1,2.765966892E-1,-4.674381137E-2,8.458280387E-1
7.881350000E0,7.790616712E-1,4.441930926E-1,-9.252275907E-2,9.015570154E-1
7.891430000E0,7.962834755E-1,6.515090472E-1,1.759240079E-1,1.043781907E0
7.901511000E0,8.589489627E-1,8.295766443E-1,4.772017944E-1,1.285967450E0
7.911591000E0,7.835421002E-1,8.239516228E-1,3.657386613E-1,1.194403310E0
7.921672000E0,6.890718529E-1,7.170189124E-1,-6.762297593E-2,9.967492192E-1
7.931752000E0,7.573775643E-1,6.259660703E-1,-4.336398916E-1,1.074010173E0
7.941832000E0,9.769802731E-1,5.707747865E-1,-3.996431565E-1,1.199995401E0
7.951913000E0,1.236101389E0,4.569066936E-1,-1.277382731E-1,1.324019425E0
7.961993000E0,1.377511037E0,3.650948828E-1,1.327469981E-1,1.431241662E0
7.972074000E0,1.378163294E0,3.586372179E-1,6.687581141E-2,1.425632173E0
7.982154000E0,1.378055705E0,4.402631789E-1,-1.935159044E-1,1.459560755E0
7.992235000E0,1.474302337E0,5.741977465E-1,-1.854152083E-1,1.593000073E0
8.002315000E0,1.578919842E0,7.177591699E-1,-1.212771364E-1,1.738641492E0
8.012396500E0,1.731156487E0,7.753828955E-1,-2.210984266E-1,1.909713573E0
8.022476500E0,1.806739058E0,6.892534089E-1,-5.190397918E-1,2.002193445E0
8.032557500E0,1.676328900E0,6.211701840E-1,-1.118748940E0,2.108916824E0
8.042637500E0,1.538075871E0,6.499846780E-1,-1.380015399E0,2.166240977E0
8.052718500E0,1.445131162E0,6.770239574E-1,-1.043685894E0,1.906841829E0
8.062798500E0,1.300714291E0,6.354502541E-1,-7.186368370E-1,1.616197264E0
8.072878500E0,1.002361867E0,5.674184847E-1,-8.276336145E-1,1.418333687E0
8.082959500E0,7.446429133E-1,6.725046444E-1,-1.062343190E0,1.461276366E0
8.093039500E0,7.608619201E-1,9.037175846E-1,-9.034486127E-1,1.487224169E0
8.103120500E0,1.010463476E0,1.005170285E0,-2.500035524E-1,1.447033349E0
8.113200500E0,1.337648229E0,8.999414527E-1,3.317879730E-1,1.645989265E0
8.123281500E0,1.573288389E0,7.422671896E-1,6.160088468E-1,1.845444075E0
8.133361500E0,1.804669729E0,7.442008638E-1,7.769645673E-1,2.101033482E0
8.143442500E0,1.930147468E0,7.889788413E-1,7.545632994E-1,2.217503694E0
8.153522500E0,1.947193564E0,8.192761892E-1,6.410261589E-1,2.207643718E0
8.163603500E0,1.935657007E0,7.726089764E-1,4.865304422E-1,2.140187971E0
8.173683500E0,1.853320025E0,7.380823374E-1,2.539375591E-1,2.010981088E0
8.183764500E0,1.724468149E0,7.818849993E-1,-1.132026798E-1,1.896826138E0
8.193844500E0,1.732547832E0,8.401162505E-1,-4.833203208E-1,1.985224379E0
8.203924500E0,1.861520452E0,8.927599025E-1,-6.898463166E-1,2.176733006E0
8.214005500E0,2.006162441E0,9.343686891E-1,-6.257076234E-1,2.299835346E0
8.224085500E0,2.150878982E0,8.544945538E-1,-5.217026138E-1,2.372470222E0
8.234166500E0,2.217310368E0,6.517511219E-1,-6.446216118E-1,2.399329452E0
8.244246500E0,2.266722264E0,4.653208369E-1,-1.218879000E0,2.615381296E0
8.254327500E0,2.443022248E0,3.479011452E-1,-2.246018443E0,3.336763665E0
8.264407500E0,2.843600667E0,2.046806145E-1,-3.374679583E0,4.417739376E0
8.274488500E0,3.607703991E0,-4.159826159E-2,-3.865367396E0,5.287563107E0
8.284568500E0,4.488007278E0,-3.117209136E-1,-3.166770136E0,5.501619066E0
8.294649500E0,5.201213513E0,-5.652778190E-1,-2.003157849E0,5.602214061E0
8.304729500E0,5.605325696E0,-7.409884036E-1,-1.322651875E0,5.806732985E0
8.314809500E0,5.516718160E0,-6.087729174E-1,-1.276070470E0,5.695010058E0
8.324890500E0,4.876413547E0,-1.342661047E-1,-1.396808457E0,5.074299000E0
8.334970500E0,3.622681341E0,1.497384220E-1,-1.391674455E0,3.883683752E0
8.345051500E0,2.282437241E0,-1.432602918E-1,-9.966016285E-1,2.494645882E0
8.355131500E0,1.382898369E0,-7.317889792E-1,-2.193781757E-1,1.579889171E0
8.365212500E0,1.126134558E0,-1.603775479E0,7.243001577E-1,2.089230851E0
8.375292500E0,1.097763576E0,-2.220286601E0,1.965511428E0,3.161960252E0
8.385373500E0,1.247399671E0,-2.489439200E0,3.917675710E0,4.806401610E0
8.395453500E0,1.604455217E0,-2.728947001E0,6.317183272E0,7.065991280E0
8.405534500E0,2.459754056E0,-2.696066937E0,7.612902287E0,8.442478793E0
8.415614500E0,3.376015380E0,-2.059254867E0,6.733398607E0,7.808755807E0
8.425695500E0,4.000121158E0,-1.114250093E0,5.202492299E0,6.656459169E0
8.435775500E0,3.686670346E0,-8.528514862E-1,4.570330227E0,5.933532867E0
8.445856500E0,2.847800137E0,-1.211312118E0,3.740362404E0,4.854642477E0
8.455936500E0,2.501204967E0,-9.087321568E-1,2.538091543E0,3.677462318E0
8.466016500E0,2.981704007E0,-6.445339036E-1,1.329279694E0,3.327606834E0
8.476097500E0,4.255281955E0,-5.833053696E-1,-1.222980237E-1,4.296815853E0
8.486177500E0,4.583713626E0,-8.997093183E-1,-7.727069172E-1,4.734657690E0
8.496258500E0,3.736520491E0,-1.980669458E0,8.480801582E-2,4.229873435E0
8.506338500E0,1.774587851E0,-3.410704279E0,2.059933144E0,4.361810435E0
8.516419500E0,-9.144869864E-2,-4.072055359E0,3.182536569E0,5.168997652E0
8.526499500E0,-1.520034580E0,-4.190764362E0,1.560054093E0,4.723005382E0
8.536580500E0,-2.141032271E0,-3.620768425E0,2.164516443E-1,4.211987000E0
8.546660500E0,-1.961325114E0,-2.806438980E0,7.685080317E-1,3.509059781E0
8.556741500E0,-1.459811182E0,-2.193042085E0,1.381116430E0,2.974552885E0
8.566821500E0,-1.131264321E0,-2.011730452E0,2.026237979E0,3.071230816E0
8.576902500E0,-1.016929035E0,-1.999214487E0,2.655601282E0,3.476092835E0
8.586982500E0,-1.152644080E0,-2.095915155E0,2.800411670E0,3.682900248E0
8.597062500E0,-1.556712409E0,-2.168777894E0,2.224021218E0,3.474654149E0
8.607143500E0,-2.019816567E0,-2.034329356E0,1.711667132E0,3.338855981E0
8.617223500E0,-2.377307730E0,-1.841192315E0,1.340374786E0,3.292139996E0
8.627304500E0,-2.518816196E0,-1.597101467E0,6.978991020E-1,3.063042814E0
8.637384500E0,-2.607318483E0,-1.419491706E0,2.439902759E-1,2.978690590E0
8.647465500E0,-2.684579498E0,-1.440932862E0,3.228738928E-1,3.063903089E0
8.657545500E0,-2.742171648E0,-1.464276116E0,9.720001996E-1,3.257053005E0
8.667626500E0,-2.631531218E0,-1.356581513E0,2.030411137E0,3.589963696E0
8.677706500E0,-2.481515054E0,-1.200418755E0,2.931107465E0,4.023718817E0
8.687787500E0,-2.493880160E0,-1.003181354E0,3.252365772E0,4.219442404E0
8.697867500E0,-2.805236208E0,-8.376881942E-1,3.028256029E0,4.212054875E0
8.707948500E0,-3.023611001E0,-6.625895208E-1,2.621851737E0,4.056520047E0
8.718028500E0,-3.104404904E0,-4.195397696E-1,2.509788095E0,4.014022883E0
8.728108500E0,-3.150062887E0,-1.356416622E-1,2.687444049E0,4.142903615E0
8.738189500E0,-3.186399239E0,8.428059697E-2,2.815096368E0,4.252647515E0
8.748269500E0,-3.207681350E0,1.918108928E-1,2.921513938E0,4.342954611E0
8.758350500E0,-3.174903613E0,2.396244523E-1,3.161108277E0,4.486651131E0
8.768430500E0,-2.889478213E0,3.822134838E-1,3.516291545E0,4.567217722E0
8.778511500E0,-2.571406054E0,6.522542748E-1,3.885664251E0,4.704885908E0
8.788591500E0,-2.560755351E0,7.960083640E-1,3.566546025E0,4.462213333E0
8.798672500E0,-2.687150518E0,8.136900517E-1,2.866402761E0,4.012372640E0
8.808752500E0,-2.772366085E0,7.762102765E-1,2.878197180E0,4.070937866E0
8.818833500E0,-2.649174022E0,7.725756472E-1,3.411046341E0,4.387508777E0
8.828913500E0,-2.336724545E0,9.656700039E-1,3.651480340E0,4.441408429E0
8.838993500E0,-1.804669436E0,1.311124966E0,3.420129991E0,4.083279271E0
8.849074500E0,-9.773702824E-1,1.676037709E0,3.063037607E0,3.625817763E0
8.859154500E0,4.891195893E-3,2.033603424E0,3.030092640E0,3.649250364E0
8.869235500E0,7.292033404E-1,2.291314776E0,2.943409422E0,3.800726239E0
8.879315500E0,9.130772227E-1,2.177259280E0,2.677051207E0,3.569421683E0
8.889396500E0,9.818200135E-1,1.738731555E0,2.376467485E0,3.103990282E0
8.899476500E0,1.288335151E0,1.337442407E0,1.885524150E0,2.646461973E0
8.909557500E0,1.930319669E0,1.198000347E0,8.479345626E-1,2.424939562E0
8.919637500E0,2.713627880E0,1.212716619E0,2.830227792E-2,2.972416339E0
8.929718500E0,3.378343449E0,1.159266052E0,-1.668511757E-1,3.575603662E0
8.939798500E0,3.698467396E0,1.022468687E0,-3.981260964E-1,3.857798295E0
8.949879500E0,3.838428689E0,7.122271192E-1,-2.927735960E-1,3.914909788E0
8.959959500E0,3.875123475E0,1.706147361E-1,-2.371981502E-1,3.886123299E0
8.970039500E0,3.859966323E0,-4.734934902E-1,-9.714137238E-1,4.008388794E0
8.980120500E0,3.455538974E0,-1.105674566E0,-1.995277557E0,4.140579474E0
8.990200500E0,2.567857963E0,-1.267281666E0,-3.266411076E0,4.343885204E0
9.000281500E0,1.696074947E0,-9.375554216E-1,-4.823080509E0,5.197863598E0
9.010361292E0,2.792460626E-1,-1.055750454E0,-6.247970949E0,6.342690941E0
9.020442292E0,-1.096960461E0,-1.611458720E0,-5.928365650E0,6.240644257E0
9.030522292E0,-2.156383551E0,-2.059501619E0,-3.695774753E0,4.748714349E0
9.040603292E0,-2.951466300E0,-2.311557544E0,-2.098221589E0,4.296159383E0
9.050683292E0,-3.274378200E0,-2.554685356E0,-2.524649671E0,4.860228989E0
9.060764292E0,-3.418107439E0,-2.910413584E0,-3.049348983E0,5.427015286E0
9.070844292E0,-3.176556036E0,-3.073691234E0,-2.390550212E0,5.025218042E0
9.080925292E0,-2.574265927E0,-2.914970904E0,-1.377814215E0,4.125805672E0
9.091005292E0,-1.877005926E0,-2.567214185E0,-5.355894586E-1,3.224995502E0
9.101086292E0,-1.197219159E0,-1.874936011E0,-7.755893022E-2,2.225923213E0
9.111166292E0,-9.480505890E-1,-1.196279511E0,1.163525748E-1,1.530824128E0
9.121246292E0,-1.048613927E0,-6.014182895E-1,4.584117669E-1,1.292840468E0
9.131327292E0,-1.281538348E0,-1.585203552E-1,5.802411363E-1,1.415679701E0
9.141407292E0,-1.444070477E0,1.159397614E-1,3.452476788E-1,1.489287592E0
9.151488292E0,-1.449492016E0,4.319244647E-1,-5.193499866E-1,1.599159234E0
9.161568292E0,-1.375393760E0,6.706814826E-1,-1.855115705E0,2.404781887E0
9.171649292E0,-1.291220460E0,1.595173055E-1,-2.758036314E0,3.049501657E0
9.181729292E0,-9.299762607E-1,-1.897029716E0,-2.409819126E0,3.204809793E0
9.191810292E0,-1.662033042E-1,-4.003491493E0,-2.925792346E0,4.961434120E0
9.201890292E0,8.585893589E-1,-5.205706514E0,-4.275029464E0,6.790613589E0
9.211971292E0,1.796439480E0,-5.295508052E0,-2.992886514E0,6.342473494E0
9.222051292E0,2.384276442E0,-4.188879805E0,-1.322029439E0,4.997924570E0
9.232131292E0,2.531943780E0,-2.257162651E0,-2.240711510E-1,3.399372063E0
9.242212292E0,2.366938863E0,-6.893703532E-1,2.918959290E-2,2.465457989E0
9.252292292E0,2.161397246E0,-1.531491029E-1,1.396298433E0,2.577739711E0
9.262373292E0,1.321691177E0,-8.198030233E-2,3.271817997E0,3.529643232E0
9.272453292E0,3.101290092E-1,6.422815561E-2,3.720681553E0,3.734136644E0
9.282534292E0,2.177523574E-1,-1.336556554E-2,3.336014577E0,3.343140438E0
9.292614292E0,3.681930301E-1,-5.256652719E-1,2.717044408E0,2.791813103E0
9.302695292E0,2.975367379E-1,-1.107502990E0,1.471717575E0,1.865755505E0
9.312775292E0,4.951129854E-1,-9.512338132E-1,5.254003930E-1,1.194164230E0
9.322856292E0,1.059011739E0,-1.328440619E-1,5.817571731E-1,1.215563579E0
9.332936292E0,1.511442096E0,6.709416837E-1,1.247575673E0,2.071488598E0
9.343017292E0,1.842613773E0,1.220123287E0,2.193186657E0,3.113517956E0
9.353097292E0,2.052039987E0,1.565772670E0,3.063596309E0,4.006012295E0
9.363177292E0,2.095314061E0,1.807853830E0,3.434332877E0,4.410591661E0
9.373258292E0,1.918039346E0,1.851881025E0,3.519916234E0,4.415670794E0
9.383338292E0,1.470236768E0,1.554543092E0,3.680603860E0,4.257351894E0
9.393419292E0,1.024545911E0,1.284985866E0,3.917095374E0,4.247884081E0
9.403499292E0,5.383145535E-1,1.027142951E0,3.735849230E0,3.911697160E0
9.413580292E0,2.041692755E-1,7.703203762E-1,2.826203738E0,2.936410419E0
9.423660292E0,1.215986967E-2,6.142751473E-1,1.242488449E0,1.386095006E0
9.433741292E0,-3.045838022E-1,3.608597445E-1,-3.411065345E-1,5.825330168E-1
9.443821292E0,-6.695529699E-1,5.389437139E-2,-5.274315695E-1,8.540432327E-1
9.453902292E0,-1.094895224E0,-3.108906090E-1,-7.084299374E-1,1.340642196E0
9.463982292E0,-1.240071064E0,-5.224674296E-1,-1.358675401E0,1.912262352E0
9.474063292E0,-7.647093880E-1,-2.776959658E-1,-1.392611471E0,1.612842896E0
9.484143292E0,-1.032846326E-1,1.053095233E-1,-8.305794418E-1,8.435757347E-1
9.494224292E0,5.007801068E-1,4.294107467E-1,2.042594688E-1,6.905767411E-1
9.504304292E0,1.024632449E0,7.163184160E-1,1.104675715E0,1.668320163E0
9.514384292E0,1.394322074E0,1.129023668E0,1.467943490E0,2.318121347E0
9.524465292E0,1.685833549E0,1.697239128E0,1.435651510E0,2.789937395E0
9.534545292E0,1.947171929E0,2.141792409E0,1.334283303E0,3.187328846E0
9.544626292E0,2.148535418E0,2.327159085E0,1.301056938E0,3.424123684E0
9.554706292E0,2.293011346E0,2.121768619E0,1.018057840E0,3.285763971E0
9.564787292E0,2.396698559E0,1.667149941E0,5.515503109E-1,2.971154768E0
9.574867292E0,2.244486765E0,1.065300711E0,3.335509817E-1,2.506759402E0
9.584948292E0,1.791938001E0,1.579315406E-1,3.301642743E-1,1.828932098E0
9.595028292E0,1.133490063E0,-7.082580292E-1,2.006320024E-1,1.351548134E0
9.605109292E0,5.260549888E-1,-1.237173768E0,-5.548298679E-2,1.345515197E0
9.615189292E0,-1.692605209E-1,-1.483530997E0,-1.145890546E-1,1.497545991E0
9.625269292E0,-7.789710394E-1,-1.329190232E0,-8.610609770E-3,1.540654632E0
9.635350292E0,-1.203079239E0,-7.695415270E-1,-1.752737244E-1,1.438858817E0
9.645430292E0,-1.550662880E0,-2.891980237E-1,-3.112660003E-1,1.607817585E0
9.655511292E0,-1.375466558E0,1.292234659E-2,1.014445869E-1,1.379262935E0
9.665591292E0,-1.083108114E0,6.149984479E-2,7.782807755E-1,1.335150323E0
9.675672292E0,-7.740699032E-1,8.483140469E-3,1.275896369E0,1.492369835E0
9.685752292E0,-5.032844692E-1,6.162965298E-2,1.478992388E0,1.563493510E0
9.695833292E0,-4.103143251E-1,2.932162303E-1,1.593794281E0,1.671679938E0
9.705913292E0,-4.738112864E-1,5.090960169E-1,1.839164500E0,1.966265991E0
9.715994292E0,-6.033072326E-1,5.135901868E-1,2.043915281E0,2.192109526E0
9.726074292E0,-5.754975826E-1,2.086666614E-1,1.979273143E0,2.071777357E0
9.736155292E0,-2.991017452E-1,-2.057465619E-1,1.644323580E0,1.683922070E0
9.746235292E0,3.915313143E-1,-4.730754143E-1,1.292408906E0,1.430880113E0
9.756316292E0,1.148807137E0,-5.226440156E-1,7.934988121E-1,1.490823588E0
9.766396292E0,1.677653002E0,-4.006249040E-1,3.352478071E-1,1.757103014E0
9.776476292E0,1.737599826E0,-7.490283251E-3,1.952444144E-1,1.748550726E0
9.786557292E0,1.270081898E0,6.673017919E-1,2.006693514E-1,1.448677983E0
9.796637292E0,3.074872372E-1,1.325234590E0,2.732290585E-2,1.360713659E0
9.806718292E0,-6.865736300E-1,1.358991736E0,-4.083331788E-1,1.576381258E0
9.816798292E0,-1.328652288E0,5.485834336E-1,-5.408112415E-1,1.535818181E0
9.826879292E0,-1.588240888E0,-5.965376186E-1,-3.225545617E-1,1.726964880E0
9.836959292E0,-1.581625933E0,-1.483243314E0,-4.856158646E-1,2.222020272E0
9.847040292E0,-1.495691451E0,-2.125302676E0,-9.313211203E-1,2.760681693E0
9.857120292E0,-1.267224364E0,-2.184689922E0,-7.634113061E-1,2.638470099E0
9.867201292E0,-9.178181452E-1,-1.466589274E0,5.284209915E-1,1.809006078E0
9.877281292E0,-6.257687268E-1,-5.398862851E-1,2.024584386E0,2.186779741E0
9.887361292E0,-1.933358467E-1,1.368610990E-1,2.713157179E0,2.723477848E0
9.897442292E0,3.502072871E-1,6.630251384E-1,2.939812800E0,3.033932559E0
9.907522292E0,6.646614817E-1,9.380144280E-1,2.964486880E0,3.179595637E0
9.917603292E0,8.715921047E-1,1.029923887E0,2.536731480E0,2.873225124E0
9.927683292E0,9.781941551E-1,1.037933403E0,1.551928217E0,2.107759651E0
9.937764292E0,1.139776112E0,1.271484060E0,5.036711164E-1,1.780293767E0
9.947844292E0,1.282550208E0,1.677029396E0,-1.549348426E-1,2.116924051E0
9.957925292E0,1.213328238E0,2.010197312E0,-4.355462301E-1,2.388045051E0
9.968005292E0,9.939412916E-1,1.992325298E0,-6.266648126E-1,2.313004144E0
9.978086292E0,7.296357420E-1,1.538850335E0,6.956770138E-1,1.839672573E0
9.988166292E0,2.816340655E-1,7.234537733E-1,2.503160276E0,2.620785088E0
9.998247292E0,-4.473187217E-1,-2.544450974E-1,1.724533200E0,1.799680834E0
1.000832704E1,-1.038404396E0,-1.124844663E0,2.563287780E-2,1.531083358E0
1.001840804E1,-1.268665995E0,-1.668288978E0,-5.143512020E-1,2.158068275E0
1.002848804E1,-1.263294450E0,-2.001924672E0,-5.028605461E-1,2.420017353E0
1.003856804E1,-1.168835020E0,-2.199528401E0,-7.173101038E-2,2.491835835E0
1.004864904E1,-1.146972281E0,-2.144452307E0,8.743107677E-1,2.584306566E0
1.005872904E1,-1.072074126E0,-1.735216209E0,1.692433155E0,2.650405291E0
1.006881004E1,-9.143621483E-1,-1.256263758E0,1.703789910E0,2.305896100E0
1.007889004E1,-3.750196543E-1,-7.146274012E-1,1.187877209E0,1.436100389E0
1.008897104E1,1.994599280E-1,-2.407298684E-1,9.191508718E-1,9.708622238E-1
1.009905104E1,4.134683132E-1,-1.149188375E-1,8.668963520E-1,9.673012304E-1
1.010913204E1,3.983933142E-1,-1.773899049E-1,8.820105274E-1,9.839344397E-1
1.011921204E1,1.937983614E-1,-3.451751733E-1,8.004393840E-1,8.929764345E-1
1.012929304E1,-1.210467196E-1,-5.388027960E-1,5.478338206E-1,7.778705910E-1
1.013937304E1,-4.058473447E-1,-6.772753876E-1,1.733627813E-1,8.083740915E-1
1.014945304E1,-5.667457625E-1,-6.414278626E-1,-1.271455117E-1,8.653302511E-1
1.015953404E1,-6.485363227E-1,-5.176773906E-1,-3.904959185E-1,9.171021235E-1
1.016961404E1,-7.706422654E-1,-3.260617948E-1,-4.886119779E-1,9.689930135E-1
1.017969504E1,-9.309027520E-1,-1.147568697E-1,-4.075882801E-1,1.022681416E0
1.018977504E1,-1.087149417E0,1.764572740E-2,-3.040187419E-1,1.128996290E0
1.019985604E1,-1.149854958E0,7.936074972E-2,-3.042655675E-1,1.192074699E0
1.020993604E1,-1.115605769E0,6.741781175E-2,-3.915776534E-1,1.184252698E0
1.022001704E1,-1.029437399E0,3.768472016E-2,-4.426307166E-1,1.121197328E0
1.023009704E1,-9.418750522E-1,-6.572621226E-2,-2.855756005E-1,9.864086235E-1
1.024017804E1,-8.508739579E-1,-1.853374404E-1,-1.052264929E-1,8.771596627E-1
1.025025804E1,-6.278971133E-1,-1.958033717E-1,7.426314712E-2,6.618978473E-1
1.026033904E1,-3.241099942E-1,-1.809643078E-1,2.770703137E-1,4.632098096E-1
1.027041904E1,-8.184961706E-2,-2.485487652E-1,4.899099867E-1,5.554166396E-1
1.028050004E1,1.238712171E-1,-3.230855620E-1,6.614415662E-1,7.464806121E-1
1.029058004E1,2.916863063E-1,-2.767387766E-1,6.792617599E-1,7.893426317E-1
1.030066004E1,4.273235831E-1,-7.448124826E-2,5.987187032E-1,7.393355033E-1
1.031074104E1,5.111533597E-1,1.879084611E-1,4.809733947E-1,7.265829294E-1
1.032082104E1,6.020269847E-1,3.710233748E-1,4.114325320E-1,8.181513083E-1
1.033090204E1,6.207409984E-1,4.707154781E-1,3.338456082E-1,8.475525580E-1
1.034098204E1,5.668711853E-1,5.264295030E-1,1.940666024E-1,7.975793431E-1
1.035106304E1,3.592894748E-1,5.308137453E-1,8.343158126E-2,6.463845509E-1
1.036114304E1,1.865010363E-1,5.552755719E-1,7.619740605E-2,5.906942035E-1
1.037122404E1,-3.930001348E-2,5.155373096E-1,1.439151069E-1,5.366887056E-1
1.038130404E1,-2.159227636E-1,4.302200013E-1,2.847183987E-1,5.592642094E-1
1.039138504E1,-2.823088342E-1,2.953972417E-1,3.793321951E-1,5.575398843E-1
1.040146504E1,-2.523222658E-1,1.464587188E-1,2.961685625E-1,4.157312829E-1
1.041154604E1,-2.366183987E-1,-1.783634663E-2,3.138200641E-2,2.393558694E-1
1.042162604E1,-4.309412554E-1,-2.460666221E-1,-3.428141407E-1,6.031423407E-1
1.043170604E1,-6.974137831E-1,-4.682087767E-1,-5.779247618E-1,1.019608981E0
1.044178704E1,-8.648876873E-1,-6.245902205E-1,-6.111672791E-1,1.229499532E0
1.045186704E1,-9.228613687E-1,-6.664387429E-1,-4.507313760E-1,1.224325315E0
1.046194804E1,-9.604002008E-1,-6.476107085E-1,-3.784059962E-1,1.218589050E0
1.047202804E1,-1.022069322E0,-6.370044440E-1,-4.792646190E-1,1.296184762E0
1.048210904E1,-9.049539784E-1,-4.973670870E-1,-5.188607939E-1,1.155652303E0
1.049218904E1,-6.405156970E-1,-2.614214104E-1,-3.315382969E-1,7.671500207E-1
1.050227004E1,-3.901241818E-1,6.156533360E-3,-7.706557140E-3,3.902488580E-1
1.051235004E1,-1.419803363E-1,2.622289109E-1,2.869427526E-1,4.138339774E-1
1.052243104E1,1.228932703E-1,4.583784378E-1,4.406590354E-1,6.476063106E-1
1.053251104E1,3.847111219E-1,5.289379585E-1,4.563494539E-1,7.975166678E-1
1.054259204E1,5.534486094E-1,4.952813852E-1,3.746417049E-1,8.318445894E-1
1.055267204E1,6.378590146E-1,4.118094581E-1,2.736462573E-1,8.070523071E-1
1.056275204E1,5.852130237E-1,3.768817002E-1,1.762456778E-1,7.180366551E-1
1.057283304E1,3.748658726E-1,3.638997120E-1,7.500464715E-2,5.278002651E-1
1.058291304E1,1.327350113E-1,2.752243477E-1,1.114362359E-2,3.057633156E-1
1.059299404E1,-2.218082786E-2,1.018579119E-1,4.216544151E-2,1.124497568E-1
1.060307404E1,-9.718247831E-2,-8.349765480E-2,1.381312604E-1,1.884052482E-1
1.061315504E1,-5.398412615E-2,-2.205277383E-1,1.745980056E-1,2.864109509E-1
1.062323504E1,-3.619514197E-2,-2.591345644E-1,1.596650939E-1,3.065187645E-1
1.063331604E1,-2.866071224E-2,-2.098121309E-1,7.347713515E-2,2.241460597E-1
1.064339604E1,-4.325828612E-2,-1.045265812E-1,-5.479776621E-2,1.256975762E-1
1.065347704E1,-8.786464781E-2,3.237603307E-2,-1.591040535E-1,1.846144732E-1
1.066355704E1,-1.624797973E-1,7.957008004E-2,-2.742567797E-1,3.285542016E-1
1.067363804E1,-2.236510286E-1,8.668672621E-2,-3.411954852E-1,4.170716128E-1
1.068371804E1,-2.743928736E-1,4.537497818E-2,-3.227663040E-1,4.260615270E-1
1.069379804E1,-3.255241433E-1,-1.343631685E-2,-2.223637640E-1,3.944517030E-1
1.070387904E1,-3.410125405E-1,-7.160909593E-2,-7.376160219E-2,3.561715729E-1
1.071395904E1,-3.439554441E-1,-1.248070639E-1,8.175927758E-2,3.749222989E-1
1.072404004E1,-3.342072585E-1,-1.090581733E-1,1.682664943E-1,3.897458017E-1
1.073412004E1,-2.633354965E-1,-7.388015449E-2,2.247143447E-1,3.539779621E-1
1.074420104E1,-1.493487051E-1,1.679086447E-2,2.144103813E-1,2.618373168E-1
1.075428104E1,-7.092380226E-3,1.046984893E-1,1.350894658E-1,1.710591689E-1
1.076436204E1,1.651882276E-1,1.683658969E-1,3.362382889E-2,2.382536204E-1
1.077444204E1,2.765899649E-1,1.985328519E-1,-3.516157351E-2,3.422771366E-1
1.078452304E1,3.735903025E-1,1.723443425E-1,-6.053753927E-2,4.158570429E-1
1.079460304E1,3.914187554E-1,1.992842191E-1,-7.074911669E-2,4.448913121E-1
1.080468404E1,3.074664795E-1,2.383787030E-1,-3.295139909E-2,3.904431287E-1
1.081476404E1,2.038748682E-1,2.474565053E-1,3.983693406E-2,3.230892527E-1
1.082484404E1,5.327924430E-2,2.312509471E-1,1.837429047E-1,3.001285282E-1
1.083492504E1,-6.712808222E-2,1.654422891E-1,2.759299605E-1,3.286558588E-1
1.084500504E1,-1.167095473E-1,5.066027641E-3,2.390691130E-1,2.660842420E-1
1.085508604E1,-1.121832177E-1,-1.248690444E-1,9.559861377E-2,1.931746555E-1
1.086516604E1,-9.045584142E-2,-1.629174614E-1,-5.970241070E-2,1.956750784E-1
1.087524704E1,-5.185398549E-2,-1.051399541E-1,-2.324583972E-1,2.603462160E-1
1.088532704E1,6.017369628E-3,-2.357714295E-2,-3.763162744E-1,3.771021464E-1
1.089540804E1,6.572825879E-2,8.290416241E-2,-4.462549670E-1,4.586249009E-1
1.090548804E1,1.336948317E-1,1.854596472E-1,-4.273953576E-1,4.847023628E-1
1.091556904E1,1.934054285E-1,2.608758652E-1,-2.843806489E-1,4.316644881E-1
1.092564904E1,2.007039231E-1,2.951773864E-1,-7.327862218E-2,3.643919739E-1
1.093573004E1,1.867901811E-1,2.216580051E-1,1.186212945E-1,3.131993846E-1
1.094581004E1,1.195410615E-1,9.088970482E-2,2.455209307E-1,2.878046755E-1
1.095589104E1,1.625467479E-2,-7.509929895E-2,2.828929710E-1,2.931425459E-1
1.096597104E1,-1.282399642E-1,-2.275566763E-1,2.790289848E-1,3.822102872E-1
1.097605104E1,-3.035000208E-1,-3.311003405E-1,2.021009691E-1,4.925286792E-1
1.098613204E1,-3.857627437E-1,-3.941947210E-1,5.031280562E-2,5.538354908E-1
1.099621204E1,-3.936655480E-1,-4.165410250E-1,-1.510674942E-1,5.927059785E-1
1.100629304E1,-3.330705598E-1,-3.852888268E-1,-3.362922294E-1,6.103080709E-1
1.101637354E1,-2.428535771E-1,-2.857861733E-1,-4.706458962E-1,6.017966072E-1
1.102645454E1,-1.128898537E-1,-1.111158085E-1,-5.312066782E-1,5.543206445E-1
1.103653454E1,-1.028232872E-3,6.792885840E-2,-5.196618625E-1,5.240838085E-1
1.104661554E1,5.352775097E-2,2.117808884E-1,-4.100570476E-1,4.646107480E-1
1.105669554E1,1.103656107E-1,2.319988060E-1,-2.442055996E-1,3.544578803E-1
1.106677654E1,1.250824678E-1,1.907326663E-1,-7.497870013E-2,2.400966039E-1
1.107685654E1,9.699273616E-2,1.550167036E-1,3.017046332E-2,1.853322048E-1
1.108693754E1,6.869338185E-2,1.230061215E-1,5.406810679E-2,1.509060861E-1
1.109701754E1,9.343558252E-3,1.282382101E-1,4.142386839E-2,1.350861854E-1
1.110709754E1,-4.982149333E-2,1.807906455E-1,-1.246136673E-2,1.879434073E-1
1.111717854E1,-1.359612125E-1,2.482634211E-1,-2.656368144E-2,2.842987983E-1
1.112725854E1,-1.771127468E-1,2.552619535E-1,-4.181460857E-2,3.134901138E-1
1.113733954E1,-1.707775810E-1,2.097583365E-1,-8.957693182E-2,2.849343234E-1
1.114741954E1,-1.517454788E-1,1.289615107E-1,-1.434916954E-1,2.454539228E-1
1.115750054E1,-7.121002346E-2,5.496324241E-2,-2.373349019E-1,2.538103251E-1
1.116758054E1,2.023779809E-2,4.313257098E-2,-3.093329108E-1,3.129805694E-1
1.117766154E1,7.908973128E-2,5.415983498E-2,-3.077645414E-1,3.223468415E-1
1.118774154E1,6.579988718E-2,8.537519574E-3,-2.595988333E-1,2.679441521E-1
1.119782254E1,-3.647229999E-2,-6.441702068E-2,-1.564456169E-1,1.730751637E-1
1.120790254E1,-1.221913120E-1,-1.626221770E-1,-5.390650436E-2,2.104343137E-1
1.121798354E1,-2.312269735E-1,-2.494422197E-1,-7.787175626E-3,3.402175398E-1
1.122806354E1,-3.018122220E-1,-2.625908536E-1,3.850976229E-3,4.000742478E-1
1.123814454E1,-3.998659354E-1,-2.168094939E-1,3.113540009E-2,4.559260204E-1
1.124822454E1,-4.767150137E-1,-1.038915735E-1,4.211647108E-2,4.897187565E-1
1.125830454E1,-5.237391990E-1,-2.783274651E-2,2.380883887E-2,5.250183532E-1
1.126838554E1,-5.841511694E-1,-1.710018218E-2,1.016845420E-2,5.844898651E-1
1.127846554E1,-6.371801528E-1,-8.011094749E-2,1.927461550E-2,6.424856589E-1
1.128854654E1,-6.168555236E-1,-1.636068481E-1,-3.900239021E-3,6.381952284E-1
1.129862654E1,-5.360882261E-1,-1.857315427E-1,-1.197672026E-1,5.798542705E-1
1.130870754E1,-4.524019986E-1,-1.726080519E-1,-2.296447170E-1,5.359083914E-1
1.131878754E1,-3.828186706E-1,-1.895035815E-1,-2.765477188E-1,5.088618503E-1
1.132886854E1,-3.703179082E-1,-2.774550605E-1,-2.590490489E-1,5.303046987E-1
1.133894854E1,-3.739654014E-1,-3.657924557E-1,-2.110866778E-1,5.641026747E-1
1.134902954E1,-3.753818893E-1,-3.678974533E-1,-2.418124804E-1,5.785614701E-1
1.135910954E1,-4.013844573E-1,-3.170950896E-1,-3.178302307E-1,6.022249032E-1
1.136919054E1,-4.401494506E-1,-2.694280028E-1,-2.885695942E-1,5.912659285E-1
1.137927054E1,-5.019185597E-1,-2.289687788E-1,-1.185661845E-1,5.642755376E-1
1.138935054E1,-5.807694322E-1,-2.387295359E-1,5.754361868E-2,6.305522918E-1
1.139943154E1,-6.347290000E-1,-2.756780916E-1,1.330336578E-1,7.046823879E-1
1.140951154E1,-6.223846507E-1,-2.640187436E-1,7.335916758E-2,6.800368504E-1
1.141959254E1,-6.171774128E-1,-2.507654446E-1,-1.892012805E-3,6.661792903E-1
1.142967254E1,-5.919191954E-1,-2.222895044E-1,-1.103309660E-1,6.418363340E-1
1.143975354E1,-5.733422989E-1,-2.275087291E-1,-2.609052475E-1,6.697411154E-1
1.144983354E1,-6.051827270E-1,-3.049895990E-1,-4.010207605E-1,7.874531344E-1
1.145991454E1,-6.950824982E-1,-3.803730726E-1,-4.540902360E-1,9.132476642E-1
1.146999454E1,-7.561630976E-1,-4.120246357E-1,-4.643839668E-1,9.783656776E-1
1.148007554E1,-7.154144365E-1,-3.189317000E-1,-3.847258861E-1,8.726678937E-1
1.149015554E1,-6.771613669E-1,-2.480996990E-1,-2.410502958E-1,7.603987261E-1
1.150023654E1,-4.713811836E-1,-4.415758789E-2,-7.729639024E-2,4.797132943E-1
1.151031654E1,-2.519994995E-1,1.410535526E-1,1.848410118E-1,3.428790634E-1
1.152039754E1,-4.278203040E-2,3.431456047E-1,2.857711168E-1,4.486026520E-1
1.153047754E1,1.145033929E-1,4.561787152E-1,-3.637187406E-2,4.717339933E-1
1.154055754E1,1.946707660E-1,5.632330477E-1,-3.881405139E-1,7.111829805E-1
1.155063854E1,1.715482441E-1,5.648895639E-1,-5.410381866E-1,8.007817048E-1
1.156071854E1,1.063555902E-1,5.157747066E-1,-3.463504636E-1,6.303123854E-1
1.157079954E1,2.537253052E-2,4.419571173E-1,-1.408176175E-1,4.645422050E-1
1.158087954E1,-9.309936762E-2,2.670084250E-1,-2.532698071E-1,3.796137332E-1
1.159096054E1,-1.542726454E-1,1.101685596E-1,-4.859502523E-1,5.216174923E-1
1.160104054E1,-1.515563214E-1,3.972598314E-2,-6.588803396E-1,6.772523711E-1
1.161112154E1,-7.003414840E-2,7.008238792E-2,-7.150852382E-1,7.219163532E-1
1.162120154E1,8.275447369E-2,1.466639560E-1,-6.899620914E-1,7.102156761E-1
1.163128254E1,2.330755708E-1,2.401995260E-1,-7.475555576E-1,8.190600379E-1
1.164136254E1,2.888229248E-1,2.756991416E-1,-8.892565432E-1,9.747850523E-1
1.165144354E1,2.891465682E-1,3.038289267E-1,-8.480450749E-1,9.460962973E-1
1.166152354E1,2.048788351E-1,2.863878518E-1,-6.591681688E-1,7.473259084E-1
1.167160454E1,2.758745581E-2,1.492601198E-1,-4.633086638E-1,4.875393000E-1
1.168168454E1,-9.018686950E-2,6.411471963E-2,-3.799976814E-1,3.957810083E-1
1.169176454E1,-1.542059872E-1,-2.127158582E-2,-2.311638236E-1,2.786910120E-1
1.170184554E1,-2.500588086E-1,-1.403811228E-1,-1.148378536E-1,3.089077533E-1
1.171192554E1,-3.496284127E-1,-1.042488384E-1,3.215632394E-2,3.662538416E-1
1.172200654E1,-5.370217341E-1,-2.008401632E-2,-1.026771069E-3,5.373981437E-1
1.173208654E1,-6.551381215E-1,4.759224236E-2,5.424608141E-2,6.591006123E-1
1.174216754E1,-6.894413969E-1,1.395215821E-1,2.401167879E-1,7.432710027E-1
1.175224754E1,-6.870952016E-1,1.735278189E-1,1.678019330E-1,7.282645184E-1
1.176232854E1,-7.055077913E-1,1.778611904E-1,-9.040730953E-2,7.331775558E-1
1.177240854E1,-7.121183610E-1,1.814496267E-1,-3.629501241E-1,8.196153486E-1
1.178248954E1,-8.582800412E-1,1.865109766E-1,-6.979181054E-1,1.121838070E0
1.179256954E1,-8.918778500E-1,2.894009221E-1,-9.658325565E-1,1.346117201E0
1.180265054E1,-7.131006932E-1,3.872552454E-1,-8.139490834E-1,1.149344306E0
1.181273054E1,-4.516351363E-1,5.146847856E-1,-1.409790006E-1,6.991064322E-1
1.182281154E1,-2.385319000E-1,5.661905694E-1,4.221841729E-1,7.454587205E-1
1.183289154E1,-2.109839129E-1,6.068836820E-1,5.968580461E-1,8.769615397E-1
1.184297154E1,-2.023434824E-1,7.116008824E-1,6.975427142E-1,1.016801130E0
1.185305254E1,9.494708776E-3,8.777384055E-1,8.101694432E-1,1.194524753E0
1.186313254E1,1.496928138E-1,9.754868942E-1,7.170478562E-1,1.219893539E0
1.187321354E1,2.179040927E-1,9.632597816E-1,5.113086033E-1,1.112109746E0
1.188329354E1,1.350686350E-1,8.002703995E-1,1.821691266E-1,8.317823267E-1
1.189337454E1,8.899403751E-2,6.041349059E-1,-1.322227952E-1,6.248054024E-1
1.190345454E1,4.920431972E-2,4.786448872E-1,-3.709967700E-1,6.075858758E-1
1.191353554E1,2.368999422E-3,4.730491018E-1,-5.724470901E-1,7.426147965E-1
1.192361554E1,1.200249186E-1,5.903015631E-1,-7.177810970E-1,9.370547581E-1
1.193369654E1,2.639327896E-1,7.754735273E-1,-7.677239200E-1,1.122684161E0
1.194377654E1,3.549055248E-1,8.748095351E-1,-6.021705338E-1,1.119758459E0
1.195385754E1,3.767706031E-1,1.038112328E0,-3.187317252E-1,1.149444738E0
1.196393754E1,3.405213743E-1,1.203513687E0,-1.062406924E-1,1.255263751E0
1.197401854E1,1.514423007E-1,1.118058969E0,-6.747102141E-2,1.130284463E0
1.198409854E1,-3.829049170E-2,9.798126644E-1,-1.781175908E-1,9.966066903E-1
1.199417854E1,-2.873076189E-1,7.910820848E-1,-3.920274505E-1,9.284621988E-1
1.200425954E1,-5.587260139E-1,7.030347115E-1,-7.757805061E-1,1.186704663E0
1.201433962E1,-9.007369664E-1,7.292156196E-1,-1.311626658E0,1.750270548E0
1.202442062E1,-1.355747116E0,5.037826520E-1,-1.809491927E0,2.316486183E0
1.203450062E1,-1.710317010E0,3.814881366E-1,-2.072083366E0,2.713714603E0
1.204458162E1,-1.818911207E0,4.111522311E-1,-2.183477794E0,2.871421149E0
1.205466162E1,-1.915460432E0,1.145060241E-1,-2.132307640E0,2.868594807E0
1.206474262E1,-1.889616323E0,-5.587681139E-1,-2.022327361E0,2.823593386E0
1.207482262E1,-1.429079386E0,-1.712950596E0,-1.871034749E0,2.911569795E0
1.208490363E1,-6.957125357E-1,-3.062670402E0,-2.145451889E0,3.803541735E0
1.209498363E1,-2.844597325E-1,-4.048043184E0,-3.096038707E0,5.104216554E0
1.210506463E1,-2.156342036E-1,-4.126146197E0,-3.839581175E0,5.640386879E0
1.211514463E1,-1.411702046E-1,-2.882859750E0,-3.539795890E0,4.567380465E0
1.212522563E1,-4.412504813E-1,-1.249844685E0,-2.372966904E0,2.718048132E0
1.213530563E1,-7.431957275E-1,1.209221739E-1,-1.100222330E0,1.333210875E0
1.214538563E1,-8.173302358E-1,8.142692184E-1,7.046859652E-2,1.155867163E0
1.215546663E1,-8.584390855E-1,7.966199827E-1,7.701356041E-1,1.401652564E0
1.216554663E1,-7.808140817E-1,5.385291463E-1,1.174919633E0,1.510006760E0
1.217562762E1,-4.567833173E-1,3.858957678E-1,1.837149696E0,1.932015928E0
1.218570762E1,-1.922973812E-1,5.741386896E-1,2.240578340E0,2.320949119E0
1.219578862E1,-1.187312222E-1,6.539759874E-1,2.167867190E0,2.267472127E0
1.220586862E1,-1.863583642E-1,4.458607185E-1,2.110695162E0,2.165307204E0
1.221594962E1,5.459048241E-2,3.123050505E-1,2.199161050E0,2.221896462E0
1.222602962E1,5.304541415E-1,2.294447422E-1,2.599399599E0,2.662875281E0
1.223611062E1,9.950832528E-1,5.975035787E-2,3.074091768E0,3.231687018E0
1.224619062E1,1.394401889E0,1.905093026E-1,3.250782931E0,3.542349515E0
1.225627162E1,1.480616160E0,4.457437742E-1,3.065322114E0,3.433236285E0
1.226635162E1,1.494300984E0,6.711504292E-1,2.618759730E0,3.088896381E0
1.227643262E1,1.665893082E0,8.383983386E-1,2.170322728E0,2.861540193E0
1.228651262E1,1.893218793E0,7.921842849E-1,1.799176562E0,2.729261739E0
1.229659262E1,1.636502637E0,5.068863541E-1,1.262229087E0,2.127979541E0
1.230667362E1,8.276257208E-1,8.038869023E-2,6.858013590E-1,1.077845155E0
1.231675362E1,1.067517391E-1,-1.065432858E-1,6.157773701E-1,6.339788444E-1
1.232683462E1,-2.393317991E-1,-6.690442622E-2,1.185629466E0,1.211393059E0
1.233691462E1,-3.633442265E-1,-1.147457600E-2,1.516412230E0,1.559377037E0
1.234699562E1,-3.056567663E-1,4.672393084E-2,1.713486786E0,1.741162299E0
1.235707562E1,-1.077042505E-1,1.647207427E-1,1.845098255E0,1.855564792E0
1.236715662E1,1.565264547E-1,3.193702412E-1,1.591562984E0,1.630819001E0
1.237723662E1,4.739849487E-1,4.331155425E-1,9.923871017E-1,1.181982641E0
1.238731762E1,7.426639232E-1,5.100555450E-1,4.727894855E-1,1.017465606E0
1.239739762E1,9.328419811E-1,5.306061691E-1,3.848755018E-1,1.140116757E0
1.240747862E1,1.064382406E0,5.037920076E-1,4.610634792E-1,1.264632684E0
1.241755862E1,1.018668289E0,5.363399488E-1,5.847145486E-1,1.291215214E0
1.242763962E1,8.382135665E-1,6.032829666E-1,6.402654362E-1,1.215109933E0
1.243771962E1,4.999652973E-1,6.625620389E-1,4.229244304E-1,9.315679405E-1
1.244779962E1,6.673427224E-2,5.777715647E-1,-8.874202251E-2,5.883439391E-1
1.245788062E1,-1.276543656E-1,4.567552507E-1,-4.460916835E-1,6.510904593E-1
1.246796062E1,-5.397477061E-2,2.508864820E-1,-3.936649632E-1,4.699248940E-1
1.247804162E1,2.636722961E-1,1.610340732E-1,-3.514398801E-1,4.679370063E-1
1.248812162E1,7.580511636E-1,2.232344145E-1,-4.045992565E-1,8.877926158E-1
1.249820262E1,1.256431865E0,4.704938686E-1,-2.740554893E-1,1.369339959E0
1.250828262E1,1.603553577E0,7.494031316E-1,-1.985048036E-1,1.781121356E0
1.251836363E1,1.808399083E0,9.415929240E-1,-1.577672338E-1,2.044943759E0
1.252844363E1,1.908832613E0,1.011206950E0,-1.067011607E-1,2.162768267E0
1.253852463E1,1.882199423E0,1.087354070E0,-3.062110823E-1,2.195171694E0
1.254860463E1,1.647189885E0,1.139289039E0,-6.513926876E-1,2.106068961E0
1.255868563E1,1.328502599E0,9.725591934E-1,-6.880570686E-1,1.784436345E0
1.256876563E1,1.096688565E0,5.869984710E-1,-5.681715330E-1,1.367520349E0
1.257884663E1,8.592527255E-1,1.895708245E-1,-4.755827004E-1,1.000215601E0
1.258892663E1,6.885236764E-1,1.666456461E-4,-5.220780416E-1,8.640777524E-1
1.259900663E1,5.759770542E-1,4.867865503E-2,-5.584471383E-1,8.037302935E-1
1.260908762E1,5.309456000E-1,1.857379746E-1,-6.169139957E-1,8.348560975E-1
1.261916762E1,5.510266927E-1,3.465182787E-1,-1.071614608E0,1.253819445E0
1.262924862E1,6.664975074E-1,5.122628689E-1,-1.237653240E0,1.496134258E0
1.263932862E1,8.344959068E-1,6.029461670E-1,-9.618067485E-1,1.408900181E0
1.264940962E1,1.015354965E0,5.912336093E-1,-5.646224193E-1,1.303572538E0
1.265948962E1,1.155384670E0,5.638288790E-1,-2.458918635E-1,1.308923049E0
1.266957062E1,1.258809636E0,5.379034942E-1,-8.360414721E-2,1.371470569E0
1.267965062E1,1.371574651E0,4.690911216E-1,1.090288641E-1,1.453668049E0
1.268973162E1,1.484500173E0,4.115808320E-1,2.945745385E-1,1.568411204E0
1.269981162E1,1.528363938E0,4.842985600E-1,1.748024388E-1,1.612760775E0
1.270989262E1,1.296927050E0,6.618176883E-1,-3.445506907E-1,1.496241158E0
1.271997262E1,7.110176226E-1,7.109939414E-1,-1.035024998E0,1.443029865E0
1.273005362E1,1.592611974E-1,4.615938216E-1,-1.437395296E0,1.518070559E0
1.274013362E1,-2.450711337E-1,7.055425823E-2,-1.563724390E0,1.584383708E0
1.275021362E1,-4.935570413E-1,-1.694371068E-1,-1.202069424E0,1.310449689E0
1.276029462E1,-4.882346132E-1,-1.858221745E-1,-2.396090303E-1,5.747307243E-1
1.277037462E1,-3.017712915E-1,-1.337386858E-1,6.080010849E-1,6.918217023E-1
1.278045562E1,2.413350552E-2,-3.957921803E-2,1.024400534E0,1.025448875E0
1.279053562E1,5.977854145E-1,8.876014888E-2,1.152786094E0,1.301591927E0
1.280061662E1,1.283854430E0,8.557984829E-2,1.041076939E0,1.655127578E0
1.281069662E1,1.865427854E0,-8.822278976E-3,8.635776186E-1,2.055642288E0
1.282077762E1,2.255228392E0,3.840802073E-2,6.421190035E-1,2.345175280E0
1.283085762E1,2.438804651E0,1.338842815E-1,1.743960574E-1,2.448694982E0
1.284093862E1,2.448122774E0,1.857660413E-1,-4.104728577E-1,2.489237254E0
1.285101862E1,2.459885033E0,2.273567015E-1,-8.330171460E-1,2.607037210E0
1.286109962E1,2.531100319E0,2.113242209E-1,-9.414695477E-1,2.708780475E0
1.287117962E1,2.772728028E0,6.214654684E-2,-8.731606934E-1,2.907626610E0
1.288126062E1,3.145740333E0,-3.244485480E-1,-8.053745071E-1,3.263368995E0
1.289134062E1,3.448454196E0,-8.060503721E-1,-1.007595710E0,3.681956362E0
1.290142162E1,3.222013753E0,-1.250315970E0,-1.916054801E0,3.951699464E0
1.291150162E1,2.212313923E0,-1.486194988E0,-3.429641072E0,4.343448666E0
1.292158162E1,1.182418102E0,-1.151251858E0,-4.517540687E0,4.809539195E0
1.293166263E1,1.769501942E-1,-7.199401814E-1,-4.026652899E0,4.094332523E0
1.294174263E1,-5.832091829E-1,-1.136722112E-1,-2.691647612E0,2.756450832E0
1.295182363E1,-8.407395637E-1,5.648644209E-1,-1.878322134E0,2.134012387E0
1.296190363E1,-6.676856616E-1,1.057972396E0,-1.351189796E0,1.841418909E0
1.297198463E1,-2.477076432E-1,1.312971225E0,-4.387679728E-1,1.406332055E0
1.298206463E1,1.387997434E-1,1.348187250E0,9.557824353E-1,1.658431275E0
1.299214563E1,6.607891631E-1,1.041562770E0,2.517578341E0,2.803514941E0
1.300222563E1,1.273844874E0,3.420492518E-1,3.697283335E0,3.925504109E0
1.301230604E1,1.704857173E0,-5.510240614E-1,4.310222393E0,4.667781333E0
1.302238604E1,1.782897621E0,-1.283109494E0,4.562488818E0,5.063733614E0
1.303246704E1,1.771864802E0,-1.722037169E0,4.495511302E0,5.129769854E0
1.304254704E1,1.678278946E0,-1.878474162E0,4.352011274E0,5.028447825E0
1.305262804E1,1.622112347E0,-1.723806537E0,4.118883955E0,4.750574963E0
1.306270804E1,1.496931646E0,-1.509526548E0,3.598406626E0,4.179474249E0
1.307278804E1,1.410427353E0,-1.267442465E0,3.034399407E0,3.578169291E0
1.308286904E1,1.334578733E0,-8.350244951E-1,2.318649048E0,2.802588038E0
1.309294904E1,9.707176128E-1,-2.907025123E-1,1.577522942E0,1.874934470E0
1.310303004E1,7.075592870E-1,2.613407189E-1,8.382277460E-1,1.127636852E0
1.311311004E1,5.076026380E-1,7.081130183E-1,3.038350663E-1,9.227135158E-1
1.312319104E1,3.810256219E-1,1.179859945E0,2.841711724E-1,1.272007575E0
1.313327104E1,2.783976316E-1,1.145283605E0,-1.203558710E-1,1.184763821E0
1.314335204E1,2.452187759E-1,7.258733511E-1,-8.477541760E-1,1.142677344E0
1.315343204E1,1.811508340E-1,2.019534731E-1,-8.891922238E-1,9.296578085E-1
1.316351304E1,1.274804109E-1,-2.811341286E-3,-2.042315483E-1,2.407689435E-1
1.317359304E1,-8.615229070E-2,-3.459271252E-2,1.026781886E0,1.030970375E0
1.318367404E1,-1.482204849E-1,3.867816210E-2,2.217289903E0,2.222575044E0
1.319375404E1,-1.210864806E-1,1.765613544E-1,2.966706483E0,2.974421491E0
1.320383504E1,-7.865265191E-2,2.068861842E-1,3.309959969E0,3.317351825E0
1.321391504E1,-1.757632095E-1,1.532701403E-1,3.407423991E0,3.415394955E0
1.322399604E1,-3.100351614E-1,1.335562527E-2,3.401814172E0,3.415939086E0
1.323407604E1,-4.477698344E-1,-1.146270615E-1,3.165592507E0,3.199158188E0
1.324415604E1,-5.583313268E-1,-2.642052698E-1,2.540519891E0,2.614532389E0
1.325423704E1,-6.044471473E-1,-3.820243263E-1,1.636404550E0,1.785810402E0
1.326431704E1,-6.417231470E-1,-5.220943773E-1,9.827298403E-1,1.284581284E0
1.327439804E1,-6.069591111E-1,-6.262812352E-1,7.005888212E-1,1.118683264E0
1.328447804E1,-5.923475039E-1,-7.548188227E-1,6.651277971E-1,1.167485335E0
1.329455904E1,-5.056812429E-1,-7.877023941E-1,5.468538272E-1,1.084083802E0
1.330463904E1,-3.158648354E-1,-6.658329713E-1,4.047556695E-1,8.407920623E-1
1.331472004E1,-7.422338605E-2,-3.394466561E-1,4.998980543E-1,6.087948818E-1
1.332480004E1,1.303566563E-1,1.743546152E-1,5.799303567E-1,6.194445967E-1
1.333488104E1,1.426802480E-1,6.923728985E-1,6.532978566E-1,9.625673863E-1
1.334496104E1,-1.090213358E-2,9.788478738E-1,8.685533068E-1,1.308681345E0
1.335504204E1,-2.614892381E-1,9.985646850E-1,1.173539251E0,1.562914721E0
1.336512204E1,-2.305834875E-1,9.446416622E-1,1.101858965E0,1.469561089E0
1.337520304E1,-5.656333297E-2,7.934747654E-1,9.076729336E-1,1.206926580E0
1.338528304E1,9.863141835E-2,6.340533543E-1,5.274068651E-1,8.306080990E-1
1.339536304E1,1.867284930E-1,4.525955415E-1,-1.575277904E-1,5.143201911E-1
1.340544404E1,1.244281644E-1,1.101533568E-1,-7.628803790E-1,7.807705186E-1
1.341552404E1,-1.902476397E-1,-2.536288261E-1,-4.442699835E-1,5.457999305E-1
1.342560504E1,-5.741538924E-1,-6.471066785E-1,3.721928179E-1,9.417681451E-1
1.343568504E1,-9.368020079E-1,-1.070448015E0,5.832306714E-1,1.537405272E0
1.344576604E1,-1.455386009E0,-1.313903856E0,1.415748319E-1,1.965842112E0
1.345584604E1,-1.910848441E0,-1.029542649E0,-3.823039694E-1,2.203963737E0
1.346592704E1,-2.287686287E0,-2.811984479E-1,-5.920146511E-1,2.379718988E0
1.347600704E1,-2.256356905E0,-1.773460507E-2,1.137293677E-1,2.259290899E0
1.348608804E1,-1.988591850E0,2.575973314E-1,1.049725922E0,2.263355572E0
1.349616804E1,-1.663262419E0,7.993313366E-1,1.932784124E0,2.672269996E0
1.350624904E1,-1.396314221E0,1.146205126E0,2.721107054E0,3.266175622E0
1.351632904E1,-1.171160165E0,1.322621469E0,3.025982047E0,3.503927944E0
1.352641004E1,-9.480938584E-1,1.275419821E0,2.916118712E0,3.321042913E0
1.353649004E1,-7.335153696E-1,8.996216100E-1,2.501864533E0,2.758022839E0
1.354657004E1,-6.225320005E-1,2.400071526E-1,1.667276094E0,1.795817112E0
1.355665104E1,-5.402900353E-1,-6.603360039E-1,7.116492681E-1,1.111036292E0
1.356673104E1,-2.124907404E-1,-1.863108848E0,-2.733389130E-1,1.895004237E0
1.357681204E1,2.522140923E-1,-3.257349939E0,-1.132666483E0,3.457871301E0
1.358689204E1,6.113942242E-1,-4.464771320E0,-1.695594306E0,4.814875480E0
1.359697304E1,9.396200734E-1,-4.692788172E0,-1.741897237E0,5.093069084E0
1.360705304E1,1.199736093E0,-3.294044141E0,-1.442404021E0,3.790860437E0
1.361713404E1,1.139664723E0,-1.374567549E0,-1.022143436E0,2.057437443E0
1.362721404E1,5.883538556E-1,2.406567782E-1,-5.887817256E-1,8.664524596E-1
1.363729504E1,-4.504566300E-1,1.286804935E0,-2.215697122E-1,1.381257128E0
1.364737504E1,-1.373099605E0,1.669689971E0,-2.374413212E-1,2.174774817E0
1.365745604E1,-1.401237284E0,1.657327788E0,-1.883889560E-1,2.178460861E0
1.366753604E1,-4.738203496E-1,1.759040689E0,8.637752545E-1,2.016144231E0
1.367761704E1,3.050732142E-1,1.749458272E0,2.006153963E0,2.679240122E0
1.368769704E1,9.376089236E-1,1.621892492E0,2.493646857E0,3.118961429E0
1.369777804E1,1.634665149E0,1.601654109E0,2.528476381E0,3.410369312E0
1.370785804E1,2.401585954E0,1.596194564E0,2.775984342E0,4.002691750E0
1.371793804E1,2.949303415E0,1.280223309E0,3.222088305E0,4.551836487E0
1.372801904E1,3.295044892E0,9.251037759E-1,3.465278682E0,4.870451126E0
1.373809904E1,3.445885221E0,6.736811042E-1,3.140974560E0,4.711018189E0
1.374818004E1,3.130906824E0,5.333368188E-1,1.733796505E0,3.618435577E0
1.375826004E1,2.479346321E0,7.808003408E-1,-3.425567901E-1,2.621860505E0
1.376834104E1,1.807162397E0,9.688380253E-1,-9.210521670E-1,2.247847891E0
1.377842104E1,1.317638180E0,7.642112052E-1,4.124988814E-1,1.578082528E0
1.378850204E1,1.028880159E0,4.119316649E-1,1.437725079E0,1.815305892E0
1.379858204E1,9.389932519E-1,2.601303452E-1,1.483149905E0,1.774573122E0
1.380866304E1,8.475501081E-1,2.300358957E-1,1.268644652E0,1.542957210E0
1.381874304E1,7.320591205E-1,2.865457267E-1,1.122238559E0,1.370196479E0
1.382882404E1,6.140471059E-1,3.646499097E-1,8.762169600E-1,1.130389121E0
1.383890404E1,4.191228631E-1,3.342122287E-1,3.138142169E-1,6.211611312E-1
1.384898504E1,1.943763587E-1,2.820071179E-1,-4.328296137E-1,5.519525866E-1
1.385906504E1,8.482234150E-2,2.527476507E-1,-9.137069678E-1,9.518070328E-1
1.386914504E1,1.656560048E-1,2.866170627E-1,-6.723982251E-1,7.494735657E-1
1.387922604E1,4.016446584E-1,3.431520367E-1,-1.364623189E-2,5.284486461E-1
1.388930604E1,6.651959172E-1,3.437613165E-1,6.152287551E-1,9.691046755E-1
1.389938704E1,8.634902027E-1,3.038283420E-1,9.352446020E-1,1.308667054E0
1.390946704E1,1.019432521E0,2.580814809E-1,8.886820543E-1,1.376809540E0
1.391954804E1,1.097807722E0,2.818808180E-1,6.252638197E-1,1.294447154E0
1.392962804E1,1.083630563E0,3.292403412E-1,4.754721880E-1,1.228302976E0
1.393970904E1,1.123202472E0,3.418065923E-1,6.875834441E-1,1.360583159E0
1.394978904E1,1.296182992E0,3.395495671E-1,1.079595984E0,1.720730004E0
1.395987004E1,1.407651680E0,3.565649647E-1,1.375651038E0,2.000259384E0
1.396995004E1,1.438731093E0,4.194500148E-1,1.469149185E0,2.098638797E0
1.398003104E1,1.359118913E0,4.780028629E-1,1.500471550E0,2.080169663E0
1.399011104E1,1.111243162E0,5.048404133E-1,1.444773313E0,1.891321002E0
1.400019204E1,8.243273064E-1,4.182308704E-1,1.303641407E0,1.598096833E0
1.401027217E1,6.596287832E-1,3.088136780E-1,1.237348015E0,1.435794599E0
1.402035317E1,5.055029029E-1,1.495571584E-1,1.268745224E0,1.373905009E0
1.403043317E1,3.175409397E-1,2.562483788E-2,1.332654122E0,1.370202865E0
1.404051417E1,1.853421181E-1,7.946950793E-3,1.459268560E0,1.471013116E0
1.405059417E1,4.615061134E-2,-2.677790880E-2,1.457376401E0,1.458352807E0
1.406067417E1,3.376182318E-3,-1.241831660E-1,1.193237790E0,1.199687159E0
1.407075517E1,-7.953148842E-2,-1.946087855E-1,9.438926339E-1,9.670217895E-1
1.408083517E1,-1.643728334E-1,-2.211621612E-1,9.128509355E-1,9.535344568E-1
1.409091617E1,-1.797732300E-1,-1.491151088E-1,1.045539461E0,1.071310644E0
1.410099617E1,-2.530452740E-1,-5.809384167E-2,1.212471621E0,1.239957353E0
1.411107717E1,-1.617383704E-1,7.222422302E-2,1.280434978E0,1.292628861E0
1.412115717E1,-2.737754077E-2,3.213851917E-1,1.211546592E0,1.253747628E0
1.413123817E1,8.906449646E-2,3.484273946E-1,9.039514732E-1,9.728629913E-1
1.414131817E1,2.221719754E-1,2.083269382E-1,5.533471602E-1,6.316277223E-1
1.415139917E1,3.479268730E-1,1.154059106E-1,3.586126596E-1,5.128105622E-1
1.416147917E1,4.710946700E-1,7.778609455E-2,1.973131227E-1,5.166365580E-1
1.417156017E1,5.953047332E-1,1.412839329E-1,-2.019049229E-1,6.442937785E-1
1.418164017E1,6.556222710E-1,2.492913616E-1,-6.197440481E-1,9.359858067E-1
1.419172117E1,7.146186304E-1,4.201037335E-1,-6.889306426E-1,1.077864724E0
1.420180117E1,7.704215330E-1,5.650784290E-1,-4.535913223E-1,1.057642689E0
1.421188117E1,7.466464618E-1,6.004365420E-1,-1.293790201E-1,9.668215506E-1
1.422196217E1,6.960578138E-1,5.924100691E-1,1.525789811E-1,9.266749784E-1
1.423204217E1,6.311388096E-1,5.651363164E-1,3.878645253E-1,9.317478968E-1
1.424212317E1,6.905979761E-1,5.384385145E-1,7.383694357E-1,1.145439227E0
1.425220317E1,7.958653995E-1,4.345153660E-1,9.944371355E-1,1.345775075E0
1.426228417E1,7.881602311E-1,2.596988207E-1,9.361953592E-1,1.251040278E0
1.427236417E1,7.223214599E-1,9.882963896E-2,6.808041823E-1,9.975018414E-1
1.428244517E1,6.259151995E-1,5.286116838E-2,2.884630287E-1,6.912127451E-1
1.429252517E1,5.465839782E-1,1.864753085E-1,1.171477870E-1,5.892798062E-1
1.430260617E1,5.517154947E-1,4.152955681E-1,4.627369523E-1,8.312556063E-1
1.431268617E1,7.573647004E-1,6.581245869E-1,9.566062349E-1,1.386298940E0
1.432276717E1,9.647654396E-1,7.311299980E-1,1.156369926E0,1.674071334E0
1.433284717E1,1.282867127E0,6.825320345E-1,9.805932677E-1,1.753043411E0
1.434292817E1,1.609006398E0,7.238279951E-1,6.979271686E-1,1.897348383E0
1.435300817E1,1.751721729E0,8.588191545E-1,7.152863824E-1,2.077915774E0
1.436308817E1,2.011069717E0,1.111718833E0,8.475211644E-1,2.449206462E0
1.437316917E1,2.236430471E0,1.394355696E0,9.095086670E-1,2.788019920E0
1.438324917E1,2.455884368E0,1.592518419E0,7.838426471E-1,3.030163732E0
1.439333017E1,2.656932400E0,1.673238062E0,3.814910603E-1,3.162997126E0
1.440341017E1,2.747197038E0,1.658158092E0,-3.995052079E-2,3.209077105E0
1.441349117E1,2.731778515E0,1.561099575E0,-1.263232470E-1,3.148905095E0
1.442357117E1,2.686870437E0,1.427607642E0,-1.961857796E-2,3.042650360E0
1.443365217E1,2.500828699E0,1.303154919E0,-8.969510953E-2,2.821418462E0
1.444373217E1,2.072093306E0,1.123682236E0,-3.193877828E-1,2.378705739E0
1.445381317E1,1.586314523E0,9.282554251E-1,-4.915075922E-1,1.902532947E0
1.446389317E1,1.231778542E0,7.075265425E-1,-5.738971996E-1,1.532067290E0
1.447397417E1,9.568412930E-1,5.142216861E-1,-5.588803804E-1,1.221604061E0
1.448405417E1,8.687801787E-1,3.270721936E-1,-5.156951845E-1,1.061930667E0
1.449413517E1,9.223345345E-1,-1.411050081E-2,-5.064343278E-1,1.052319262E0
1.450421517E1,9.935290629E-1,-5.137696964E-1,-5.043118250E-1,1.226943241E0
1.451429617E1,1.218901804E0,-1.178400480E0,-4.963923562E-1,1.766565784E0
1.452437617E1,1.373488153E0,-1.839420608E0,-6.177500745E-1,2.377299526E0
1.453445617E1,1.311355347E0,-2.431961655E0,-8.163741430E-1,2.881068739E0
1.454453717E1,1.039756273E0,-2.711752093E0,-1.037270402E0,3.083929703E0
1.455461717E1,3.234904817E-1,-3.032974733E0,-1.485480459E0,3.392673579E0
1.456469817E1,-3.679895470E-1,-2.840715358E0,-2.191963273E0,3.606907685E0
1.457477817E1,-3.405199125E-1,-1.755494353E0,-3.027298840E0,3.515999502E0
1.458485917E1,2.180502731E-1,-2.718323779E-1,-2.819501660E0,2.840955539E0
1.459493917E1,7.513789058E-1,1.024697061E0,-1.946249677E0,2.324319714E0
1.460502017E1,8.397239023E-1,1.654716421E0,-1.254479188E0,2.239852830E0
1.461510017E1,5.249030873E-1,1.509425392E0,-9.052448773E-1,1.836669963E0
1.462518117E1,2.782140291E-1,9.770106786E-1,-8.606820774E-1,1.331437776E0
1.463526117E1,4.726646474E-1,2.036637837E-1,-7.965313974E-1,9.483422761E-1
1.464534217E1,7.153860775E-1,-5.571788406E-1,-5.118690589E-1,1.041266265E0
1.465542217E1,8.490382245E-1,-1.007013912E0,-1.555297968E-1,1.326322903E0
1.466550317E1,8.406214499E-1,-1.094539129E0,3.044390836E-1,1.413274029E0
1.467558317E1,6.990279070E-1,-8.947502947E-1,1.036925051E0,1.537670857E0
1.468566317E1,4.266531998E-1,-5.340373152E-1,1.835076127E0,1.958247482E0
1.469574417E1,2.041148964E-1,-1.945836425E-1,2.481474415E0,2.497446888E0
1.470582417E1,-8.537811935E-3,4.606787324E-2,2.824219193E0,2.824607795E0
1.471590517E1,-2.358380878E-1,1.242240965E-1,2.924211259E0,2.936334912E0
1.472598517E1,-4.525844318E-1,2.124977571E-1,2.865399671E0,2.908694422E0
1.473606617E1,-7.609341332E-1,3.267956203E-1,2.794289635E0,2.914424591E0
1.474614617E1,-1.131612522E0,3.111607504E-1,2.780361275E0,3.017909332E0
1.475622717E1,-1.364889237E0,2.203301024E-1,2.768715084E0,3.094713427E0
1.476630717E1,-1.460116114E0,6.587239265E-2,2.511865611E0,2.906156755E0
1.477638817E1,-1.460272820E0,-1.835440993E-2,1.956297971E0,2.441277400E0
1.478646817E1,-1.505920570E0,-1.094224548E-1,1.258144515E0,1.965374687E0
1.479654917E1,-1.650644713E0,-2.758880067E-1,4.464083102E-1,1.732057314E0
1.480662917E1,-1.839920545E0,-5.780762047E-1,-2.384646571E-1,1.943282044E0
1.481671017E1,-1.821887147E0,-8.546664619E-1,-8.313968825E-1,2.177371883E0
1.482679017E1,-1.863542127E0,-1.084222301E0,-1.137288122E0,2.437570826E0
1.483687117E1,-1.862194929E0,-1.191998180E0,-1.310997497E0,2.570475452E0
1.484695117E1,-1.614636682E0,-1.109258909E0,-1.465237252E0,2.446308882E0
1.485703117E1,-1.321363733E0,-8.773191601E-1,-1.338023036E0,2.075089557E0
1.486711217E1,-1.189211982E0,-6.400765711E-1,-8.692178428E-1,1.606070613E0
1.487719217E1,-8.532678080E-1,-3.243240023E-1,-4.278894474E-1,1.008137585E0
1.488727317E1,-6.064381242E-2,2.784321302E-1,-3.265029672E-1,4.333662547E-1
1.489735317E1,6.765380538E-1,8.545840162E-1,-2.597894526E-1,1.120494596E0
1.490743417E1,1.505879640E0,1.178464215E0,-2.961942172E-1,1.934988995E0
1.491751417E1,1.977004423E0,1.252710990E0,-2.947572640E-1,2.358964425E0
1.492759517E1,1.848977882E0,1.040036647E0,-2.983714280E-1,2.142293384E0
1.493767517E1,1.020419823E0,6.610476100E-1,-4.348384246E-1,1.291249400E0
1.494775617E1,4.872250915E-2,5.104473084E-1,-6.777846801E-1,8.498955290E-1
1.495783617E1,-7.280982167E-1,4.744231975E-1,-8.558872144E-1,1.219732474E0
1.496791717E1,-1.502465451E0,2.637556189E-1,-6.793375544E-1,1.669870944E0
1.497799717E1,-2.053635693E0,2.295488226E-1,-4.209957263E-1,2.108874017E0
1.498807817E1,-2.407120929E0,4.356082106E-1,-2.164541294E-1,2.455776470E0
1.499815817E1,-2.582668376E0,6.541584206E-1,-2.263009867E-1,2.673819612E0
1.500823817E1,-2.574762940E0,8.393748236E-1,-1.414757216E-1,2.711820362E0
1.501831912E1,-2.342340796E0,9.097063029E-1,4.971931323E-2,2.513284300E0
1.502839912E1,-1.839203677E0,8.969272131E-1,1.495824476E-1,2.051712333E0
1.503848012E1,-1.254337100E0,8.819285202E-1,1.523839948E-1,1.540902449E0
1.504856012E1,-6.786383736E-1,9.041321522E-1,7.194180250E-2,1.132775624E0
1.505864112E1,-2.264866358E-1,9.724077505E-1,4.679263562E-2,9.995311802E-1
1.506872112E1,1.622198886E-1,1.008342399E0,-1.482377341E-1,1.032009744E0
1.507880212E1,4.856065822E-1,8.497957313E-1,-4.768687955E-1,1.088747163E0
1.508888212E1,7.299488604E-1,5.148578632E-1,-5.332461870E-1,1.040315074E0
1.509896312E1,9.016073245E-1,1.702007532E-1,-3.296943775E-1,9.749679208E-1
1.510904312E1,9.064926732E-1,-4.316999316E-2,-4.765913451E-1,1.025052157E0
1.511912412E1,8.684740770E-1,-5.819616795E-2,-8.699136615E-1,1.230603021E0
1.512920412E1,8.753544956E-1,1.500161648E-2,-1.218916276E0,1.500742293E0
1.513928512E1,9.965824789E-1,2.416654229E-3,-1.468152820E0,1.774445034E0
1.514936512E1,1.257899809E0,-5.705303729E-2,-1.641869942E0,2.069131191E0
1.515944612E1,1.448839467E0,-1.884259397E-1,-1.545440147E0,2.126740554E0
1.516952612E1,1.485678095E0,-2.758429831E-1,-1.297836292E0,1.991910588E0
1.517960612E1,1.370093259E0,-1.468387878E-1,-1.189880903E0,1.820586096E0
1.518968712E1,9.964842457E-1,-1.271044350E-1,-8.417908931E-1,1.310628970E0
1.519976712E1,5.381648648E-1,-7.323169827E-2,-6.607539336E-1,8.553245373E-1
1.520984812E1,5.781317532E-2,-4.328752220E-2,-7.344265120E-1,7.379691554E-1
1.521992812E1,-4.877495867E-1,-2.091853094E-1,-8.485593376E-1,1.000855186E0
1.523000912E1,-8.429854792E-1,-4.422319365E-1,-5.977845374E-1,1.124072932E0
1.524008912E1,-7.112453717E-1,-4.873280025E-1,-4.161555474E-1,9.573630452E-1
1.525017013E1,-3.418019146E-1,-4.214228654E-1,-6.577566509E-1,8.526837585E-1
1.526025013E1,8.090733826E-2,-2.538954592E-1,-9.318539478E-1,9.692062121E-1
1.527033113E1,4.662189692E-1,5.893174767E-2,-8.653423083E-1,9.847082759E-1
1.528041113E1,7.497106951E-1,4.087320685E-1,-5.174753693E-1,9.984531977E-1
1.529049213E1,9.362503231E-1,7.307820886E-1,-4.395615131E-2,1.188502954E0
1.530057213E1,1.085249072E0,3.629659116E-1,1.260428730E-1,1.151258706E0
1.531065313E1,1.285821433E0,-7.898395514E-1,-1.428872395E-1,1.515783638E0
1.532073313E1,1.236791653E0,-2.099754437E0,-8.061683397E-1,2.566813137E0
1.533081412E1,7.734457129E-1,-2.986067784E0,-8.020692953E-1,3.187182805E0
1.534089412E1,4.196225077E-2,-3.097109333E0,3.988632841E-1,3.122969575E0
1.535097512E1,-1.023296068E0,-2.993929950E0,1.221878622E0,3.391716196E0
1.536105512E1,-1.996056114E0,-2.703581779E0,3.492730482E-1,3.378695918E0
1.537113512E1,-2.363329084E0,-2.530861461E0,-2.109184095E0,4.054533468E0
1.538121612E1,-2.377340475E0,-2.129888062E0,-2.985388337E0,4.370436410E0
1.539129612E1,-2.276278954E0,-1.312876500E0,-1.030443120E-1,2.629773509E0
1.540137712E1,-2.321635805E0,-5.534869087E-1,2.471512806E0,3.435799197E0
1.541145712E1,-2.089164544E0,2.707880652E-1,2.809509938E0,3.511592340E0
1.542153812E1,-1.803430704E0,1.040484543E0,2.190247993E0,3.021945839E0
1.543161812E1,-1.529760253E0,1.431905345E0,1.758747890E0,2.735637675E0
1.544169912E1,-1.317995152E0,1.234147834E0,1.945353591E0,2.654172695E0
1.545177912E1,-8.238332167E-1,5.290911555E-1,2.021124004E0,2.245791811E0
1.546186012E1,-8.247702330E-2,-2.921830273E-1,1.794300130E0,1.819803928E0
1.547194012E1,4.623899201E-1,-7.616080248E-1,1.881131136E0,2.081467169E0
1.548202112E1,6.121841830E-1,-8.658317202E-1,2.116371785E0,2.367163614E0
1.549210112E1,5.715489578E-1,-7.999581581E-1,2.483105496E0,2.670658003E0
1.550218212E1,5.671460044E-1,-5.570981491E-1,2.803676755E0,2.914209376E0
1.551226212E1,4.238211009E-1,-2.682527125E-1,3.078098280E0,3.118697303E0
1.552234312E1,5.887853801E-3,1.576409340E-2,3.228424348E0,3.228468204E0
1.553242312E1,-7.568621323E-1,3.022858465E-1,2.845353370E0,2.959772427E0
1.554250312E1,-1.619964665E0,5.302629375E-1,1.882401152E0,2.539468132E0
1.555258412E1,-2.346887591E0,4.972711927E-1,8.947912983E-1,2.560431891E0
1.556266412E1,-2.839956974E0,1.287077415E-1,6.550365262E-1,2.917360819E0
1.557274512E1,-2.844588846E0,-4.184548187E-1,1.189691965E0,3.111616479E0
1.558282512E1,-2.640689420E0,-9.769867051E-1,1.561454501E0,3.219609261E0
1.559290612E1,-2.391597741E0,-1.313941278E0,1.542254584E0,3.134442636E0
1.560298612E1,-1.985363310E0,-1.311315878E0,1.187378953E0,2.659151290E0
1.561306712E1,-1.514568602E0,-9.832683688E-1,5.913219754E-1,1.900104317E0
1.562314712E1,-9.439651394E-1,-6.291083640E-1,2.988255373E-1,1.173091735E0
1.563322812E1,-4.148076180E-1,-4.572107488E-1,6.652926886E-1,9.075909818E-1
1.564330812E1,2.256469756E-2,-3.007895440E-1,1.093158162E0,1.134009825E0
1.565338913E1,3.602259064E-1,-6.533912659E-2,1.341015640E0,1.390091671E0
1.566346913E1,5.049105799E-1,4.011868215E-1,1.174415603E0,1.339827439E0
1.567355013E1,6.425297704E-1,7.246208775E-1,6.122630839E-1,1.145768740E0
1.568363013E1,6.814312962E-1,7.203500712E-1,3.591769159E-1,1.054637802E0
1.569371113E1,9.365327436E-1,9.088210344E-1,3.168044829E-1,1.342912630E0
1.570379113E1,1.265171406E0,7.842630619E-1,3.263950861E-1,1.523896647E0
1.571387113E1,1.423351746E0,5.845496571E-1,3.681231558E-1,1.582132470E0
1.572395213E1,1.469295658E0,4.457765186E-1,1.756690693E-1,1.545446880E0
1.573403213E1,1.443536042E0,3.600200844E-1,-9.378924770E-3,1.487783160E0
1.574411313E1,1.017239815E0,6.322798938E-1,-3.542114604E-1,1.249007792E0
1.575419312E1,6.013323355E-1,9.801319224E-1,-9.628843904E-1,1.499801824E0
1.576427412E1,3.345247623E-1,1.076929654E0,-1.118672926E0,1.588431117E0
1.577435412E1,7.347114176E-2,9.274140108E-1,-7.173223829E-1,1.174753658E0
1.578443512E1,-2.390119565E-1,6.503600693E-1,-4.632561485E-1,8.334873689E-1
1.579451512E1,-2.605264941E-1,2.292704952E-1,-6.352157807E-1,7.238356873E-1
1.580459612E1,9.732105732E-2,-3.637202024E-2,-6.150475645E-1,6.237610269E-1
1.581467612E1,7.813064173E-1,7.760190725E-2,-5.199531635E-1,9.417075267E-1
1.582475712E1,1.303211052E0,3.669057655E-1,-4.014989897E-1,1.412154498E0
1.583483712E1,1.467712232E0,5.743029964E-1,-5.100596746E-1,1.656551840E0
1.584491812E1,1.375697815E0,6.601658499E-1,-7.073260561E-1,1.681866100E0
1.585499812E1,1.227614740E0,7.428846556E-1,-9.344786167E-1,1.712356811E0
1.586507912E1,1.083270082E0,8.733038771E-1,-1.028341119E0,1.730207846E0
1.587515912E1,9.914220187E-1,9.502508962E-1,-8.942789360E-1,1.638788943E0
1.588523912E1,8.243866557E-1,8.809204602E-1,-4.886904402E-1,1.301711397E0
1.589532012E1,5.354119956E-1,8.663141155E-1,-4.300346446E-1,1.105484485E0
1.590540012E1,1.064009061E-1,8.557084358E-1,-6.707305992E-1,1.092445704E0
1.591548112E1,-3.216179109E-1,7.082352251E-1,-1.049596260E0,1.306402512E0
1.592556112E1,-6.276252177E-1,4.706160754E-1,-1.280663019E0,1.501829109E0
1.593564212E1,-1.049470252E0,1.449980843E-1,-7.362632686E-1,1.290153423E0
1.594572212E1,-1.499165282E0,-1.049113280E-1,-7.702537179E-2,1.504804252E0
1.595580312E1,-1.942989123E0,-3.207694799E-1,-1.827200074E-2,1.969373925E0
1.596588312E1,-2.191513622E0,-4.719053864E-1,-7.185736871E-1,2.354097448E0
1.597596412E1,-2.190647357E0,-4.341528386E-1,-1.360912546E0,2.615245206E0
1.598604412E1,-1.985947447E0,-3.411429334E-1,-1.952974706E0,2.806149669E0
1.599612512E1,-1.612851819E0,-3.296765435E-1,-1.687914573E0,2.357760212E0
1.600620512E1,-1.383583370E0,-2.938535768E-1,-1.933966943E-1,1.427604689E0
1.601628638E1,-1.324078011E0,-1.630203724E-1,1.212355261E0,1.802654571E0
1.602636638E1,-1.194533533E0,-1.689050102E-1,1.635289632E0,2.032144543E0
1.603644738E1,-1.026032565E0,-3.697720706E-1,1.448482786E0,1.813167558E0
1.604652738E1,-8.592822540E-1,-5.757074976E-1,1.460990565E0,1.790055459E0
1.605660837E1,-5.927202639E-1,-6.904357159E-1,1.527465806E0,1.777968104E0
1.606668837E1,-3.058582029E-1,-6.800849748E-1,1.262033790E0,1.465876564E0
1.607676837E1,-1.156061777E-1,-3.738440716E-1,9.063441539E-1,9.872101618E-1
1.608684937E1,-1.346938285E-1,7.693649411E-2,9.391493726E-1,9.518735187E-1
1.609692937E1,-1.127565372E-1,2.896459204E-1,1.204752127E0,1.244201143E0
1.610701037E1,1.055553988E-1,2.827064449E-1,1.169478725E0,1.207785314E0
1.611709037E1,4.873186469E-1,7.963732302E-2,1.075701666E0,1.183619719E0
1.612717137E1,8.373104641E-1,-2.596087736E-1,9.909692249E-1,1.323066715E0
1.613725137E1,9.969128466E-1,-5.164635086E-1,9.323883102E-1,1.459423770E0
1.614733237E1,9.816773415E-1,-5.049661285E-1,8.959453925E-1,1.421759241E0
1.615741237E1,9.215229410E-1,-2.416876423E-1,1.172957307E0,1.511107637E0
1.616749337E1,1.048349926E0,1.564124340E-1,1.253442476E0,1.641529914E0
1.617757337E1,1.247125729E0,3.805689543E-1,8.813572472E-1,1.573831602E0
1.618765437E1,1.397870165E0,4.999848855E-1,7.176725581E-1,1.648963245E0
1.619773437E1,1.692025750E0,6.911268568E-1,7.224737799E-1,1.965343694E0
1.620781537E1,2.145123568E0,8.479485959E-1,7.136415607E-1,2.414509519E0
1.621789537E1,2.675662786E0,8.102650452E-1,8.381474930E-1,2.918594184E0
1.622797637E1,3.213375953E0,6.223320258E-1,8.894060858E-1,3.391773187E0
1.623805637E1,3.582513309E0,3.949846798E-1,5.887537686E-1,3.651991991E0
1.624813637E1,3.603527617E0,4.185659158E-1,9.291693449E-2,3.628945063E0
1.625821737E1,3.444788576E0,6.702920580E-1,2.125758905E-2,3.509460309E0
1.626829737E1,3.416535122E0,1.076259563E0,3.667198241E-1,3.600768018E0
1.627837837E1,3.727888539E0,1.547387270E0,5.262377143E-1,4.070440572E0
1.628845837E1,4.039757094E0,1.774678482E0,3.119161741E-1,4.423393810E0
1.629853937E1,3.883020432E0,1.498650143E0,-5.373357296E-2,4.162533751E0
1.630861937E1,3.517125650E0,1.185201961E0,-4.666399688E-1,3.740672318E0
1.631870037E1,3.097114303E0,1.016631412E0,-6.089997528E-1,3.316102702E0
1.632878037E1,2.775237653E0,1.018877327E0,-3.570877057E-1,2.977845978E0
1.633886137E1,2.760420808E0,1.032027131E0,1.584139176E-1,2.951287517E0
1.634894137E1,3.084110972E0,3.922803426E-1,7.478951347E-1,3.197650933E0
1.635902237E1,3.347174281E0,-6.433457494E-1,5.199811022E-2,3.408837518E0
1.636910237E1,3.303888513E0,-1.490725411E0,-1.026857607E0,3.767277280E0
1.637918338E1,3.144335247E0,-2.221988726E0,-8.700879085E-1,3.947294138E0
1.638926338E1,2.698736776E0,-2.635218472E0,-3.268757272E-1,3.786080338E0
1.639934438E1,1.944086353E0,-2.889681112E0,-4.287295461E-1,3.509065075E0
1.640942438E1,1.149180336E0,-3.185674769E0,-8.581841469E-1,3.493654134E0
1.641950438E1,4.151490954E-1,-3.193570265E0,-1.267099818E0,3.460748728E0
1.642958538E1,-2.525716496E-1,-2.942559822E0,-1.620486821E0,3.368742834E0
1.643966538E1,-7.194978395E-1,-2.593636583E0,-2.053235743E0,3.385321976E0
1.644974638E1,-1.225342220E0,-2.165411652E0,-2.309709824E0,3.394883010E0
1.645982638E1,-1.797142316E0,-1.759994370E0,-1.974244537E0,3.197646350E0
1.646990737E1,-2.052904206E0,-1.406286939E0,-7.697952962E-1,2.604734810E0
1.647998737E1,-1.914620187E0,-9.142361408E-1,5.587016749E-1,2.194025010E0
