"Time (s)","Linear Acceleration x (m/s^2)","Linear Acceleration y (m/s^2)","Linear Acceleration z (m/s^2)","Absolute acceleration (m/s^2)"
1.814700000E-2,-6.211052799E-1,-7.122540164E-1,-1.633681648E0,1.887324370E0
2.822800000E-2,-6.810146821E-1,-7.913569039E-1,-2.659883198E0,2.857447352E0
3.830900000E-2,-4.938752760E-1,-4.369238341E-1,-2.760001563E0,2.837679307E0
4.838900000E-2,1.400153795E-1,1.653016636E-1,-1.638516126E0,1.652774649E0
5.847000000E-2,8.725494401E-1,7.814821261E-1,-5.234351438E-1,1.282981367E0
6.855000000E-2,1.312736751E0,1.149042487E0,-7.294693887E-2,1.746109296E0
7.863100000E-2,1.375722081E0,9.900640029E-1,1.409225750E-1,1.700793094E0
8.871200000E-2,1.170680986E0,5.413325939E-1,3.211407781E-1,1.329160016E0
9.879200000E-2,6.710127273E-1,-2.568962502E-1,-7.307791650E-2,7.222147503E-1
1.088730000E-1,-9.870699361E-2,-1.024667240E0,-5.809963042E-1,1.182050223E0
1.189530000E-1,-4.365950744E-1,-1.056351840E0,-2.160891169E-1,1.163266511E0
1.290340000E-1,-5.519490910E-1,-8.152106202E-1,-8.636086088E-1,1.309593824E0
1.391150000E-1,-5.553194261E-1,-5.952830985E-1,-1.798969570E0,1.974596958E0
1.491950000E-1,-6.824605523E-1,-5.517222190E-1,-2.180820234E0,2.350771513E0
1.592760000E-1,-9.816533679E-1,-5.113065568E-1,-2.015995411E0,2.299851132E0
1.693570000E-1,-1.158112688E0,-4.063890892E-1,-1.401805049E0,1.863178597E0
1.794370000E-1,-1.068643272E0,-4.567333236E-1,-5.993507141E-1,1.307602788E0
1.895180000E-1,-7.690256564E-1,-7.271381038E-1,-8.820700228E-2,1.062031430E0
1.995980000E-1,-6.189502886E-1,-1.156933305E0,-8.311817050E-3,1.312121648E0
2.096790000E-1,-6.804105185E-1,-1.151037265E0,4.238436127E-1,1.402671974E0
2.197600000E-1,-4.823701483E-1,-9.408117360E-1,-5.034335732E-1,1.171005143E0
2.298400000E-1,-5.296969271E-1,-6.986776587E-1,-1.286078126E0,1.556510922E0
2.399210000E-1,-4.202836816E-1,-5.527320331E-1,-2.383336794E0,2.482427310E0
2.500010000E-1,9.871971130E-2,2.000320780E-1,-3.388462055E0,3.395796448E0
2.600820000E-1,8.520755607E-1,1.165036376E0,-4.568841233E0,4.791414482E0
2.701630000E-1,1.329516068E0,1.429935711E0,-5.469515342E0,5.807574983E0
2.802430000E-1,2.036245196E0,1.246004818E0,-4.820220051E0,5.378972378E0
2.903240000E-1,2.367026571E0,1.004060483E0,-3.085837655E0,4.016633699E0
3.004050000E-1,2.028698195E0,6.451911306E-1,4.466921926E-1,2.175183182E0
3.104850000E-1,1.758806946E0,1.319090921E-1,2.905677924E0,3.399083124E0
3.205660000E-1,1.205157485E0,-6.752411413E-1,1.839529366E0,2.300483309E0
3.306460000E-1,3.337431358E-1,-1.336049016E0,5.368211746E-1,1.478035326E0
3.407270000E-1,1.455505000E-1,-1.464684544E0,-1.079980731E0,1.825607882E0
3.508080000E-1,3.822514907E-1,-1.321092423E0,-2.917410362E0,3.225319304E0
3.608880000E-1,8.106514730E-1,-1.180714808E0,-4.895252107E0,5.100464337E0
3.709690000E-1,9.975452229E-1,-1.314862214E0,-5.851408691E0,6.079715683E0
3.810490000E-1,8.618213343E-1,-2.018551814E0,-6.554117128E0,6.911854944E0
3.911300000E-1,9.641418341E-1,-3.591215135E0,-7.400841317E0,8.282442141E0
4.012110000E-1,1.980911533E0,-5.032463454E0,-8.213349354E0,9.834063581E0
4.112910000E-1,1.270704626E0,-4.972358170E0,-7.913172013E0,9.431719214E0
4.213715000E-1,-1.907525760E0,-4.432738518E0,-7.050751559E0,8.544057750E0
4.314525000E-1,-4.307085362E0,-4.940663338E0,-3.771705526E0,7.562202134E0
4.415325000E-1,-3.426490007E0,-5.016525114E0,-5.662180513E-1,6.101390076E0
4.516135000E-1,-1.178415098E0,-5.102997832E0,-2.885522572E0,5.979589411E0
4.616935000E-1,7.189093173E-2,-5.491920703E0,-1.450139303E0,5.680604309E0
4.717745000E-1,1.199295505E0,-5.321124119E0,-1.881750357E0,5.770065511E0
4.818555000E-1,2.372956232E0,-5.348613634E0,-7.989138454E-1,5.905662741E0
4.919355000E-1,2.210523505E0,-4.967754657E0,1.350695121E-1,5.439048104E0
5.020165000E-1,5.157027858E-1,-4.011910315E0,6.897141695E-2,4.045507483E0
5.120965000E-1,-7.090392172E-1,-3.869891094E0,-1.162901558E0,4.102576474E0
5.221775000E-1,-2.455789644E-1,-4.738263722E0,-1.501702974E0,4.976601647E0
5.322585000E-1,7.637790960E-1,-5.179630855E0,-1.411895589E0,5.422673092E0
5.423385000E-1,2.603621873E0,-4.988171380E0,-7.962229568E-1,5.682840097E0
5.524195000E-1,4.748256614E0,-4.552854653E0,1.865121460E-1,6.580973571E0
5.625005000E-1,6.067684919E0,-3.714451052E0,1.831686496E0,7.346361161E0
5.725805000E-1,7.295128920E0,-2.392065810E0,3.132684085E0,8.291839023E0
5.826615000E-1,8.298324015E0,-1.119975394E0,3.395026724E0,9.035636823E0
5.927415000E-1,7.746935087E0,-6.823691896E-1,2.883218184E0,8.294189415E0
6.028225000E-1,7.128566889E0,-8.368573049E-1,2.633963660E0,7.645558227E0
6.129035000E-1,6.244412334E0,-1.153746280E0,2.592788737E0,6.859035596E0
6.229835000E-1,5.351061863E0,-1.443078205E0,2.286495793E0,5.995364941E0
6.330645000E-1,4.928682978E0,-1.330657883E0,2.370059522E0,5.628476564E0
6.431455000E-1,4.631601153E0,-1.167267235E0,2.555689908E0,5.417175735E0
6.532255000E-1,4.957495133E0,-1.229023627E0,3.054840103E0,5.951412028E0
6.633065000E-1,6.102015676E0,-1.170828044E0,3.313585535E0,7.041681810E0
6.733865000E-1,7.532424719E0,-3.023177138E-1,3.674284481E0,8.386249734E0
6.834675000E-1,7.998707423E0,8.743186614E-1,4.329000142E0,9.136957687E0
6.935485000E-1,7.545035409E0,2.121795808E0,4.580760490E0,9.078157491E0
7.036285000E-1,7.090824282E0,3.236827966E0,4.432371898E0,8.966758886E0
7.137095000E-1,6.656374404E0,4.072219666E0,4.107888851E0,8.818449072E0
7.237905000E-1,6.286566666E0,4.633364673E0,3.834145018E0,8.699980268E0
7.338705000E-1,5.740859478E0,4.962091629E0,3.381731325E0,8.307582538E0
7.439515000E-1,5.039359075E0,5.178874810E0,2.672078735E0,7.704277316E0
7.540315000E-1,4.543702299E0,5.433038072E0,1.850363234E0,7.320312655E0
7.641125000E-1,4.391005186E0,5.599635186E0,1.428265892E0,7.257877391E0
7.741935000E-1,4.079553244E0,5.458587481E0,1.550857008E0,6.988854657E0
7.842735000E-1,3.673597434E0,5.116773287E0,1.330750415E0,6.437979780E0
7.943545000E-1,2.589755201E0,4.713167472E0,1.154398245E0,5.500310440E0
8.044355000E-1,1.472683243E0,4.072134882E0,1.027206101E0,4.450419171E0
8.145155000E-1,9.377121270E-1,3.475820042E0,7.752104026E-1,3.682605079E0
8.245965000E-1,6.166292363E-1,3.045352703E0,7.583142883E-1,3.198350397E0
8.346765000E-1,2.187308890E-1,2.861580563E0,6.890364772E-1,2.951483997E0
8.447575000E-1,-1.216600925E-1,2.689974139E0,1.334884250E-1,2.696030639E0
8.548385000E-1,-1.191218162E-1,2.721214643E0,-3.226224625E-1,2.742860622E0
8.649185000E-1,1.054633051E-1,2.767285439E0,-2.275397193E-1,2.778626556E0
8.749995000E-1,5.097228384E-1,2.686669877E0,1.238555758E-1,2.737398876E0
8.850805000E-1,8.570082718E-1,2.716857297E0,6.782454407E-1,2.928445600E0
8.951605000E-1,1.262151904E0,2.925154999E0,1.066315642E0,3.359551793E0
9.052415000E-1,1.367523408E0,3.029351213E0,1.597720979E0,3.687790852E0
9.153215000E-1,1.585866627E0,2.974419546E0,1.925650667E0,3.882045219E0
9.254025000E-1,2.016317593E0,2.855101263E0,2.049055130E0,4.051637543E0
9.354835000E-1,1.633853556E0,2.767080787E0,1.607348127E0,3.593018442E0
9.455635000E-1,8.747498935E-1,2.912436721E0,7.827093105E-1,3.140081033E0
9.556445000E-1,5.115693891E-1,3.180984718E0,-3.928364128E-1,3.245718327E0
9.657255000E-1,8.212022620E-1,3.596130597E0,2.019264297E-1,3.694225590E0
9.758055000E-1,1.119317874E0,3.241242614E0,1.924115188E0,3.932015443E0
9.858865000E-1,1.513007981E0,2.067886527E0,1.249760485E0,2.850833055E0
9.959665000E-1,1.744766466E0,1.608601770E0,1.570659627E0,2.845835789E0
1.006047500E0,1.632215166E0,1.779683699E0,1.543644906E0,2.866049548E0
1.016128500E0,1.468593700E0,2.220174919E0,9.501468158E-1,2.826432929E0
1.026208500E0,1.390277263E0,2.624770668E0,7.118129902E-1,3.054336206E0
1.036289500E0,1.303658364E0,2.746750018E0,6.390736274E-1,3.106859491E0
1.046370500E0,9.754348540E-1,2.660713502E0,2.687912410E-1,2.846597658E0
1.056450500E0,5.763834357E-1,2.498546239E0,-1.962863517E-1,2.571668622E0
1.066531500E0,4.470360088E-1,2.352748840E0,-5.659789002E-1,2.460812958E0
1.076611500E0,6.241528487E-1,2.358312466E0,-9.441605826E-1,2.615844733E0
1.086692500E0,1.057235062E0,2.411906290E0,-1.411424595E0,2.987834888E0
1.096773500E0,1.648885578E0,2.326916426E0,-1.526321506E0,3.234659339E0
1.106853500E0,2.164833362E0,2.128048528E0,-1.400770091E0,3.343239578E0
1.116934500E0,2.486793335E0,1.816896549E0,-1.140276196E0,3.284126058E0
1.127015500E0,2.592316282E0,1.386955460E0,-1.135575034E0,3.151710617E0
1.137095500E0,2.607076993E0,9.881291592E-1,-1.187948545E0,3.030589287E0
1.147176500E0,2.497067478E0,8.464388448E-1,-1.269111845E0,2.926166363E0
1.157256500E0,2.113938028E0,1.248535493E0,-1.286939421E0,2.771964634E0
1.167337500E0,1.827585844E0,1.794987032E0,-1.112333960E0,2.792729006E0
1.177418500E0,1.637056076E0,2.094211569E0,-9.481939919E-1,2.822188253E0
1.187498500E0,1.437283614E0,2.092089029E0,-7.665658790E-1,2.651460718E0
1.197579500E0,1.336089946E0,2.014447361E0,-4.534094739E-1,2.459413480E0
1.207660500E0,1.248016260E0,1.841878778E0,-2.755629015E-1,2.241873531E0
1.217740500E0,1.057127473E0,1.650547941E0,-2.577920437E-1,1.976937971E0
1.227821500E0,9.317701864E-1,1.429437820E0,-3.900301878E-1,1.750317603E0
1.237901500E0,1.045806094E0,9.392408815E-1,-3.839449905E-1,1.457153930E0
1.247982500E0,1.324950415E0,2.908445996E-1,-9.361041427E-2,1.359723168E0
1.258063500E0,1.614434368E0,-3.168015593E-1,2.809493566E-1,1.669039873E0
1.268143500E0,1.761905240E0,-3.886141384E-1,4.766831464E-1,1.866161259E0
1.278224500E0,1.600654820E0,1.150138548E-1,3.155631191E-1,1.635513412E0
1.288305500E0,1.473070913E0,6.440637875E-1,-3.106040955E-3,1.607720661E0
1.298385500E0,1.457504455E0,7.570036349E-1,-1.250007530E-1,1.647118371E0
1.308466500E0,1.191109988E0,6.091886544E-1,2.728743517E-1,1.365398928E0
1.318546500E0,6.677017415E-1,5.673801854E-1,1.105207373E0,1.410400379E0
1.328627500E0,1.976727265E-1,5.638578227E-1,1.887600350E0,1.979910410E0
1.338708500E0,6.624193668E-2,3.859963399E-1,2.315421238E0,2.348309324E0
1.348788500E0,1.397636569E-1,-3.130891621E-2,2.370461079E0,2.374784171E0
1.358869500E0,2.202763081E-2,-3.925244638E-1,2.360916084E0,2.393425459E0
1.368950500E0,-4.339616346E-1,-5.778025550E-1,2.219915303E0,2.334566865E0
1.379030500E0,-1.016944238E0,-9.514153692E-1,1.798493753E0,2.274631084E0
1.389111500E0,-1.571697654E0,-1.475872899E0,1.457578715E0,2.602493043E0
1.399191500E0,-1.815826508E0,-1.849693581E0,1.588833650E0,3.040227725E0
1.409272500E0,-2.038665651E0,-2.010735256E0,2.037971148E0,3.514618088E0
1.419353625E0,-2.022356597E0,-2.084235342E0,2.228315413E0,3.660512634E0
1.429433625E0,-1.845016394E0,-2.050831953E0,2.112664066E0,3.474672164E0
1.439514625E0,-1.711068377E0,-2.090756156E0,1.985019786E0,3.352509486E0
1.449595625E0,-1.404266142E0,-2.277423254E0,1.892332063E0,3.277123847E0
1.459675625E0,-1.297280806E0,-2.703180368E0,1.721049721E0,3.457185811E0
1.469756625E0,-1.357796565E0,-3.124913720E0,1.583244881E0,3.757041605E0
1.479837625E0,-1.403211889E0,-3.327287900E0,1.473035245E0,3.899959129E0
1.489917625E0,-1.362649169E0,-3.402627228E0,1.172445237E0,3.848286975E0
1.499998625E0,-1.217236517E0,-3.355462417E0,9.271087861E-1,3.687861639E0
1.510078625E0,-1.085285910E0,-3.233937980E0,6.934015699E-1,3.480949023E0
1.520159625E0,-1.003106802E0,-3.068929846E0,3.459937835E-1,3.247193458E0
1.530240625E0,-8.110602665E-1,-2.855926305E0,6.059001803E-2,2.969478905E0
1.540320625E0,-7.019985849E-1,-2.542589221E0,-3.848988175E-2,2.637999892E0
1.550401625E0,-8.331966555E-1,-2.294469641E0,1.320476711E-2,2.441102613E0
1.560482625E0,-1.000590160E0,-2.246766594E0,-1.131699353E-1,2.462102401E0
1.570562625E0,-1.135769016E0,-2.298559769E0,-3.428339481E-1,2.586674194E0
1.580643625E0,-1.308126807E0,-2.415674821E0,-1.784453273E-1,2.752911789E0
1.590723625E0,-1.681585547E0,-2.343167008E0,1.907502079E-1,2.890423363E0
1.600804625E0,-2.025582506E0,-2.141749139E0,5.113144505E-1,2.991908477E0
1.610885625E0,-2.068890494E0,-1.872648581E0,5.536003447E-1,2.844924238E0
1.620965625E0,-1.696760826E0,-1.464313830E0,5.062283961E-1,2.297711793E0
1.631046625E0,-1.079004246E0,-8.525085470E-1,5.472071452E-1,1.480019137E0
1.641127625E0,-7.335133231E-1,-4.726690328E-1,5.543119508E-1,1.033788928E0
1.651207625E0,-7.923532695E-1,-5.036195147E-1,3.441242094E-1,9.999388935E-1
1.661288625E0,-1.196224548E0,-8.825810695E-1,6.913338482E-2,1.488180748E0
1.671368625E0,-1.527021418E0,-1.497058823E0,1.794861317E-2,2.138527924E0
1.681449625E0,-1.597545270E0,-2.217408602E0,2.320607134E-1,2.742791274E0
1.691530625E0,-1.584286124E0,-2.900631485E0,3.888981669E-1,3.327892324E0
1.701610625E0,-1.912235985E0,-3.343333830E0,1.431772614E-1,3.854222008E0
1.711691625E0,-2.351130915E0,-3.071909880E0,-3.767368354E-2,3.868574181E0
1.721772625E0,-2.652893436E0,-2.495502763E0,1.620023721E-1,3.645767737E0
1.731852625E0,-2.599265113E0,-1.901299353E0,3.230586648E-1,3.236585432E0
1.741933625E0,-2.052482622E0,-1.376470233E0,4.688800371E-1,2.515393349E0
1.752013625E0,-1.500735260E0,-8.090885854E-1,5.171395198E-1,1.781646413E0
1.762094625E0,-1.288109449E0,-3.155850461E-1,5.879088094E-1,1.450674547E0
1.772175625E0,-1.123502142E0,-2.897353828E-2,6.238190458E-1,1.285397499E0
1.782255625E0,-1.168704627E0,-1.312656060E-1,4.383236575E-1,1.255081190E0
1.792336625E0,-1.393484461E0,-4.021451801E-1,6.719781026E-2,1.451907447E0
1.802417625E0,-1.501946803E0,-6.347579437E-1,-9.745729744E-2,1.633480875E0
1.812497625E0,-1.482981359E0,-7.849544951E-1,2.296479329E-2,1.678068727E0
1.822578625E0,-1.265552645E0,-8.041102660E-1,1.448043953E-1,1.506381469E0
1.832658625E0,-8.506517637E-1,-7.474071845E-1,1.605857380E-1,1.143684267E0
1.842739625E0,-2.907218081E-1,-6.333204058E-1,6.867430530E-2,7.002357219E-1
1.852820625E0,6.863701469E-1,-3.361628598E-1,1.022223397E-1,7.710764252E-1
1.862900625E0,2.309259589E0,4.589005941E-1,2.568138045E-1,2.368379812E0
1.872981625E0,3.953086156E0,1.586229446E0,1.382397994E-1,4.261704383E0
1.883062625E0,4.773838182E0,2.408541217E0,-2.274099112E-1,5.351851741E0
1.893142625E0,4.829855677E0,2.676124424E0,-6.943627059E-1,5.565185295E0
1.903223625E0,4.109058294E0,1.973980243E0,-1.125650409E0,4.695534784E0
1.913304625E0,2.692339337E0,9.302981499E-1,-1.139153969E0,3.067868563E0
1.923384625E0,9.571985579E-1,1.227447510E-1,-6.692209212E-1,1.174373022E0
1.933465625E0,-5.558456755E-1,-5.440761074E-1,-1.548108816E-1,7.930634493E-1
1.943545625E0,-1.728150433E0,-1.356506377E0,1.051188310E-1,2.199468899E0
1.953626625E0,-2.348379800E0,-2.022486113E0,1.449037980E-1,3.102633539E0
1.963707625E0,-2.375482230E0,-2.376706344E0,5.294899356E-1,3.401765492E0
1.973787625E0,-2.192274345E0,-2.367674443E0,1.179633658E0,3.435619979E0
1.983868625E0,-2.097842982E0,-2.196169176E0,1.491070982E0,3.383400197E0
1.993949625E0,-2.126872653E0,-1.876741047E0,1.538521721E0,3.226886011E0
2.004029625E0,-2.030131055E0,-1.596106855E0,1.492480745E0,2.982698102E0
2.014110625E0,-1.971006934E0,-1.774802443E0,1.077827786E0,2.862953856E0
2.024190625E0,-1.687528072E0,-1.715775094E0,7.377040956E-1,2.517109950E0
2.034271625E0,-9.687924170E-1,-1.144492477E0,8.835317536E-1,1.740416656E0
2.044352625E0,-2.208399796E-1,-7.496609938E-1,1.230973381E0,1.458100602E0
2.054432625E0,4.537234694E-1,-5.133671156E-1,1.667776762E0,1.803022493E0
2.064513625E0,1.291506096E0,-4.578311384E-2,2.257560847E0,2.601281428E0
2.074594625E0,2.173562670E0,6.020176291E-1,2.833182390E0,3.621287391E0
2.084674625E0,2.928111352E0,1.061459091E0,3.170324074E0,4.444264419E0
2.094755625E0,3.706203262E0,1.281128165E0,3.080699707E0,4.986776783E0
2.104835625E0,4.316285956E0,1.195716717E0,2.664489634E0,5.211484235E0
2.114916625E0,4.685026578E0,1.090271831E0,2.376088001E0,5.365068582E0
2.124997625E0,4.870625973E0,1.094033929E0,2.105812152E0,5.417965710E0
2.135077625E0,4.852100825E0,1.063039593E0,1.795833124E0,5.281851209E0
2.145158625E0,4.732665598E0,1.274059759E0,1.509394401E0,5.128315843E0
2.155239625E0,4.304071122E0,1.582032607E0,1.426347567E0,4.802324726E0
2.165319625E0,3.668899196E0,1.676876199E0,1.530076588E0,4.314379383E0
2.175400625E0,2.995745510E0,1.657089221E0,1.626841575E0,3.790389078E0
2.185481625E0,2.474545172E0,1.583751689E0,1.410295206E0,3.258922489E0
2.195561625E0,2.187195454E0,1.513202693E0,9.026908135E-1,2.808639715E0
2.205642625E0,1.971126217E0,1.501358573E0,5.188363087E-1,2.531522712E0
2.215722625E0,1.759444731E0,1.344113495E0,3.721062791E-1,2.245161450E0
2.225803625E0,1.450534574E0,1.022245324E0,6.515082797E-2,1.775747922E0
2.235884625E0,9.657495260E-1,8.992935812E-1,-2.792185807E-1,1.348838059E0
2.245964625E0,6.666983593E-1,9.646180898E-1,-5.472596240E-1,1.294012310E0
2.256045625E0,1.059849352E0,8.896988851E-1,-7.220656443E-1,1.560840655E0
2.266126625E0,1.823604475E0,9.326127702E-1,-6.749113584E-1,2.156572559E0
2.276206625E0,2.524736502E0,1.344748503E0,-1.464359238E-1,2.864277644E0
2.286287625E0,2.975749787E0,1.985708004E0,5.229936790E-1,3.615473062E0
2.296367625E0,2.966959083E0,2.650218920E0,1.257697495E0,4.172326630E0
2.306448625E0,2.228361021E0,3.161457356E0,1.613073721E0,4.190753188E0
2.316529625E0,8.348748064E-1,3.532410564E0,1.533634619E0,3.940428337E0
2.326609625E0,-7.879380369E-1,3.646203813E0,1.170800854E0,3.909785574E0
2.336690625E0,-2.152461239E0,3.396251716E0,4.226613057E-1,4.043050541E0
2.346771625E0,-3.186283464E0,2.931867603E0,-5.021121025E-1,4.358940986E0
2.356851625E0,-3.748236557E0,2.305503922E0,-1.556846895E0,4.667804395E0
2.366932625E0,-3.742156037E0,1.695447541E0,-2.281839656E0,4.699475118E0
2.377013625E0,-3.313179154E0,8.075946218E-1,-2.538774498E0,4.251439889E0
2.387093625E0,-2.672754673E0,-2.461286026E-1,-2.562309541E0,3.710744806E0
2.397174625E0,-2.162551194E0,-1.133172852E0,-2.488510662E0,3.486171782E0
2.407254625E0,-1.677233464E0,-1.512644868E0,-2.226461261E0,3.171488032E0
2.417335500E0,-1.012607943E0,-1.674007555E0,-1.913668553E0,2.736750531E0
2.427416500E0,-3.457528782E-1,-1.607363915E0,-1.830611193E0,2.460548953E0
2.437496500E0,4.902621353E-1,-9.366672295E-1,-1.696200078E0,1.998698868E0
2.447577500E0,1.315098442E0,-1.518989682E-2,-1.361065158E0,1.892673508E0
2.457658500E0,1.791671661E0,4.828259388E-1,-1.165817930E0,2.191424120E0
2.467738500E0,1.593802468E0,1.067385828E-1,-1.638334862E0,2.288174065E0
2.477819500E0,7.539972889E-1,-7.699028850E-1,-2.461879519E0,2.687398952E0
2.487900500E0,-5.002813393E-1,-1.620061436E0,-3.023418043E0,3.466401180E0
2.497980500E0,-1.735422031E0,-2.041422321E0,-3.139260449E0,4.127232836E0
2.508061500E0,-2.505731297E0,-1.963245340E0,-2.757795993E0,4.211705158E0
2.518141500E0,-2.451415341E0,-1.698601237E0,-1.846351898E0,3.507662850E0
2.528222500E0,-1.605415038E0,-1.703861392E0,-7.416333514E-1,2.455711936E0
2.538303500E0,-6.659007990E-1,-1.990991255E0,2.285450019E-2,2.099521941E0
2.548383500E0,-3.753625935E-1,-2.187159786E0,3.280872703E-1,2.243257957E0
2.558464500E0,-7.062980425E-1,-2.117437879E0,2.658349619E-1,2.247903094E0
2.568545500E0,-1.345505133E0,-1.876291104E0,-1.993532894E-1,2.317454229E0
2.578625500E0,-2.007276043E0,-1.576730352E0,-7.438823368E-1,2.658683255E0
2.588706500E0,-2.428170905E0,-1.212523954E0,-1.123165781E0,2.937299721E0
2.598786500E0,-2.387457327E0,-7.590370041E-1,-1.106283992E0,2.738604377E0
2.608867500E0,-1.971174164E0,-3.079541373E-1,-6.888722435E-1,2.110665370E0
2.618948500E0,-1.488691165E0,-1.049689230E-1,-3.902736513E-1,1.542573623E0
2.629028500E0,-1.186121728E0,-1.401177058E-1,-3.815249741E-1,1.253825758E0
2.639109500E0,-9.756693274E-1,-2.247567371E-1,-5.294348256E-1,1.132584417E0
2.649190500E0,-9.689327502E-1,-2.481111011E-1,-6.661990070E-1,1.201753265E0
2.659270500E0,-1.099868281E0,-2.032655883E-1,-7.883485115E-1,1.368400713E0
2.669351500E0,-1.140055025E0,-5.278866291E-3,-8.390808548E-1,1.415559962E0
2.679432500E0,-1.104570027E0,3.140688631E-1,-9.238742526E-1,1.473858144E0
2.689512500E0,-7.607970160E-1,6.052733588E-1,-8.490684839E-1,1.290769239E0
2.699593500E0,-3.956196874E-1,7.524094775E-1,-7.854599869E-1,1.157403279E0
2.709673500E0,-2.757839262E-1,8.072326791E-1,-8.075348340E-1,1.174646279E0
2.719754500E0,-2.834601510E-1,7.961577603E-1,-8.513804729E-1,1.199610581E0
2.729835500E0,-2.715914726E-1,8.828079414E-1,-7.754144704E-1,1.205976530E0
2.739915500E0,-4.848949760E-1,1.100350091E0,-8.494257487E-1,1.472215189E0
2.749996500E0,-8.747686046E-1,1.058631670E0,-9.589476062E-1,1.674963174E0
2.760077500E0,-1.133343006E0,7.392131889E-1,-1.028422322E0,1.699574941E0
2.770157500E0,-1.221311442E0,4.430704272E-1,-1.025942518E0,1.655436828E0
2.780238500E0,-1.102353348E0,3.836741182E-1,-9.224719441E-1,1.487730896E0
2.790319500E0,-7.883613753E-1,3.495722795E-1,-8.486531854E-1,1.209928372E0
2.800399500E0,-2.595345140E-1,6.946082890E-2,-9.078809483E-1,9.468002889E-1
2.810480500E0,5.404400164E-1,-3.399243736E-1,-8.828683139E-1,1.089532217E0
2.820560500E0,1.417779057E0,-3.774225676E-1,-6.417968220E-1,1.601389525E0
2.830641500E0,2.092655332E0,6.046254873E-2,-4.745483279E-1,2.146638809E0
2.840722500E0,2.501368690E0,5.866739506E-1,-3.539307940E-1,2.593510874E0
2.850802500E0,2.878242788E0,9.207633877E-1,-3.561588755E-1,3.042849965E0
2.860883500E0,3.202264490E0,1.048853663E0,-3.113157016E-1,3.384007880E0
2.870964500E0,3.119980132E0,1.068597372E0,-4.587083669E-1,3.329653095E0
2.881044500E0,2.673548141E0,1.005238112E0,-6.317571527E-1,2.925317149E0
2.891125500E0,2.205284985E0,7.892507368E-1,-1.128363663E0,2.599885218E0
2.901205500E0,1.957040859E0,5.560158294E-1,-1.507308115E0,2.532022962E0
2.911286500E0,1.944968698E0,4.532340574E-1,-1.624334435E0,2.574254592E0
2.921367500E0,1.974380193E0,5.875603884E-1,-1.623739919E0,2.622963149E0
2.931447500E0,1.914114110E0,6.475452197E-1,-1.732347126E0,2.661611205E0
2.941528500E0,1.618647287E0,5.932643473E-1,-1.595446705E0,2.348921415E0
2.951609500E0,1.279305296E0,5.281257802E-1,-1.577188920E0,2.098347867E0
2.961689500E0,9.569646692E-1,4.268531746E-1,-1.543595935E0,1.865656298E0
2.971770500E0,6.800253332E-1,3.035207784E-1,-1.478510578E0,1.655461520E0
2.981851500E0,5.266668999E-1,2.101863527E-1,-1.353473718E0,1.467462924E0
2.991931500E0,4.895224625E-1,1.285685778E-1,-1.269478611E0,1.366652138E0
3.002012500E0,4.403011858E-1,-2.921561301E-2,-1.127432640E0,1.210711792E0
3.012092500E0,1.854403514E-1,-2.445732433E-1,-1.224992264E0,1.262857966E0
3.022173500E0,-9.120954752E-2,-3.183364534E-1,-1.309697369E0,1.350912461E0
3.032254500E0,-2.594737029E-1,-2.798477411E-1,-1.244780703E0,1.301967880E0
3.042334500E0,-2.096846616E-1,-2.053676623E-1,-1.010754960E0,1.052506116E0
3.052415500E0,2.440861702E-2,-2.003267777E-1,-5.533687949E-1,5.890192031E-1
3.062496500E0,1.551511896E-1,-2.367654562E-1,9.927402735E-3,2.832460524E-1
3.072576500E0,9.132707655E-2,-3.165015972E-1,5.571268004E-1,6.472280646E-1
3.082657500E0,-2.325788498E-2,-3.430982423E-1,8.733015382E-1,9.385696084E-1
3.092738500E0,-3.229452288E-1,-4.652354676E-1,8.487116575E-1,1.020318156E0
3.102818500E0,-7.084498179E-1,-7.111442149E-1,4.865093923E-1,1.115490308E0
3.112899500E0,-1.011961241E0,-1.039989869E0,3.195210993E-2,1.451435640E0
3.122979500E0,-1.174959394E0,-1.239480495E0,-1.921494466E-1,1.718651472E0
3.133060500E0,-1.151010953E0,-1.285903879E0,-2.562194350E-1,1.744712984E0
3.143141500E0,-9.849424267E-1,-1.266827922E0,-3.266264896E-1,1.637574253E0
3.153221500E0,-8.977885079E-1,-1.160191081E0,-3.640384372E-1,1.511486531E0
3.163302500E0,-8.419388276E-1,-9.968075967E-1,-2.426595958E-1,1.327166174E0
3.173383500E0,-8.035337305E-1,-8.115911937E-1,2.710184455E-3,1.142083214E0
3.183463500E0,-7.899132264E-1,-6.976962036E-1,2.484690969E-1,1.082811059E0
3.193544500E0,-6.337393588E-1,-6.033648276E-1,4.474423903E-1,9.827916273E-1
3.203625500E0,-4.059131259E-1,-5.281602788E-1,6.764455216E-1,9.493667834E-1
3.213705500E0,-2.035801685E-1,-4.890833366E-1,8.516561691E-1,1.002978377E0
3.223786500E0,-1.675636590E-2,-4.785811526E-1,1.023514169E0,1.130000863E0
3.233867500E0,7.870527685E-2,-4.316057914E-1,1.308052547E0,1.379666462E0
3.243947500E0,8.525123477E-2,-3.333708143E-1,1.555081036E0,1.592696111E0
3.254028500E0,1.294339657E-2,-2.498252124E-1,1.675119111E0,1.693695428E0
3.264108500E0,-7.795507908E-2,-2.290722746E-1,1.626556231E0,1.644456224E0
3.274189500E0,-1.007083493E-1,-2.021019924E-1,1.556847918E0,1.573137892E0
3.284270500E0,3.938216686E-2,-9.853260040E-2,1.656717192E0,1.660111889E0
3.294350500E0,1.511230427E-1,4.527206719E-2,1.772589711E0,1.779596026E0
3.304431500E0,2.276052082E-1,1.241042286E-1,1.748282982E0,1.767399042E0
3.314512500E0,2.982688093E-1,1.216472286E-1,1.545214298E0,1.578432627E0
3.324592500E0,3.271844602E-1,1.703071725E-1,1.443887606E0,1.490256898E0
3.334673500E0,2.421460640E-1,2.996721411E-1,1.472046919E0,1.521630783E0
3.344754500E0,9.753038764E-2,4.493491673E-1,1.640660738E0,1.703876318E0
3.354834500E0,1.958115578E-2,6.121473455E-1,1.708941745E0,1.815375907E0
3.364915500E0,9.382325292E-2,7.506596982E-1,1.639631044E0,1.805736067E0
3.374995500E0,2.624546134E-1,7.792017120E-1,1.522763475E0,1.730562433E0
3.385076500E0,3.810145122E-1,8.202491659E-1,1.363337971E0,1.636053537E0
3.395157500E0,4.169047219E-1,9.259048444E-1,1.164909199E0,1.545355225E0
3.405237500E0,4.247335589E-1,1.080384189E0,9.450508212E-1,1.496913373E0
3.415317792E0,3.373901904E-1,1.277234212E0,6.675464979E-1,1.480127596E0
3.425398792E0,2.751910186E-1,1.576305259E0,4.968192029E-1,1.675499235E0
3.435478792E0,1.868968928E-1,1.868025772E0,3.156324086E-1,1.903700226E0
3.445559792E0,2.379518563E-1,2.152203961E0,6.542785808E-2,2.166306483E0
3.455640792E0,3.790849310E-1,2.276982374E0,-2.576400161E-1,2.322656344E0
3.465720792E0,4.510805279E-1,2.215483114E0,-5.301600266E-1,2.322263707E0
3.475801792E0,6.307373983E-1,2.052907130E0,-6.425101823E-1,2.241668281E0
3.485882792E0,9.271526402E-1,1.853910009E0,-5.287660503E-1,2.139202626E0
3.495962792E0,1.322065399E0,1.753078868E0,-3.897280329E-1,2.230029232E0
3.506043792E0,1.763427270E0,1.718660987E0,-2.452990289E-1,2.474599551E0
3.516123792E0,2.168146979E0,1.713366333E0,-1.876326187E-1,2.769781853E0
3.526204792E0,2.472864098E0,1.641490604E0,-1.782297112E-1,2.973434728E0
3.536285792E0,2.626579796E0,1.374561701E0,-4.625966191E-2,2.964874576E0
3.546365792E0,2.573157880E0,1.066916297E0,-1.421750486E-3,2.785579631E0
3.556446792E0,2.418227130E0,1.008716621E0,-7.625251606E-2,2.621287111E0
3.566527792E0,2.258337357E0,1.036375705E0,-1.003388053E-1,2.486811230E0
3.576607792E0,2.133945445E0,8.805924314E-1,8.924926847E-2,2.310223285E0
3.586688792E0,2.069418497E0,6.680888271E-1,4.150073004E-1,2.213835282E0
3.596769792E0,1.856048335E0,3.878861600E-1,5.376413928E-1,1.970895574E0
3.606849792E0,1.310168070E0,1.272336584E-1,5.181713341E-1,1.414648474E0
3.616930792E0,7.655543107E-1,-2.956059873E-2,4.372639959E-1,8.821264273E-1
3.627011792E0,3.590886229E-1,-1.962226170E-1,4.624153554E-1,6.174754372E-1
3.637091792E0,9.560782313E-2,-3.046247327E-1,6.438953876E-1,7.187060274E-1
3.647172792E0,-7.187222064E-2,-2.675294119E-1,8.248386455E-1,8.701128624E-1
3.657252792E0,-1.694312596E-1,-6.985843956E-2,9.513121659E-1,9.688044128E-1
3.667333792E0,-2.356872296E-1,6.509822130E-2,9.980004287E-1,1.027516961E0
3.677414792E0,-1.513849980E-1,3.825657785E-2,1.106357667E0,1.117321919E0
3.687494792E0,1.099960667E-1,-7.783579588E-2,1.194934652E0,1.202508365E0
3.697575792E0,3.711023122E-1,-9.668488026E-2,1.268690261E0,1.325382914E0
3.707656792E0,2.886337674E-1,8.869875312E-2,1.350284647E0,1.383634904E0
3.717736792E0,5.409843922E-2,3.980994916E-1,1.475096973E0,1.528829921E0
3.727817792E0,-1.169180006E-1,7.917591923E-1,1.501860849E0,1.701804468E0
3.737898792E0,-2.027060097E-1,1.092041783E0,1.490575869E0,1.858887141E0
3.747978792E0,-1.289556634E-1,1.036571002E0,1.172467310E0,1.570282968E0
3.758059792E0,3.415750426E-1,4.339774221E-1,6.989511622E-1,8.908101031E-1
3.768140792E0,1.052764281E0,-4.678649604E-1,6.374323871E-1,1.316635979E0
3.778220792E0,1.864157839E0,-1.002870575E0,8.927112244E-1,2.297339149E0
3.788301792E0,2.501202629E0,-1.231988457E0,1.103868361E0,2.998722312E0
3.798382792E0,2.659322450E0,-1.136014599E0,1.227058670E0,3.141368816E0
3.808462792E0,2.346870634E0,-6.022339761E-1,1.417195797E0,2.806943438E0
3.818543792E0,2.000442987E0,2.171831310E-2,1.645193061E0,2.590155215E0
3.828623792E0,1.587124947E0,6.394228524E-1,1.833958139E0,2.508232374E0
3.838704792E0,1.071449059E0,1.277972131E0,1.929917965E0,2.550646821E0
3.848785792E0,4.604898673E-1,1.880679147E0,1.986782137E0,2.774222095E0
3.858865792E0,-6.059995830E-2,2.579230213E0,1.940083934E0,3.228006586E0
3.868946792E0,-3.141018999E-1,3.170527557E0,1.750721270E0,3.635372053E0
3.879027792E0,-2.332957184E-1,3.608488687E0,1.348125270E0,3.859152659E0
3.889107792E0,6.328909278E-2,3.819504175E0,6.644196993E-1,3.877379423E0
3.899188792E0,4.888517869E-1,3.783399957E0,-7.853395343E-3,3.814859497E0
3.909269792E0,9.649829561E-1,3.582158675E0,-6.076859200E-1,3.759299809E0
3.919349792E0,1.370576824E0,3.325026782E0,-8.894452621E-1,3.704780264E0
3.929430792E0,1.968908953E0,2.935389966E0,-1.196632829E0,3.731627908E0
3.939511792E0,2.722557163E0,2.560562392E0,-1.369253599E0,3.980408609E0
3.949591792E0,3.305268456E0,2.121310782E0,-1.193273019E0,4.104711865E0
3.959672792E0,3.484111978E0,1.740058288E0,-9.840491183E-1,4.016863427E0
3.969752792E0,3.293306222E0,1.553311669E0,-8.348517099E-1,3.735722204E0
3.979833792E0,2.844426586E0,1.514532350E0,-5.658737965E-1,3.271816620E0
3.989914792E0,2.217061862E0,1.474602883E0,-4.360181004E-1,2.698134308E0
3.999994792E0,1.589934534E0,1.310675608E0,-4.277939916E-1,2.104464320E0
4.010075792E0,1.057955439E0,1.043908673E0,-5.300066833E-1,1.577948704E0
4.020156792E0,5.935409206E-1,8.011299402E-1,-7.081890321E-1,1.222960224E0
4.030236792E0,4.222625256E-2,5.149087340E-1,-9.972956930E-1,1.123170851E0
4.040317792E0,-6.396280897E-1,2.387991178E-1,-1.381067898E0,1.540615997E0
4.050398792E0,-1.182971833E0,6.838786483E-2,-1.766728169E0,2.127305263E0
4.060478792E0,-1.603232857E0,7.303757071E-3,-2.062718026E0,2.612511167E0
4.070559792E0,-1.780818644E0,4.508086324E-2,-2.199952909E0,2.830749040E0
4.080640792E0,-1.603288406E0,1.178658342E-1,-2.138030456E0,2.674995383E0
4.090720792E0,-1.161073426E0,8.843445897E-2,-1.861863391E0,2.196007159E0
4.100801792E0,-6.366840166E-1,1.170934170E-1,-1.475374277E0,1.611150727E0
4.110882792E0,-1.236060458E-1,1.144604158E-1,-9.993015803E-1,1.013401840E0
4.120962792E0,8.248608649E-2,9.780345261E-2,-6.833414353E-1,6.952157845E-1
4.131043792E0,4.334190130E-2,1.366084993E-1,-4.195782150E-1,4.433805149E-1
4.141123792E0,-9.325081050E-2,2.723709065E-1,-2.758442988E-1,3.987125550E-1
4.151204792E0,-2.319836032E-1,3.906507236E-1,-2.088129880E-1,5.000272432E-1
4.161285792E0,-2.788297409E-1,4.107610524E-1,-9.295260251E-2,5.050849957E-1
4.171365792E0,-1.790756571E-1,3.060169548E-1,3.928554162E-2,3.567321423E-1
4.181446792E0,-1.655171335E-2,2.372338182E-1,1.226609896E-1,2.675809449E-1
4.191527792E0,6.924623609E-2,2.648005164E-1,1.213414192E-1,2.993962169E-1
4.201607792E0,-4.336938322E-2,3.938386256E-1,-3.446246579E-2,3.977152599E-1
4.211688792E0,-2.577405882E-1,4.785618567E-1,-3.136551726E-1,6.275597412E-1
4.221769792E0,-3.891246003E-1,4.884068137E-1,-5.640715384E-1,8.415080931E-1
4.231849792E0,-4.186144477E-1,5.318130344E-1,-7.133569475E-1,9.833317314E-1
4.241930792E0,-4.635169709E-1,6.444397634E-1,-7.516988946E-1,1.093252862E0
4.252011792E0,-4.974454397E-1,7.942881131E-1,-7.347561488E-1,1.190887136E0
4.262091792E0,-4.685929388E-1,9.218094546E-1,-5.949284649E-1,1.193001212E0
4.272172792E0,-4.710861915E-1,1.009538155E0,-3.976312758E-1,1.182877896E0
4.282252792E0,-3.733780485E-1,1.103249726E0,-1.019323178E-1,1.169171211E0
4.292333792E0,-1.830657971E-1,1.277545284E0,2.016523415E-1,1.306253691E0
4.302414792E0,6.407320440E-2,1.441374326E0,4.903147602E-1,1.523835256E0
4.312494792E0,2.961263895E-1,1.448549445E0,6.649127658E-1,1.621140129E0
4.322575792E0,5.408966839E-1,1.360575162E0,6.765281135E-1,1.612893140E0
4.332656792E0,7.341395599E-1,1.243257796E0,5.606944790E-1,1.548879963E0
4.342736792E0,7.265340865E-1,8.403366905E-1,3.782329917E-1,1.173489552E0
4.352817792E0,6.303450501E-1,3.326966304E-1,2.145147541E-1,7.443376316E-1
4.362898792E0,5.697298890E-1,1.280540228E-3,1.782615785E-1,5.969681538E-1
4.372978792E0,5.527027971E-1,-2.519331336E-2,1.815519530E-1,5.823024957E-1
4.383059792E0,6.638332236E-1,1.578689754E-2,1.243457186E-1,6.755631966E-1
4.393140792E0,8.923564446E-1,-3.560895860E-2,-8.828710914E-3,8.931102778E-1
4.403220792E0,1.174680482E0,-1.635132927E-1,-1.038361712E-1,1.190543061E0
4.413301792E0,1.420184017E0,-2.246640587E-1,-1.135185756E-1,1.442318636E0
4.423381875E0,1.585353241E0,-2.300125068E-1,-7.431577206E-2,1.603674994E0
4.433462875E0,1.671739420E0,-2.647701108E-1,-2.583963534E-1,1.712187074E0
4.443543875E0,1.893600909E0,-1.808806926E-1,-2.443770692E-1,1.917853586E0
4.453623875E0,2.192207687E0,-1.001937944E-1,-5.551697373E-2,2.195198277E0
4.463704875E0,2.538760464E0,-5.339677334E-3,4.452289268E-2,2.539156453E0
4.473785875E0,2.795000072E0,4.900142133E-2,2.103155762E-1,2.803330017E0
4.483865875E0,2.823071385E0,1.189879149E-1,3.210910767E-1,2.843763290E0
4.493946875E0,2.754757780E0,3.608065349E-1,3.977825725E-1,2.806617672E0
4.504027875E0,2.587491744E0,6.545770812E-1,5.147167991E-1,2.718182861E0
4.514107875E0,2.270582596E0,9.192167991E-1,5.636172098E-1,2.513596867E0
4.524188875E0,1.846328509E0,1.153767915E0,5.671629614E-1,2.249840703E0
4.534269875E0,1.306773176E0,1.312529175E0,6.256837960E-1,1.954960149E0
4.544349875E0,7.136193413E-1,1.480805025E0,7.250148337E-1,1.796575241E0
4.554430875E0,1.355992699E-1,1.527293313E0,8.311127079E-1,1.744064322E0
4.564510875E0,-3.214875180E-1,1.395776569E0,8.189570774E-1,1.649920347E0
4.574591875E0,-6.188529325E-1,1.076951289E0,6.676409304E-1,1.410158658E0
4.584672875E0,-6.601588333E-1,5.503136247E-1,5.387585033E-1,1.014354719E0
4.594752875E0,-5.863377357E-1,2.595462084E-2,3.802812713E-1,6.993421394E-1
4.604833875E0,-4.764135897E-1,-4.897955275E-1,2.852781965E-1,7.404412310E-1
4.614914875E0,-3.676606411E-1,-1.031846452E0,2.000009416E-1,1.113499809E0
4.624994875E0,-2.384553015E-1,-1.586230323E0,1.654931599E-1,1.612568000E0
4.635075875E0,-2.595058626E-1,-2.038641093E0,1.015222818E-1,2.057597524E0
4.645156875E0,-3.610953873E-1,-2.224894792E0,3.167483497E-1,2.276153824E0
4.655236875E0,-4.222116548E-1,-2.195760163E0,7.073160428E-1,2.345191113E0
4.665317875E0,-4.869344848E-1,-2.139195368E0,1.146792040E0,2.475559330E0
4.675398875E0,-6.473721421E-1,-2.013210675E0,1.546060390E0,2.619620324E0
4.685478875E0,-7.804658800E-1,-1.863700587E0,1.740850001E0,2.667033107E0
4.695559875E0,-8.337117952E-1,-1.691392497E0,1.834739766E0,2.630998659E0
4.705640875E0,-8.636255658E-1,-1.535796042E0,1.900593009E0,2.591673665E0
4.715720875E0,-9.001326567E-1,-1.449798410E0,2.017013996E0,2.642063529E0
4.725801875E0,-9.301429063E-1,-1.341500375E0,2.042090950E0,2.614368859E0
4.735881875E0,-9.638895267E-1,-1.208777350E0,2.066029451E0,2.580446356E0
4.745962875E0,-9.240530312E-1,-1.171174783E0,2.120253751E0,2.592489219E0
4.756043875E0,-8.500769824E-1,-1.118161003E0,2.143866562E0,2.563021409E0
4.766123875E0,-8.273435926E-1,-9.925642723E-1,1.988785393E0,2.371697408E0
4.776204875E0,-9.043753964E-1,-8.439365289E-1,1.728058047E0,2.125160779E0
4.786285875E0,-9.850698960E-1,-7.243185765E-1,1.390072026E0,1.851296934E0
4.796365875E0,-1.119208531E0,-5.809357855E-1,1.141116879E0,1.700665121E0
4.806446875E0,-1.177419317E0,-5.089147532E-1,1.024463757E0,1.641595707E0
4.816527875E0,-1.138896106E0,-5.429867712E-1,1.013369689E0,1.618282145E0
4.826607875E0,-1.058922569E0,-5.820932418E-1,1.060828907E0,1.607951342E0
4.836688875E0,-1.057720966E0,-6.262695408E-1,1.231184611E0,1.739770883E0
4.846769875E0,-1.092183870E0,-7.161409530E-1,1.345423710E0,1.875070247E0
4.856849875E0,-9.523377675E-1,-9.195603231E-1,1.436049121E0,1.953145025E0
4.866930875E0,-8.402881587E-1,-1.078585001E0,1.448617126E0,1.991964199E0
4.877010875E0,-1.005503576E0,-1.052963963E0,1.316397547E0,1.962822725E0
4.887091875E0,-1.186949694E0,-1.072500388E0,1.098419195E0,1.940523482E0
4.897172875E0,-1.147324868E0,-1.275716860E0,9.217987834E-1,1.947696294E0
4.907252875E0,-1.000277334E0,-1.510402754E0,8.002421866E-1,1.980469334E0
4.917333875E0,-9.137631011E-1,-1.527721037E0,6.830078517E-1,1.906670999E0
4.927414875E0,-8.545284677E-1,-1.349494103E0,6.505606288E-1,1.724697761E0
4.937494875E0,-7.304686779E-1,-1.191297684E0,7.272087090E-1,1.575311768E0
4.947575875E0,-6.420406508E-1,-1.087613979E0,8.130220073E-1,1.502040328E0
4.957656875E0,-6.876957107E-1,-1.037294010E0,8.335989439E-1,1.497929055E0
4.967736875E0,-7.905587590E-1,-9.871564749E-1,8.895765321E-1,1.546223614E0
4.977817875E0,-7.324655020E-1,-9.356506911E-1,9.411491203E-1,1.515819776E0
4.987898875E0,-6.163737130E-1,-1.021578449E0,9.775770546E-1,1.542464255E0
4.997978875E0,-6.807299227E-1,-1.196618650E0,9.788157141E-1,1.689192003E0
5.008059875E0,-7.693789744E-1,-1.287803054E0,7.687373887E-1,1.685626853E0
5.018140875E0,-7.267954570E-1,-1.350648636E0,5.693111553E-1,1.636031346E0
5.028220875E0,-5.698789930E-1,-1.423560199E0,4.457133687E-1,1.596855070E0
5.038301875E0,-3.472579515E-1,-1.546125733E0,3.824663758E-1,1.630145207E0
5.048381875E0,-1.463376814E-1,-1.600699551E0,3.362113917E-1,1.642160732E0
5.058462875E0,9.433313012E-3,-1.654873419E0,3.053754421E-1,1.682839618E0
5.068543875E0,1.352349883E-1,-1.739239970E0,3.483788627E-1,1.778935639E0
5.078623875E0,2.174140960E-1,-1.764509590E0,5.970480806E-1,1.875427789E0
5.088704875E0,-2.818942666E-3,-1.616821201E0,9.403900786E-1,1.870414992E0
5.098785875E0,-4.729760116E-1,-1.213077685E0,1.192725574E0,1.765745755E0
5.108865875E0,-9.047203821E-1,-7.259999433E-1,1.230437922E0,1.691027016E0
5.118946875E0,-1.258689768E0,-2.652393499E-1,1.218578380E0,1.771887443E0
5.129027875E0,-1.582866420E0,-3.698363900E-2,1.227413450E0,2.003341626E0
5.139107875E0,-1.785975888E0,-1.471232548E-1,1.229418460E0,2.173206128E0
5.149188875E0,-1.832840152E0,-4.380891842E-1,1.282737612E0,2.279614208E0
5.159269875E0,-1.692620997E0,-8.562618747E-1,1.361504284E0,2.334918447E0
5.169349875E0,-1.398580309E0,-1.475911490E0,1.440931546E0,2.492112624E0
5.179430875E0,-9.799348712E-1,-2.077392637E0,1.558570070E0,2.775783346E0
5.189511875E0,-6.424891323E-1,-2.325636763E0,1.535227985E0,2.859773348E0
5.199591875E0,-3.940239823E-1,-2.253993753E0,1.292654489E0,2.628059810E0
5.209672875E0,-8.852567554E-2,-1.998093283E0,9.262527537E-1,2.204122893E0
5.219752875E0,2.295739657E-1,-1.554335808E0,5.000996371E-1,1.648867386E0
5.229833875E0,5.540792316E-1,-1.050678287E0,1.897046527E-1,1.202878428E0
5.239914875E0,8.676560515E-1,-5.920177209E-1,-8.143197969E-2,1.053538406E0
5.249994875E0,1.008820117E0,-1.889972126E-1,-1.890160699E-1,1.043630705E0
5.260075875E0,8.729138678E-1,2.407795697E-1,-1.514452974E-1,9.180899193E-1
5.270156875E0,5.231462914E-1,5.438015807E-1,1.874968171E-2,7.548203441E-1
5.280236875E0,1.463224787E-1,5.780721116E-1,2.059306761E-1,6.308605847E-1
5.290317875E0,-1.391005826E-1,4.011730805E-1,3.573782393E-1,5.549847011E-1
5.300398875E0,-3.986292493E-1,1.696753809E-1,5.201190417E-1,6.769186294E-1
5.310478875E0,-6.140184546E-1,3.070519120E-2,5.713203317E-1,8.392665802E-1
5.320559875E0,-7.551503599E-1,-5.445950478E-2,5.476443708E-1,9.344154646E-1
5.330640875E0,-8.460055661E-1,-1.735436064E-1,4.929166981E-1,9.943890951E-1
5.340720875E0,-8.047762638E-1,-1.532181001E-1,4.256188273E-1,9.231966243E-1
5.350801875E0,-6.233704913E-1,-2.432821780E-2,2.859399551E-1,6.862538084E-1
5.360882875E0,-3.642645782E-1,1.664816317E-1,1.707830628E-1,4.353982903E-1
5.370962875E0,-1.980732608E-1,2.438133976E-1,1.989040770E-1,3.718075058E-1
5.381043875E0,-1.487151593E-1,2.417449450E-1,2.656746020E-1,3.887670398E-1
5.391123875E0,-1.111169779E-1,1.929584089E-1,3.615005994E-1,4.245734491E-1
5.401204875E0,-8.490858793E-2,1.706334472E-2,3.978890649E-1,4.072055182E-1
5.411285875E0,-1.220653045E-1,-2.959968737E-1,3.195455845E-1,4.523532562E-1
5.421366125E0,-2.157874006E-1,-5.370199800E-1,3.710607239E-1,6.874887068E-1
5.431447125E0,-3.192854565E-1,-5.757586607E-1,5.448867508E-1,8.546009650E-1
5.441528125E0,-3.199432683E-1,-4.920662937E-1,8.874260724E-1,1.063963329E0
5.451608125E0,-1.957928467E-1,-3.501271802E-1,1.164702281E0,1.231850350E0
5.461689125E0,-5.924457371E-2,-2.394502053E-1,1.282797253E0,1.306298248E0
5.471770125E0,1.181301284E-1,-8.892679453E-2,1.285821433E0,1.294294966E0
5.481850125E0,4.259462714E-1,1.879207402E-1,1.197143730E0,1.284483375E0
5.491931125E0,6.329815596E-1,5.596218073E-1,1.127172512E0,1.408673168E0
5.502012125E0,6.215303725E-1,7.987816983E-1,1.073581538E0,1.475442146E0
5.512092125E0,6.058726984E-1,7.487286553E-1,1.058051260E0,1.430786076E0
5.522173125E0,6.121251261E-1,4.236249268E-1,1.111156842E0,1.337469542E0
5.532254125E0,6.235266119E-1,8.199550509E-2,1.151450736E0,1.312001333E0
5.542334125E0,5.726330316E-1,-1.610027906E-1,1.311859084E0,1.440418253E0
5.552415125E0,5.478583789E-1,-2.938237560E-1,1.511166108E0,1.634045351E0
5.562496125E0,6.357239038E-1,-3.467200077E-1,1.621127676E0,1.775504037E0
5.572576125E0,7.528670222E-1,-3.237018585E-1,1.535133260E0,1.740179810E0
5.582657125E0,7.397739369E-1,-1.762403423E-1,1.244011502E0,1.458043468E0
5.592737125E0,5.693527436E-1,1.116648620E-1,9.362655258E-1,1.101464808E0
5.602818125E0,3.617432588E-1,4.774681351E-1,8.794153869E-1,1.064051422E0
5.612899125E0,-4.501771331E-3,7.709021741E-1,1.154635642E0,1.388342138E0
5.622979125E0,-4.976261187E-1,9.230075490E-1,1.621199012E0,1.930766927E0
5.633060125E0,-9.081369102E-1,1.015294738E0,1.983815260E0,2.406461934E0
5.643141125E0,-1.209907032E0,1.103152662E0,2.235720327E0,2.771148896E0
5.653221125E0,-1.315507747E0,1.011388798E0,2.116818366E0,2.689681752E0
5.663302125E0,-1.227577318E0,7.735690892E-1,1.662977952E0,2.207000425E0
5.673383125E0,-1.110851691E0,4.974343300E-1,1.301676158E0,1.782075535E0
5.683463125E0,-1.008010277E0,2.718966973E-1,1.278645730E0,1.650741481E0
5.693544125E0,-7.823492682E-1,1.296158141E-1,1.576500556E0,1.764716590E0
5.703625125E0,-6.006300849E-1,-4.204031110E-2,2.043634030E0,2.130484437E0
5.713705125E0,-3.969165999E-1,-3.666169131E-1,2.544732810E0,2.601464169E0
5.723786125E0,-2.465092564E-1,-7.311264896E-1,3.132762730E0,3.226378013E0
5.733866125E0,-2.056834120E-1,-9.665225279E-1,3.630514564E0,3.762593183E0
5.743947125E0,-2.768487042E-1,-1.061405296E0,3.954004169E0,4.103337102E0
5.754028125E0,-4.024737936E-1,-9.622645855E-1,3.889155039E0,4.026594740E0
5.764108125E0,-4.205954844E-1,-7.088889438E-1,3.506140194E0,3.601727801E0
5.774189125E0,-2.587439704E-1,-4.286184490E-1,2.935395228E0,2.977785648E0
5.784270125E0,-4.210463047E-2,-1.311378443E-1,2.539645733E0,2.543377750E0
5.794350125E0,1.478328145E-1,1.487736315E-1,2.356065381E0,2.365382044E0
5.804431125E0,3.393203562E-1,3.304156315E-1,2.345295394E0,2.392639396E0
5.814512125E0,4.045366913E-1,4.846376985E-1,2.545450848E0,2.622564328E0
5.824592125E0,3.186902100E-1,5.645790768E-1,2.958054943E0,3.028267166E0
5.834673125E0,1.996286201E-1,5.636242265E-1,3.444964870E0,3.496470622E0
5.844754125E0,4.094571233E-2,5.785626930E-1,3.803859365E0,3.847825023E0
5.854834125E0,-1.461061317E-1,6.719994450E-1,3.976221249E0,4.035252864E0
5.864915125E0,-3.007924676E-1,7.226234686E-1,4.057095258E0,4.131910299E0
5.874996125E0,-4.409250838E-1,7.091011977E-1,4.019821013E0,4.105630331E0
5.885076125E0,-5.685896820E-1,6.842581326E-1,3.892886732E0,3.993253125E0
5.895157125E0,-6.791079050E-1,7.184386164E-1,3.639938521E0,3.771802491E0
5.905237125E0,-7.094876987E-1,8.434023857E-1,3.373311335E0,3.548792716E0
5.915318125E0,-6.828834522E-1,9.067233458E-1,3.177312081E0,3.373987122E0
5.925399125E0,-6.204258335E-1,8.305557606E-1,2.902798755E0,3.082367872E0
5.935479125E0,-5.803460938E-1,6.545729882E-1,2.720355687E0,2.857551827E0
5.945560125E0,-5.359008229E-1,5.304588193E-1,2.562192596E0,2.670843902E0
5.955641125E0,-4.698056513E-1,4.822327387E-1,2.381746936E0,2.475072571E0
5.965721125E0,-4.832057154E-1,4.645530975E-1,2.343672207E0,2.437641638E0
5.975802125E0,-5.176083934E-1,4.279322782E-1,2.407654195E0,2.499568604E0
5.985883125E0,-4.777537715E-1,3.877654150E-1,2.410715212E0,2.488002918E0
5.995963125E0,-4.431522882E-1,3.601908231E-1,2.563714042E0,2.626547366E0
6.006044125E0,-3.619806558E-1,3.290359810E-1,2.574088172E0,2.620157359E0
6.016125125E0,-2.190390372E-1,2.303130537E-1,2.556203878E0,2.575888287E0
6.026205125E0,3.631705642E-2,1.221220225E-2,2.569979918E0,2.570265520E0
6.036286125E0,3.666502422E-1,-2.690894490E-1,2.575143009E0,2.614995803E0
6.046367125E0,6.425142753E-1,-4.817667156E-1,2.761355778E0,2.875762420E0
6.056447125E0,6.896527737E-1,-5.935567081E-1,3.171205834E0,3.299163069E0
6.066528125E0,5.759519112E-1,-6.231208152E-1,3.599149514E0,3.697820626E0
6.076608125E0,5.463106209E-1,-6.451028377E-1,3.962380890E0,4.051552206E0
6.086689125E0,4.527387983E-1,-5.261748567E-1,4.100197424E0,4.158539565E0
6.096770125E0,2.852692795E-1,-2.587884092E-1,3.991511718E0,4.010051845E0
6.106850125E0,1.199041736E-1,4.743904531E-2,3.645614998E0,3.647894761E0
6.116931125E0,-5.585845113E-3,2.686207947E-1,3.224378074E0,3.235552858E0
6.127012125E0,-1.220044935E-1,3.622013882E-1,2.844878576E0,2.870437084E0
6.137092125E0,-1.290147203E-1,3.007617697E-1,2.587651373E0,2.608264187E0
6.147173125E0,1.312284762E-1,1.099861264E-3,2.232790872E0,2.236644183E0
6.157254125E0,6.262753880E-1,-5.401713368E-1,1.882256141E0,2.055941175E0
6.167334125E0,1.148605408E0,-9.346657276E-1,1.635276768E0,2.206133385E0
6.177415125E0,1.481951664E0,-1.248048420E0,1.412718877E0,2.397828229E0
6.187496125E0,1.492875432E0,-1.488589716E0,1.274433396E0,2.463484702E0
6.197576125E0,1.261188283E0,-1.440296392E0,1.308584644E0,2.318931511E0
6.207657125E0,8.872336990E-1,-1.133175775E0,1.702165407E0,2.229044200E0
6.217737125E0,6.875395900E-1,-8.641243333E-1,2.125167021E0,2.394943928E0
6.227818125E0,6.008253819E-1,-5.364794049E-1,2.367769167E0,2.501026214E0
6.237899125E0,4.528621745E-1,-2.932290941E-2,2.570901439E0,2.610647083E0
6.247979125E0,1.954186249E-1,5.105309236E-1,2.740371290E0,2.794363089E0
6.258060125E0,-2.418911254E-1,9.581627637E-1,2.762274960E0,2.933726326E0
6.268141125E0,-7.159892178E-1,1.222257521E0,2.544028805E0,2.911809845E0
6.278221125E0,-1.169499264E0,1.290244559E0,2.247945685E0,2.843539934E0
6.288302125E0,-1.422235805E0,1.374272557E0,1.927217721E0,2.761439459E0
6.298383125E0,-1.456624449E0,1.455876883E0,1.625347027E0,2.623563463E0
6.308463125E0,-1.274897665E0,1.326299076E0,1.173906310E0,2.182312837E0
6.318544125E0,-8.959478045E-1,1.081650111E0,6.433100814E-1,1.544842158E0
6.328625125E0,-3.918113959E-1,7.694602507E-1,1.501910331E-1,8.764374443E-1
6.338705125E0,1.637056661E-1,3.929597890E-1,-2.653472310E-1,5.016234583E-1
6.348786125E0,6.852258468E-1,-5.917440712E-2,-5.812699904E-1,9.005058985E-1
6.358867125E0,1.197450124E0,-5.738901830E-1,-7.974619818E-1,1.548929422E0
6.368947125E0,1.584466218E0,-9.725299573E-1,-1.002378239E0,2.112133956E0
6.379028125E0,1.700048130E0,-1.190821720E0,-1.182629771E0,2.388897903E0
6.389108125E0,1.603780741E0,-1.345537877E0,-1.292253370E0,2.460183655E0
6.399189125E0,1.339947939E0,-1.507966804E0,-1.175527743E0,2.334799742E0
6.409270125E0,1.214958442E0,-1.807181108E0,-9.535843939E-1,2.377256984E0
6.419349625E0,1.045919530E0,-2.128425674E0,-5.489336453E-1,2.434229172E0
6.429430625E0,7.000625718E-1,-2.349881073E0,-9.787033014E-3,2.451963386E0
6.439511625E0,3.052135473E-1,-2.528765234E0,1.697680593E-1,2.552769106E0
6.449591625E0,-1.530906308E-1,-2.763152920E0,2.606641960E-1,2.779639657E0
6.459672625E0,-5.790784174E-1,-3.027509340E0,3.184686005E-1,3.098800876E0
6.469753625E0,-9.521272677E-1,-3.181397823E0,4.236243786E-1,3.347729986E0
6.479833625E0,-1.298926213E0,-3.243664531E0,4.577358288E-1,3.523931183E0
6.489914625E0,-1.579146422E0,-3.194307891E0,5.156764368E-1,3.600448376E0
6.499995625E0,-1.703971612E0,-3.152828620E0,5.526016037E-1,3.626184785E0
6.510075625E0,-1.656656528E0,-3.077709441E0,5.634189526E-1,3.540373874E0
6.520156625E0,-1.569329531E0,-3.072908292E0,4.754733574E-1,3.483049736E0
6.530237625E0,-1.469772499E0,-3.021312169E0,3.486934429E-1,3.377890693E0
6.540317625E0,-1.439605544E0,-2.844004125E0,1.910174257E-1,3.193322915E0
6.550398625E0,-1.494215614E0,-2.560232025E0,-2.360524613E-2,2.964460411E0
6.560478625E0,-1.513869860E0,-2.309756310E0,-2.757559327E-1,2.775395017E0
6.570559625E0,-1.558706310E0,-2.088473403E0,-6.485100102E-1,2.685489108E0
6.580640625E0,-1.666407344E0,-1.936619459E0,-1.106121951E0,2.784046360E0
6.590720625E0,-1.760346372E0,-1.793069584E0,-1.564162931E0,2.959818163E0
6.600801625E0,-1.803164363E0,-1.668198346E0,-1.918973147E0,3.117169450E0
6.610882625E0,-1.811401920E0,-1.604173966E0,-1.934170060E0,3.097670875E0
6.620962625E0,-1.816623484E0,-1.603153920E0,-1.761748534E0,2.995660406E0
6.631043625E0,-1.648578599E0,-1.536957006E0,-1.467753601E0,2.689674492E0
6.641124625E0,-1.386753731E0,-1.317133565E0,-1.075377291E0,2.194165686E0
6.651204625E0,-1.238397006E0,-9.986050308E-1,-7.840660107E-1,1.773583565E0
6.661285625E0,-1.070918716E0,-6.327599502E-1,-6.826688594E-1,1.418904092E0
6.671366625E0,-8.374774021E-1,-2.653523473E-1,-6.832197402E-1,1.112910365E0
6.681446625E0,-6.308303690E-1,5.875048399E-2,-8.022287051E-1,1.022237482E0
6.691527625E0,-5.450862139E-1,3.683009112E-1,-1.077046013E0,1.262058896E0
6.701607625E0,-6.380119193E-1,6.306227928E-1,-1.392630621E0,1.656551950E0
6.711688625E0,-7.122060692E-1,8.571538675E-1,-1.573110926E0,1.927855861E0
6.721769625E0,-5.406721509E-1,1.113204026E0,-1.526465347E0,1.965107130E0
6.731849625E0,-2.381986088E-1,1.305788505E0,-1.124512029E0,1.739640624E0
6.741930625E0,-7.957300365E-2,1.460199876E0,-5.325212053E-1,1.556307930E0
6.752011625E0,2.107394993E-2,1.617997223E0,-1.359150926E-1,1.623832515E0
6.762091625E0,4.930840015E-2,1.771740257E0,2.716791809E-2,1.772634466E0
6.772172625E0,-3.759174943E-2,1.808063745E0,1.468884160E-1,1.814410056E0
6.782253625E0,-4.823251247E-2,1.739217166E0,1.840399432E-1,1.749592360E0
6.792333625E0,2.230069578E-2,1.514274634E0,6.580215298E-2,1.515867709E0
6.802414625E0,1.298140347E-1,1.229717107E0,-6.736007050E-2,1.238383311E0
6.812495625E0,2.470483696E-1,1.046151957E0,-1.639103186E-1,1.087351556E0
6.822575625E0,2.618716460E-1,1.022025176E0,-2.052138805E-1,1.074813917E0
6.832656625E0,3.226002431E-1,1.124009095E0,-1.795106169E-1,1.183085553E0
6.842737625E0,4.281693828E-1,1.252936108E0,-1.582017551E-1,1.333493796E0
6.852817625E0,5.692439854E-1,1.374792374E0,-1.266514219E-2,1.488036691E0
6.862898625E0,8.456892318E-1,1.696152130E0,1.168396479E-1,1.898887524E0
6.872978625E0,1.102831650E0,1.959096740E0,1.992790297E-1,2.256991320E0
6.883059625E0,1.329958556E0,2.097722237E0,2.462986835E-1,2.495975037E0
6.893140625E0,1.522402117E0,2.080285840E0,2.900557371E-1,2.594114437E0
6.903220625E0,1.660756595E0,1.982204644E0,2.057260235E-1,2.594141653E0
6.913301625E0,1.646748421E0,1.855309540E0,2.792682090E-1,2.496386305E0
6.923382625E0,1.686607136E0,1.858147486E0,1.672245204E-1,2.515018837E0
6.933462625E0,1.603276126E0,1.827342892E0,2.664868534E-2,2.431128655E0
6.943543625E0,1.408997124E0,1.816958822E0,-2.520270545E-2,2.299401538E0
6.953624625E0,1.273646945E0,1.842596523E0,5.603503704E-2,2.240642411E0
6.963704625E0,1.440702481E0,1.569389758E0,2.001326501E-1,2.139780579E0
6.973785625E0,1.851926633E0,9.951297382E-1,3.558901960E-1,2.132269514E0
6.983866625E0,2.221394064E0,3.652545118E-1,5.664583353E-1,2.321395591E0
6.993946625E0,2.416119209E0,-6.157965928E-2,7.636007559E-1,2.534661753E0
7.004027625E0,2.448598738E0,-2.501699057E-1,9.371811998E-1,2.633729174E0
7.014108625E0,2.354246897E0,-1.244319651E-1,1.106138835E0,2.604132271E0
7.024188625E0,2.293113087E0,3.210068768E-1,1.117292472E0,2.570944479E0
7.034269625E0,2.228308981E0,9.098159382E-1,1.032285578E0,2.618919523E0
7.044349625E0,2.040060212E0,1.428207859E0,9.336125710E-1,2.659559322E0
7.054430625E0,1.640669070E0,1.879134312E0,8.964108308E-1,2.650753316E0
7.064511625E0,1.089925675E0,2.267047954E0,7.468122303E-1,2.623961302E0
7.074591625E0,4.765393049E-1,2.543406954E0,5.152811285E-1,2.638469876E0
7.084672625E0,-1.045014381E-1,2.578321556E0,1.672239357E-1,2.585851202E0
7.094753625E0,-5.255658692E-1,2.357960756E0,-2.952248219E-1,2.433794589E0
7.104833625E0,-7.381571817E-1,1.876482015E0,-7.369211534E-1,2.146884618E0
7.114914625E0,-7.542300081E-1,1.200416124E0,-1.052250896E0,1.765529304E0
7.124995625E0,-5.221563578E-1,3.547277695E-1,-1.007141966E0,1.188618522E0
7.135075625E0,-3.140633082E-1,-5.583231407E-1,-7.741708408E-1,1.004838784E0
7.145156625E0,-1.098972487E-1,-1.382539350E0,-5.200682440E-1,1.481203375E0
7.155237625E0,2.140642262E-1,-2.076971638E0,-1.562445458E-1,2.093811605E0
7.165317625E0,4.174233699E-1,-2.480752869E0,2.878752373E-1,2.532044474E0
7.175398625E0,4.435504836E-1,-2.412851200E0,6.590542942E-1,2.540263866E0
7.185478625E0,4.440474969E-1,-2.009412908E0,9.010781515E-1,2.246521812E0
7.195559625E0,5.149771464E-1,-1.452219742E0,1.111795431E0,1.900061241E0
7.205640625E0,7.167932099E-1,-9.079834208E-1,1.475098143E0,1.874604206E0
7.215720625E0,1.032164540E0,-5.194397414E-1,1.890065682E0,2.215294465E0
7.225801625E0,1.332193946E0,-3.207908222E-1,2.325737042E0,2.699388866E0
7.235882625E0,1.503273536E0,-2.516855040E-1,2.773399873E0,3.164636436E0
7.245962625E0,1.461071842E0,-4.003696731E-1,3.255686406E0,3.590894147E0
7.256043625E0,1.162208955E0,-5.397184700E-1,3.611308215E0,3.831915018E0
7.266124625E0,7.177036214E-1,-5.457919729E-1,3.710024418E0,3.818018929E0
7.276204625E0,2.288676220E-1,-4.774254504E-1,3.786734040E0,3.823567724E0
7.286285625E0,-2.203336108E-1,-5.065308434E-1,3.881647214E0,3.920753179E0
7.296366625E0,-5.297858047E-1,-6.455884489E-1,3.847920474E0,3.937505482E0
7.306446625E0,-7.420432413E-1,-8.418578437E-1,3.622952360E0,3.792774262E0
7.316527625E0,-9.155505949E-1,-9.118126161E-1,3.474972196E0,3.707434005E0
7.326608625E0,-1.059983838E0,-9.543492097E-1,3.485625823E0,3.766156599E0
7.336688625E0,-1.155347832E0,-1.100504750E0,3.547920889E0,3.890203330E0
7.346769625E0,-1.185334693E0,-1.392757067E0,3.566414462E0,4.008004828E0
7.356849625E0,-1.192677627E0,-1.714758848E0,3.545803027E0,4.115288196E0
7.366930625E0,-1.296638782E0,-2.001281185E0,3.409186342E0,4.160402628E0
7.377011625E0,-1.533214788E0,-2.283053830E0,3.141021338E0,4.174817052E0
7.387091625E0,-1.864768288E0,-2.638995774E0,2.793003248E0,4.271127088E0
7.397172625E0,-2.185074669E0,-3.009297895E0,2.429197676E0,4.442007032E0
7.407253625E0,-2.530312407E0,-3.106960722E0,2.165142680E0,4.554506409E0
7.417333625E0,-2.836615875E0,-3.014961215E0,1.980643730E0,4.589044600E0
7.427415000E0,-2.938188443E0,-2.909163449E0,1.828398607E0,4.520976086E0
7.437496000E0,-2.743185555E0,-2.890773956E0,1.645836840E0,4.311660928E0
7.447576000E0,-2.411045580E0,-2.823559628E0,1.435120729E0,3.980603128E0
7.457657000E0,-2.161058400E0,-2.750070067E0,1.216996781E0,3.703260718E0
7.467738000E0,-2.004073523E0,-2.729556865E0,1.014132897E0,3.534863066E0
7.477818000E0,-1.892541393E0,-2.799460913E0,8.292579710E-1,3.479419939E0
7.487899000E0,-1.817327489E0,-2.947859738E0,5.848484864E-1,3.512065487E0
7.497980000E0,-1.658211887E0,-3.199459580E0,2.717937863E-1,3.613873286E0
7.508060000E0,-1.464895921E0,-3.515461240E0,-6.999080591E-3,3.808469086E0
7.518141000E0,-1.189345883E0,-3.788569481E0,-2.407783638E-1,3.978162460E0
7.528221000E0,-9.224538177E-1,-3.953099312E0,-4.583749660E-1,4.085097652E0
7.538302000E0,-7.769388396E-1,-3.962713596E0,-6.721737651E-1,4.093720872E0
7.548383000E0,-6.749867874E-1,-3.836024898E0,-9.013553826E-1,3.997891408E0
7.558463000E0,-5.616923064E-1,-3.563168673E0,-1.092334728E0,3.768934120E0
7.568544000E0,-3.866863114E-1,-3.338924152E0,-1.226205561E0,3.577921306E0
7.578625000E0,-2.013728446E-1,-3.300698857E0,-1.264385540E0,3.540315630E0
7.588705000E0,-1.121800017E-1,-3.441691306E0,-1.236518295E0,3.658797739E0
7.598786000E0,-1.211279958E-1,-3.557065934E0,-1.129167509E0,3.733953577E0
7.608867000E0,-1.778518349E-1,-3.602096511E0,-1.050003226E0,3.756226474E0
7.618947000E0,-3.235580170E-1,-3.586463395E0,-1.009409516E0,3.739828478E0
7.629028000E0,-4.351269847E-1,-3.388209456E0,-1.063649458E0,3.577799460E0
7.639109000E0,-5.532892728E-1,-3.167730249E0,-1.100838334E0,3.398895260E0
7.649189000E0,-6.394836634E-1,-2.923693196E0,-1.212040097E0,3.228925898E0
7.659270000E0,-5.436483836E-1,-2.610900487E0,-1.360332502E0,2.993803507E0
7.669350000E0,-2.343786228E-1,-2.250780269E0,-1.617664955E0,2.781687449E0
7.679431000E0,1.678472489E-1,-1.980631597E0,-1.766160259E0,2.659021678E0
7.689512000E0,6.155860931E-1,-1.821517019E0,-1.843613647E0,2.663790864E0
7.699592000E0,8.788271570E-1,-1.626249544E0,-1.900656159E0,2.651323931E0
7.709673000E0,7.919509810E-1,-1.237221277E0,-1.890035276E0,2.393770288E0
7.719754000E0,3.370504671E-1,-6.857898107E-1,-1.784609978E0,1.941325180E0
7.729834000E0,-1.959355187E-1,-9.103018418E-2,-1.627979443E0,1.642252809E0
7.739915000E0,-7.614752930E-1,4.291593164E-1,-1.368965331E0,1.624219326E0
7.749996000E0,-1.214480140E0,7.922873421E-1,-1.065017852E0,1.799150985E0
7.760076000E0,-1.556272699E0,1.016725260E0,-7.718406522E-1,2.012822138E0
7.770157000E0,-1.704289700E0,1.021762051E0,-5.682669888E-1,2.066767632E0
7.780238000E0,-1.589494824E0,6.564095986E-1,-4.542468683E-1,1.778681414E0
7.790318000E0,-1.290073528E0,-9.649455339E-2,-3.585554300E-1,1.342446611E0
7.800399000E0,-8.230096364E-1,-9.350969598E-1,-3.308851629E-1,1.288889513E0
7.810480000E0,-3.091446304E-1,-1.735361804E0,-3.787522244E-1,1.802915484E0
7.820560000E0,6.439538598E-2,-2.450054694E0,-3.585652971E-1,2.476990885E0
7.830641000E0,2.871304482E-1,-2.792098684E0,-2.632129242E-1,2.819138166E0
7.840722000E0,3.869359875E-1,-2.751761374E0,-1.834540522E-1,2.784881597E0
7.850802000E0,4.007634830E-1,-2.358315682E0,-1.316915026E-1,2.395747665E0
7.860883000E0,4.593490756E-1,-1.729605221E0,-1.206397533E-2,1.789603680E0
7.870963000E0,6.374254435E-1,-1.042705608E0,2.645396575E-1,1.250410897E0
7.881044000E0,8.522006911E-1,-3.929919487E-1,7.123820704E-1,1.178209194E0
7.891125000E0,9.476886463E-1,1.107281381E-1,1.124096804E0,1.474438237E0
7.901205000E0,8.652300417E-1,4.827627888E-1,1.421269845E0,1.732538862E0
7.911286000E0,6.919261712E-1,7.371707565E-1,1.651010456E0,1.935979875E0
7.921367000E0,4.563897997E-1,8.747814685E-1,1.921029028E0,2.159603388E0
7.931447000E0,2.362222499E-1,9.213106871E-1,2.106433711E0,2.311206895E0
7.941528000E0,6.552974582E-2,9.510051870E-1,2.231878706E0,2.426929660E0
7.951609000E0,-5.833416224E-2,8.158643389E-1,2.323701042E0,2.463457738E0
7.961689000E0,-8.234926164E-2,6.317197305E-1,2.314882271E0,2.400943804E0
7.971770000E0,-7.915902078E-2,5.975728682E-1,2.196522932E0,2.277734066E0
7.981851000E0,5.246004939E-2,6.593574724E-1,2.067327533E0,2.170563858E0
7.991931000E0,3.717215323E-1,6.951430169E-1,1.984274851E0,2.135122338E0
8.002012000E0,6.758346337E-1,7.063652855E-1,2.044076664E0,2.265822980E0
8.012093000E0,9.309340346E-1,8.245804909E-1,2.199186924E0,2.526458843E0
8.022173000E0,1.085437353E0,1.058803578E0,2.409121846E0,2.846595744E0
8.032254000E0,1.139503047E0,1.267416737E0,2.567409482E0,3.081623570E0
8.042335000E0,1.063482812E0,1.399699174E0,2.698184799E0,3.220303507E0
8.052415000E0,9.827099597E-1,1.559944458E0,2.752541100E0,3.312948549E0
8.062496000E0,8.922985572E-1,1.816719963E0,2.727501569E0,3.396458883E0
8.072577000E0,7.558543646E-1,2.096647226E0,2.661806347E0,3.471665082E0
8.082657000E0,6.098669314E-1,2.417151242E0,2.530787201E0,3.552385348E0
8.092738000E0,5.412288058E-1,2.690929574E0,2.393019199E0,3.641506759E0
8.102819000E0,7.009267902E-1,2.942608353E0,2.254844230E0,3.772872220E0
8.112899000E0,1.023600124E0,3.148954255E0,2.143149548E0,3.944205889E0
8.122980000E0,1.304634265E0,3.254938547E0,2.067734499E0,4.070899344E0
8.133061000E0,1.612353929E0,3.412119890E0,1.978421203E0,4.261032480E0
8.143141000E0,1.858094861E0,3.620998220E0,1.986852304E0,4.528987381E0
8.153222000E0,2.021182476E0,3.809079174E0,2.013440763E0,4.759013182E0
8.163302000E0,2.044211150E0,3.962966781E0,1.978529962E0,4.878369168E0
8.173383000E0,2.105553120E0,4.098494714E0,1.847458776E0,4.964284117E0
8.183464000E0,2.106264142E0,4.187906828E0,1.800875763E0,5.021759228E0
8.193544000E0,1.963029578E0,4.146502109E0,1.795209226E0,4.926432891E0
8.203625000E0,1.810490339E0,3.985125389E0,1.787511367E0,4.728033050E0
8.213706000E0,1.673835062E0,3.783864811E0,1.768649418E0,4.499719712E0
8.223786000E0,1.398707194E0,3.533343195E0,1.827798682E0,4.216840520E0
8.233867000E0,1.091883908E0,3.222862476E0,1.844055111E0,3.870347822E0
8.243948000E0,8.121718222E-1,2.957214113E0,1.889120187E0,3.601876381E0
8.254028000E0,6.401286113E-1,2.739575484E0,1.838659301E0,3.360908582E0
8.264109000E0,6.613037181E-1,2.578520946E0,1.733170853E0,3.176471955E0
8.274190000E0,9.734836382E-1,2.364694701E0,1.596825478E0,3.014847099E0
8.284270000E0,1.409959576E0,2.116683295E0,1.431556267E0,2.918507756E0
8.294351000E0,1.837051901E0,1.883637838E0,1.199074627E0,2.891475601E0
8.304432000E0,2.090055075E0,1.612902398E0,1.041861709E0,2.838179026E0
8.314512000E0,2.170339100E0,1.326980569E0,9.597643161E-1,2.718896243E0
8.324593000E0,2.101950651E0,1.097729369E0,1.050812627E0,2.593725792E0
8.334674000E0,1.874461218E0,8.451208824E-1,1.348725779E0,2.459043592E0
8.344754000E0,1.576206442E0,7.441616875E-1,1.524987756E0,2.315985971E0
8.354835000E0,1.397043076E0,6.873074555E-1,1.580474909E0,2.218563011E0
8.364916000E0,1.501911135E0,4.677778369E-1,1.579628963E0,2.229300523E0
8.374996000E0,1.732490237E0,1.162905943E-1,1.542145826E0,2.322339267E0
8.385077000E0,1.996137097E0,-2.518372393E-1,1.598616334E0,2.569739187E0
8.395158000E0,2.174384789E0,-5.260301381E-1,1.758189773E0,2.845327432E0
8.405238000E0,2.157589831E0,-7.445364940E-1,1.937846058E0,2.994123547E0
8.415319000E0,2.000230148E0,-8.800825542E-1,2.179018707E0,3.086031185E0
8.425398625E0,1.692170761E0,-9.635196903E-1,2.333106142E0,3.038946585E0
8.435479625E0,1.200562012E0,-9.422326094E-1,2.333850493E0,2.788549723E0
8.445560625E0,6.024959314E-1,-9.064353704E-1,2.173066242E0,2.430399827E0
8.455640625E0,6.206527054E-2,-9.033842933E-1,1.982965659E0,2.179933046E0
8.465721625E0,-3.725062287E-1,-1.021834849E0,1.835492449E0,2.133527567E0
8.475802625E0,-6.991164923E-1,-1.209180808E0,1.827972345E0,2.300514071E0
8.485882625E0,-8.897257823E-1,-1.288583658E0,1.849688904E0,2.423511678E0
8.495963625E0,-1.052481276E0,-1.305987018E0,1.796646910E0,2.457897282E0
8.506044625E0,-1.274021167E0,-1.329548666E0,1.672700556E0,2.487721194E0
8.516124625E0,-1.506867819E0,-1.364868480E0,1.509671413E0,2.532316009E0
8.526205625E0,-1.785979396E0,-1.388431589E0,1.275688062E0,2.597083886E0
8.536286625E0,-2.025797684E0,-1.272340677E0,9.711997157E-1,2.581847389E0
8.546366625E0,-2.075039425E0,-1.167787199E0,6.543689203E-1,2.469355026E0
8.556447625E0,-1.970373681E0,-1.097111611E0,3.927772097E-1,2.289170213E0
8.566528625E0,-1.669145011E0,-1.094505215E0,2.672844136E-1,2.013809249E0
8.576608625E0,-1.238281816E0,-1.074800975E0,2.398883079E-1,1.657131676E0
8.586689625E0,-1.076117476E0,-1.045388896E0,4.336059777E-1,1.561691682E0
8.596770625E0,-1.195556796E0,-1.109600094E0,5.882399811E-1,1.733953487E0
8.606850625E0,-1.376058589E0,-1.324698985E0,7.439038253E-1,2.049818905E0
8.616931625E0,-1.661096903E0,-1.534261148E0,9.140360199E-1,2.438987912E0
8.627012625E0,-1.936507192E0,-1.598096663E0,1.047103592E0,2.720367435E0
8.637092625E0,-2.095618701E0,-1.521235890E0,1.044240356E0,2.792170177E0
8.647173625E0,-2.135737032E0,-1.422907358E0,9.972898458E-1,2.753293492E0
8.657253625E0,-2.117199020E0,-1.281230784E0,8.931858721E-1,2.630943750E0
8.667334625E0,-1.998124566E0,-1.182602289E0,6.428170149E-1,2.409203950E0
8.677415625E0,-1.848238794E0,-1.076941641E0,3.299231498E-1,2.164402740E0
8.687495625E0,-1.813823837E0,-9.564743802E-1,1.922352545E-1,2.059552025E0
8.697576625E0,-1.900225219E0,-8.529105431E-1,1.960337520E-1,2.092066325E0
8.707657625E0,-1.968862760E0,-8.225485834E-1,3.212669317E-1,2.157827422E0
8.717737625E0,-1.882043887E0,-8.931373402E-1,5.623371812E-1,2.157778164E0
8.727818625E0,-1.631456782E0,-9.785525894E-1,8.999215722E-1,2.104536823E0
8.737899625E0,-1.462872784E0,-1.048806301E0,1.381506439E0,2.269041974E0
8.747979625E0,-1.501001893E0,-1.207780692E0,1.706392944E0,2.573619584E0
8.758060625E0,-1.495838217E0,-1.431601875E0,1.838907807E0,2.769223325E0
8.768141625E0,-1.371139326E0,-1.662087714E0,1.832032359E0,2.828232873E0
8.778221625E0,-9.630837804E-1,-1.793301280E0,1.629417273E0,2.607385759E0
8.788302625E0,-2.484136945E-1,-1.742021491E0,1.267929538E0,2.168869187E0
8.798383625E0,4.825753856E-1,-1.507153164E0,8.789809388E-1,1.810247815E0
8.808463625E0,9.606133318E-1,-1.038892054E0,4.792372102E-1,1.493901930E0
8.818544625E0,1.243048466E0,-4.441767204E-1,1.227944523E-1,1.325722793E0
8.828625625E0,1.505701885E0,-3.683307320E-2,4.372657500E-2,1.506786931E0
8.838705625E0,1.705029373E0,-8.028256327E-2,8.694334589E-2,1.709131241E0
8.848786625E0,1.692107027E0,-4.086341277E-1,1.113320824E-1,1.744305843E0
8.858867625E0,1.457995622E0,-9.294213599E-1,1.193381631E-1,1.733152300E0
8.868947625E0,1.153410650E0,-1.445915566E0,1.952923981E-1,1.859883618E0
8.879028625E0,9.032462990E-1,-1.902608544E0,2.148120850E-1,2.117053939E0
8.889108625E0,6.512523544E-1,-2.321092014E0,1.067648953E-1,2.413088583E0
8.899189625E0,4.217497247E-1,-2.573064617E0,-2.619479522E-3,2.607401237E0
8.909270625E0,3.585892707E-1,-2.645409585E0,-4.902305603E-2,2.670052695E0
8.919350625E0,5.087469381E-1,-2.640308474E0,-5.689340830E-4,2.688875714E0
8.929431625E0,4.331406856E-1,-2.709672531E0,1.239059349E-1,2.746868901E0
8.939512625E0,1.170764601E-1,-2.794308931E0,2.305557132E-2,2.796855531E0
8.949592625E0,-2.395803058E-1,-2.865624205E0,-2.748179662E-1,2.888723891E0
8.959673625E0,-3.333047408E-1,-2.805550496E0,-6.362818012E-1,2.896042155E0
8.969754625E0,-1.472159332E-1,-2.651202421E0,-8.846275219E-1,2.798769848E0
8.979834625E0,1.588805437E-1,-2.455708660E0,-9.200237149E-1,2.627202254E0
8.989915625E0,4.383669269E-1,-2.148601784E0,-7.331565698E-1,2.312179436E0
8.999996625E0,5.991647726E-1,-1.723974644E0,-3.984842749E-1,1.868121173E0
9.010076625E0,5.803735757E-1,-1.299116247E0,5.904160224E-2,1.424086522E0
9.020157625E0,2.393417394E-1,-1.005698873E0,3.708655000E-1,1.098296822E0
9.030238625E0,-1.742628139E-1,-8.803816393E-1,5.508509473E-1,1.053031873E0
9.040318625E0,-4.383587408E-1,-1.041627382E0,8.645698911E-1,1.422893912E0
9.050399625E0,-5.577571303E-1,-1.200563474E0,1.334475530E0,1.879699607E0
9.060480625E0,-6.713410485E-1,-9.846304777E-1,1.727865089E0,2.098979216E0
9.070560625E0,-9.198208165E-1,-3.731959078E-1,1.865917266E0,2.113526145E0
9.080641625E0,-1.076520934E0,5.467605641E-1,1.738850253E0,2.116942285E0
9.090722625E0,-9.015851051E-1,1.471218807E0,1.391298187E0,2.216540351E0
9.100802625E0,-4.952843088E-1,2.197516082E0,1.037234076E0,2.479967339E0
9.110883625E0,5.038077950E-2,2.741096930E0,6.889540315E-1,2.826801772E0
9.120963625E0,6.763281387E-1,3.130210713E0,3.255858314E-1,3.218950915E0
9.131044625E0,1.166754581E0,3.316401262E0,-1.786277787E-1,3.520190544E0
9.141125625E0,1.600785213E0,3.273886157E0,-7.144631676E-1,3.713664159E0
9.151205625E0,1.754409109E0,3.062764542E0,-1.113191746E0,3.701036858E0
9.161286625E0,1.683574769E0,2.811344209E0,-1.268071041E0,3.513699536E0
9.171367625E0,1.441771352E0,2.503668692E0,-1.298277757E0,3.167425877E0
9.181447625E0,1.110668088E0,2.263319770E0,-1.013299668E0,2.717163263E0
9.191528625E0,7.682440299E-1,2.138115680E0,-4.936406565E-1,2.324955623E0
9.201609625E0,5.349214143E-1,2.066937816E0,6.603024920E-2,2.136055441E0
9.211689625E0,4.232559675E-1,2.012726525E0,4.666013771E-1,2.109011741E0
9.221770625E0,3.302326137E-1,1.930792416E0,5.281392288E-1,2.028778938E0
9.231851625E0,1.875535351E-1,1.726578702E0,3.116881692E-1,1.764482886E0
9.241931625E0,6.655300856E-2,1.457809095E0,-8.219431043E-3,1.459350616E0
9.252012625E0,2.333214462E-2,1.212218144E0,-3.275604361E-1,1.255911246E0
9.262093625E0,-1.088400722E-1,9.010968626E-1,-5.696386359E-1,1.071592223E0
9.272173625E0,-2.385219598E-1,7.256727916E-1,-7.565110070E-1,1.075082615E0
9.282254625E0,-2.509537250E-1,6.861850825E-1,-7.528348625E-1,1.049089162E0
9.292335625E0,-1.148831695E-1,8.256932160E-1,-5.593803904E-1,1.003929206E0
9.302415625E0,1.192925549E-1,9.820144334E-1,-3.757959088E-1,1.058208687E0
9.312496625E0,2.274180973E-1,1.026315863E0,-3.015555292E-1,1.093608238E0
9.322576625E0,1.032407784E-1,8.855786446E-1,-2.643092772E-1,9.299288081E-1
9.332657625E0,-1.051563263E-2,7.093517509E-1,-1.927885838E-1,7.351584340E-1
9.342738625E0,2.357310838E-1,5.486699724E-1,1.114806747E-1,6.074831877E-1
9.352818625E0,5.768020964E-1,3.753669789E-1,5.785492079E-1,8.990663008E-1
9.362899625E0,7.060887122E-1,1.946172640E-1,7.933554822E-1,1.079745373E0
9.372980625E0,7.710875309E-1,2.316725314E-2,7.323719466E-1,1.063711131E0
9.383060625E0,7.711319697E-1,-1.165879253E-1,4.939693431E-1,9.231700661E-1
9.393141625E0,7.512397420E-1,-1.014664409E-1,3.532056662E-1,8.363078567E-1
9.403222625E0,8.712076503E-1,-1.679758877E-2,4.033501451E-1,9.601959532E-1
9.413302625E0,9.720481467E-1,6.519119203E-2,2.719973425E-1,1.011489024E0
9.423383750E0,8.401887560E-1,1.825851560E-2,-2.262492388E-1,8.703098512E-1
9.433464750E0,5.724447513E-1,5.062402368E-2,-6.586059590E-1,8.740809998E-1
9.443544750E0,3.662023455E-1,2.461183700E-1,-9.045818762E-1,1.006452572E0
9.453625750E0,2.165814525E-1,3.493775672E-1,-7.619770572E-1,8.657836022E-1
9.463706750E0,-6.386328936E-3,2.272093517E-1,-4.856254394E-1,5.361874132E-1
9.473786750E0,-3.867833751E-1,-8.666918457E-2,-3.730909503E-1,5.443434431E-1
9.483867750E0,-8.108509362E-1,-4.162834552E-1,-2.769358277E-1,9.526093682E-1
9.493947750E0,-1.269083778E0,-6.578591233E-1,-1.647710288E-1,1.438923818E0
9.504028750E0,-1.666907866E0,-7.082460424E-1,-1.252533527E-1,1.815456607E0
9.514109750E0,-1.951101258E0,-5.983236507E-1,-1.170108251E-1,2.044132785E0
9.524189750E0,-2.099727539E0,-3.944332874E-1,-1.505552781E-1,2.141751678E0
9.534270750E0,-2.018972813E0,-5.466532677E-2,-2.070903982E-1,2.030301936E0
9.544351750E0,-1.847965729E0,1.889931196E-1,-2.459685351E-1,1.873818629E0
9.554431750E0,-1.822627990E0,3.526870912E-1,-4.181215274E-1,1.902941561E0
9.564512750E0,-1.982785565E0,4.291084456E-1,-8.145873070E-1,2.186121025E0
9.574593750E0,-2.141060337E0,4.006880540E-1,-1.290563379E0,2.531845991E0
9.584673750E0,-2.180224988E0,2.937205526E-1,-1.603339715E0,2.722195989E0
9.594754750E0,-2.106755893E0,-3.411207139E-2,-1.736754173E0,2.730549227E0
9.604835750E0,-1.848445786E0,-4.857347824E-1,-1.698993585E0,2.557199504E0
9.614915750E0,-1.498465371E0,-7.560192561E-1,-1.634262861E0,2.342600837E0
9.624996750E0,-1.045172256E0,-7.590750110E-1,-1.517554775E0,1.992875414E0
9.635077750E0,-6.358893800E-1,-6.124806368E-1,-1.565565094E0,1.797354138E0
9.645157750E0,-3.184218228E-1,-3.173161143E-1,-1.675123204E0,1.734393186E0
9.655238750E0,-2.078158915E-2,5.869961321E-2,-1.612836178E0,1.614037811E0
9.665319750E0,4.009482551E-1,4.076965266E-1,-1.599864276E0,1.698982538E0
9.675399750E0,9.739397210E-1,7.611519420E-1,-1.677865694E0,2.084021148E0
9.685480750E0,1.604631511E0,1.097942793E0,-1.735492343E0,2.606195376E0
9.695560750E0,2.245791571E0,1.150303439E0,-1.795246210E0,3.096721934E0
9.705641750E0,2.868891921E0,6.945851925E-1,-1.724156931E0,3.418436275E0
9.715722750E0,3.402615826E0,2.951069275E-1,-1.477880248E0,3.721426149E0
9.725802750E0,3.993450655E0,4.645273697E-1,-1.110894668E0,4.171033538E0
9.735883750E0,4.497137997E0,1.009398114E0,-6.780086285E-1,4.658629672E0
9.745964750E0,4.628245436E0,1.773365490E0,-3.622693621E-1,4.969579466E0
9.756044750E0,4.497117532E0,2.496375460E0,-1.597940250E-1,5.146016971E0
9.766125750E0,4.222546903E0,3.180585060E0,-9.959372386E-2,5.287337949E0
9.776206750E0,4.213985410E0,3.711542355E0,4.105081603E-2,5.615594791E0
9.786286750E0,4.190204199E0,3.876172466E0,3.849624791E-1,5.721076850E0
9.796367750E0,3.615984233E0,3.564604164E0,6.960851495E-1,5.125063839E0
9.806448750E0,2.673947505E0,2.999003871E0,9.508180030E-1,4.128931382E0
9.816528750E0,1.719295995E0,2.384286382E0,1.131361969E0,3.149727000E0
9.826609750E0,1.020573020E0,1.800655907E0,1.168219308E0,2.376692521E0
9.836690750E0,4.857451612E-1,1.433454273E0,1.380244026E0,2.048368396E0
9.846770750E0,2.379541951E-1,1.330805817E0,1.698502711E0,2.170847250E0
9.856851750E0,1.733570802E-1,1.385420566E0,1.992127662E0,2.432697154E0
9.866931750E0,2.736263037E-1,1.322606851E0,1.880762762E0,2.315475935E0
9.877012750E0,4.697816777E-1,1.234275011E0,1.415594683E0,1.935985004E0
9.887093750E0,7.120365000E-1,9.210499012E-1,1.100326703E0,1.601888807E0
9.897173750E0,7.986325943E-1,4.803534436E-1,1.073380248E0,1.421512789E0
9.907254750E0,4.454613537E-1,-1.011536148E-1,1.120422413E0,1.209964568E0
9.917335750E0,-2.720656818E-1,-7.133901304E-1,1.160465316E0,1.389109413E0
9.927415750E0,-1.016992185E0,-1.319484146E0,1.136355637E0,2.016585146E0
9.937496750E0,-1.482662686E0,-1.806736135E0,1.269298810E0,2.659643504E0
9.947577750E0,-1.870653511E0,-2.023550306E0,1.522955118E0,3.148569944E0
9.957657750E0,-2.275318256E0,-1.928521650E0,1.853735177E0,3.511780606E0
9.967738750E0,-2.470189582E0,-1.684358004E0,2.094016710E0,3.650178686E0
9.977819750E0,-2.360817413E0,-1.506596801E0,2.241661244E0,3.587246564E0
9.987899750E0,-2.134592147E0,-1.433406326E0,2.287753676E0,3.441649926E0
9.997980750E0,-1.875534182E0,-1.257667382E0,2.150853839E0,3.118577872E0
1.000806175E1,-1.733458536E0,-1.006116656E0,1.908800161E0,2.767791046E0
1.001814175E1,-1.785313983E0,-8.838414368E-1,1.679410236E0,2.605559526E0
1.002822275E1,-1.780894657E0,-8.950005555E-1,1.467049450E0,2.474842594E0
1.003830375E1,-1.819196844E0,-1.046429992E0,1.172363742E0,2.403940437E0
1.004838375E1,-2.002862565E0,-1.119223149E0,8.228055686E-1,2.437442905E0
1.005846475E1,-2.060809641E0,-9.826082182E-1,6.648155558E-1,2.377905594E0
1.006854475E1,-1.880244114E0,-7.354098675E-1,7.728183067E-1,2.161803353E0
1.007862575E1,-1.551130072E0,-4.300749904E-1,1.049409149E0,1.921517255E0
1.008870675E1,-1.200556750E0,-1.723314786E-1,1.251874838E0,1.743050561E0
1.009878675E1,-8.965886593E-1,2.322689474E-2,1.259269227E0,1.546017367E0
1.010886775E1,-5.055637139E-1,3.178043568E-1,1.110194025E0,1.260605034E0
1.011894875E1,-2.604238755E-1,5.290473014E-1,1.057235647E0,1.210561380E0
1.012902875E1,-1.275423914E-1,5.703070092E-1,1.004447569E0,1.162080920E0
1.013910975E1,-7.787087917E-2,5.543797785E-1,9.629773611E-1,1.113878903E0
1.014919075E1,-1.107486033E-1,5.184340203E-1,8.881154591E-1,1.034305639E0
1.015927075E1,-2.126790208E-1,4.550043020E-1,7.935877629E-1,9.391713465E-1
1.016935175E1,-2.726813936E-1,4.872955504E-1,8.019999328E-1,9.772491944E-1
1.017943275E1,-3.159233075E-1,4.945335263E-1,9.982547095E-1,1.157965202E0
1.018951275E1,-2.253528607E-1,3.624490178E-1,1.144062633E0,1.221078421E0
1.019959375E1,-2.599438190E-2,1.741201419E-1,1.225774037E0,1.238351937E0
1.020967475E1,1.834020120E-1,4.948235482E-2,1.341196319E0,1.354581990E0
1.021975475E1,4.064920002E-1,-5.299623907E-2,1.344793527E0,1.405885478E0
1.022983575E1,7.196671164E-1,-1.275216338E-1,1.305939363E0,1.496549413E0
1.023991575E1,1.015156159E0,-1.108825046E-1,1.309751748E0,1.660809019E0
1.024999675E1,1.159977073E0,-1.260408264E-1,1.264669130E0,1.720703667E0
1.026007775E1,1.119561703E0,-1.905294755E-1,1.000418837E0,1.513458866E0
1.027015775E1,8.251158035E-1,-2.626145348E-1,7.655957528E-1,1.155819770E0
1.028023875E1,4.539848399E-1,-4.438229638E-1,6.675309297E-1,9.212375373E-1
1.029031975E1,8.976586998E-2,-7.546828750E-1,6.578210434E-1,1.005153062E0
1.030039975E1,-5.515736997E-2,-1.071208738E0,7.873047104E-1,1.330555975E0
1.031048075E1,-5.404464483E-2,-1.329623803E0,1.016168824E0,1.674341470E0
1.032056175E1,-5.379730761E-2,-1.587084309E0,1.145129238E0,1.957818104E0
1.033064175E1,-3.935351551E-2,-1.832573519E0,1.216796149E0,2.200106195E0
1.034072275E1,1.085436183E-1,-2.007856964E0,1.368946036E0,2.432546927E0
1.035080375E1,1.339141023E-1,-2.068435872E0,1.432868382E0,2.519815816E0
1.036088375E1,-6.183722913E-2,-2.073849809E0,1.309151824E0,2.453274418E0
1.037096475E1,-2.878859085E-1,-2.056735594E0,1.122806250E0,2.360875574E0
1.038104575E1,-4.317858857E-1,-2.080356591E0,9.243014648E-1,2.317035993E0
1.039112575E1,-6.201018977E-1,-2.179618047E0,6.985493854E-1,2.371335581E0
1.040120675E1,-7.352288961E-1,-2.173281127E0,5.373579490E-1,2.356367109E0
1.041128675E1,-5.352336556E-1,-2.036183800E0,4.715767729E-1,2.157522697E0
1.042136788E1,-1.813923240E-1,-1.945346428E0,4.632094804E-1,2.007943954E0
1.043144888E1,2.893974137E-1,-1.895392788E0,3.529736048E-1,1.949578172E0
1.044152888E1,7.460251951E-1,-1.899906254E0,2.637211204E-1,2.058092853E0
1.045160988E1,8.741219026E-1,-1.895100719E0,2.262760630E-1,2.099213351E0
1.046169088E1,9.347657150E-1,-1.649628467E0,1.930498447E-1,1.905867063E0
1.047177088E1,9.857399869E-1,-1.362664664E0,1.014544541E-1,1.684883175E0
1.048185188E1,1.057890535E0,-1.201313964E0,1.545758235E-1,1.608160847E0
1.049193288E1,9.480587751E-1,-1.039436430E0,2.998545011E-1,1.438456205E0
1.050201288E1,5.153455210E-1,-7.612358496E-1,4.950064930E-1,1.044074927E0
1.051209388E1,3.731693029E-3,-3.453733939E-1,5.767534914E-1,6.722657931E-1
1.052217488E1,-5.992659295E-1,3.755666614E-2,6.354471843E-1,8.742558444E-1
1.053225488E1,-1.122847254E0,4.456508034E-1,6.716275620E-1,1.382199036E0
1.054233588E1,-1.491399595E0,9.657039177E-1,5.367849219E-1,1.856069735E0
1.055241688E1,-1.832600416E0,1.445101342E0,3.157432133E-1,2.355087249E0
1.056249688E1,-2.064800951E0,1.832608310E0,1.330767079E-1,2.763976410E0
1.057257788E1,-2.167028407E0,2.028144171E0,-2.376074553E-2,2.968155230E0
1.058265887E1,-2.122667336E0,1.968699915E0,-2.578692269E-1,2.906543052E0
1.059273887E1,-1.872431064E0,1.769899553E0,-5.440231901E-1,2.633344594E0
1.060281987E1,-1.499540673E0,1.242426322E0,-6.298790270E-1,2.046702955E0
1.061289987E1,-1.088701268E0,5.819637260E-1,-5.043516592E-1,1.333537711E0
1.062298087E1,-6.592530996E-1,-1.047063830E-1,-1.063012477E-1,6.759275340E-1
1.063306187E1,-1.328078091E-1,-8.333814275E-1,3.661169761E-1,9.198935580E-1
1.064314187E1,3.592611158E-1,-1.557164691E0,7.260160232E-1,1.755257728E0
1.065322288E1,8.104077172E-1,-1.978292272E0,8.699195087E-1,2.308064326E0
1.066330388E1,1.213478512E0,-1.937093960E0,9.008513526E-1,2.456907867E0
1.067338388E1,1.529222894E0,-1.511187450E0,9.771276961E-1,2.361564885E0
1.068346488E1,1.530944899E0,-8.280405807E-1,1.210528007E0,2.120099418E0
1.069354588E1,1.121249794E0,-1.393268698E-1,1.394424693E0,1.794723740E0
1.070362588E1,6.097330302E-1,3.686192921E-1,1.440734056E0,1.607286275E0
1.071370688E1,1.100843596E-1,6.783968836E-1,1.398305490E0,1.558075461E0
1.072378788E1,-3.791001338E-1,8.317225724E-1,1.250304860E0,1.548787136E0
1.073386788E1,-7.411310756E-1,7.937221026E-1,9.684087666E-1,1.455020820E0
1.074394888E1,-9.175269538E-1,5.510477427E-1,8.064566805E-1,1.340105109E0
1.075402988E1,-1.039595767E0,2.479672596E-1,8.728483059E-1,1.379895389E0
1.076410988E1,-1.242447372E0,-1.176167428E-2,9.146909811E-1,1.542878284E0
1.077419088E1,-1.464400077E0,-2.370309198E-1,8.908525407E-1,1.730395761E0
1.078427088E1,-1.566853235E0,-4.369682729E-1,8.771449131E-1,1.848067513E0
1.079435188E1,-1.555497943E0,-5.990484130E-1,9.328320408E-1,1.910133102E0
1.080443288E1,-1.410718544E0,-6.827814183E-1,9.385850432E-1,1.826816674E0
1.081451288E1,-1.261590571E0,-7.176840332E-1,9.261317164E-1,1.721743621E0
1.082459388E1,-1.045768088E0,-6.917130402E-1,9.374385504E-1,1.565531494E0
1.083467488E1,-7.856944603E-1,-6.287554845E-1,8.434468976E-1,1.313031574E0
1.084475488E1,-4.684309709E-1,-5.033446956E-1,5.675528976E-1,8.915715050E-1
1.085483588E1,-2.036678767E-1,-3.248432350E-1,3.252981484E-1,5.028146942E-1
1.086491688E1,-8.889463484E-2,4.672188431E-2,9.949614845E-2,1.413671607E-1
1.087499688E1,-1.089710498E-1,5.061612993E-1,-6.464104213E-2,5.217781281E-1
1.088507788E1,-1.298309916E-1,9.106345484E-1,-1.655889080E-1,9.346288320E-1
1.089515887E1,-1.378305674E-2,1.173445550E0,-1.830770530E-1,1.187721195E0
1.090523887E1,2.435903263E-1,1.380806528E0,-1.692834713E-1,1.412310096E0
1.091531987E1,5.636938083E-1,1.645889465E0,-1.627913808E-1,1.747341945E0
1.092540087E1,7.571138549E-1,1.805528685E0,-3.267120051E-1,1.984917115E0
1.093548087E1,9.915275609E-1,1.847627760E0,-4.617769857E-1,2.147112766E0
1.094556187E1,1.254330668E0,1.887425956E0,-6.020575364E-1,2.344823116E0
1.095564187E1,1.480805610E0,1.999001648E0,-7.997065817E-1,2.613106095E0
1.096572288E1,1.650143899E0,2.085334910E0,-1.020682948E0,2.848401351E0
1.097580388E1,1.656944795E0,2.193722700E0,-1.245968127E0,3.018330982E0
1.098588388E1,1.570356302E0,2.411838755E0,-1.387438440E0,3.194991474E0
1.099596488E1,1.485287501E0,2.702183710E0,-1.427807617E0,3.398015649E0
1.100604588E1,1.430259939E0,2.954730216E0,-1.402860617E0,3.569886841E0
1.101612588E1,1.439181036E0,3.200177911E0,-1.225663524E0,3.716803975E0
1.102620688E1,1.511740304E0,3.391421039E0,-8.989382167E-1,3.820364554E0
1.103628788E1,1.739379426E0,3.399788697E0,-4.074364717E-1,3.840573974E0
1.104636788E1,1.959688479E0,3.189052998E0,2.498456776E-2,3.743135342E0
1.105644888E1,2.097839473E0,2.751775700E0,4.557137154E-1,3.490111022E0
1.106652988E1,2.304263143E0,2.094478494E0,8.742078567E-1,3.234301806E0
1.107660988E1,2.522012284E0,1.352916479E0,1.291258759E0,3.139789506E0
1.108669088E1,2.707787097E0,8.765432346E-1,1.757132596E0,3.344839901E0
1.109677188E1,2.617058775E0,9.314135063E-1,2.280116920E0,3.593808692E0
1.110685188E1,2.156646091E0,1.455294208E0,2.496818971E0,3.605982330E0
1.111693288E1,1.659174339E0,2.052620031E0,2.350061313E0,3.533963307E0
1.112701288E1,1.288706449E0,2.459464619E0,2.051049469E0,3.452033379E0
1.113709388E1,1.202852951E0,2.627938689E0,1.703578679E0,3.354861739E0
1.114717488E1,1.282232412E0,2.504295806E0,1.423906208E0,3.153272321E0
1.115725488E1,1.397811985E0,2.120522870E0,1.301699986E0,2.853930349E0
1.116733588E1,1.396298141E0,1.755514233E0,1.267437202E0,2.576407534E0
1.117741688E1,1.233112877E0,1.361619182E0,1.280284705E0,2.239129985E0
1.118749688E1,1.144453300E0,8.717891559E-1,1.469450317E0,2.056471231E0
1.119757788E1,1.072574648E0,3.557998565E-1,1.834191443E0,2.154360268E0
1.120765887E1,1.028729301E0,1.403331757E-4,2.142992257E0,2.377120066E0
1.121773887E1,1.087446456E0,-1.943430296E-1,2.444696745E0,2.682694761E0
1.122781987E1,1.073892610E0,-3.336631751E-1,2.859987196E0,3.073125968E0
1.123790087E1,1.010383077E0,-3.899940813E-1,3.199491740E0,3.377827222E0
1.124798087E1,8.536443686E-1,-3.525096282E-1,3.473014548E0,3.593716989E0
1.125806187E1,6.871174210E-1,-2.415502328E-1,3.709162538E0,3.779995185E0
1.126814288E1,5.032423693E-1,-1.059734747E-1,3.989980917E0,4.022987817E0
1.127822288E1,2.532791626E-1,-4.798166692E-2,4.230416670E0,4.238263534E0
1.128830388E1,1.743990541E-2,-6.954181284E-2,4.417898285E0,4.418479995E0
1.129838388E1,-1.937182546E-1,-1.125700110E-1,4.572063049E0,4.577549486E0
1.130846488E1,-4.376488888E-1,-2.165405220E-1,4.680923586E0,4.706322553E0
1.131854588E1,-7.533587730E-1,-2.852762961E-1,4.707936553E0,4.776358299E0
1.132862588E1,-1.123630196E0,-2.545026925E-1,4.696078985E0,4.835336004E0
1.133870688E1,-1.524248668E0,-2.001358661E-1,4.607605934E0,4.857305921E0
1.134878788E1,-1.846058367E0,-1.333501384E-1,4.409388832E0,4.782094063E0
1.135886788E1,-2.005563394E0,-1.353577799E-1,4.236077945E0,4.688812494E0
1.136894888E1,-2.098958631E0,-1.981788030E-1,3.977367303E0,4.501594477E0
1.137902988E1,-2.025134025E0,-1.864802787E-1,3.675656238E0,4.200760823E0
1.138910988E1,-1.902845356E0,-6.808702558E-2,3.420574964E0,3.914816647E0
1.139919088E1,-1.674826750E0,1.047353268E-2,3.292246122E0,3.693783814E0
1.140927188E1,-1.353767248E0,-4.346176922E-2,3.345376262E0,3.609171238E0
1.141935188E1,-1.008083952E0,-2.387385991E-1,3.506493366E0,3.656326722E0
1.142943379E1,-6.486731476E-1,-5.428531623E-1,3.706235422E0,3.801532245E0
1.143951479E1,-3.445068365E-1,-8.092145929E-1,3.882837707E0,3.981198548E0
1.144959479E1,-2.977402210E-2,-1.091602364E0,3.982873042E0,4.129861969E0
1.145967579E1,2.794974929E-1,-1.308641069E0,4.188048331E0,4.396636114E0
1.146975579E1,3.256185758E-1,-1.379455821E0,4.519523478E0,4.736561863E0
1.147983679E1,1.783728218E-1,-1.331535842E0,4.870255845E0,5.052147717E0
1.148991779E1,8.681945801E-3,-1.085994885E0,5.162504361E0,5.275501070E0
1.149999779E1,-1.485648859E-1,-8.039442050E-1,5.442612888E0,5.503674487E0
1.151007879E1,-1.881131136E-1,-5.190874466E-1,5.617749860E0,5.644816367E0
1.152015979E1,-1.067321509E-1,-1.937241018E-1,5.706877799E0,5.711162315E0
1.153023979E1,9.513595283E-2,-6.700178236E-2,5.818784151E0,5.819947516E0
1.154032079E1,2.593228447E-1,-6.435620964E-2,5.903082290E0,5.909126042E0
1.155040179E1,4.153324056E-1,-6.345573843E-2,5.910211215E0,5.925126517E0
1.156048179E1,5.046872163E-1,-6.639337957E-2,5.754270651E0,5.776741988E0
1.157056279E1,5.094509429E-1,-1.916287521E-1,5.408734120E0,5.436052485E0
1.158064379E1,1.429726088E-1,-3.599344227E-1,4.904873700E0,4.920140239E0
1.159072379E1,-4.539170122E-1,-6.378677854E-1,4.424434887E0,4.493165926E0
1.160080479E1,-1.062771791E0,-9.360690594E-1,3.808803771E0,4.063581588E0
1.161088579E1,-1.683154939E0,-1.085049682E0,3.209738985E0,3.783221870E0
1.162096579E1,-2.028414313E0,-1.075910777E0,2.696683819E0,3.541772472E0
1.163104679E1,-2.099697719E0,-9.555572444E-1,2.223779143E0,3.204218131E0
1.164112779E1,-2.014330709E0,-8.603213042E-1,1.730239643E0,2.791309760E0
1.165120779E1,-1.805671649E0,-8.048449686E-1,1.336212738E0,2.386145429E0
1.166128879E1,-1.522312070E0,-7.622155505E-1,1.035093995E0,1.992442261E0
1.167136979E1,-1.293238041E0,-7.942141458E-1,8.808947325E-1,1.754769578E0
1.168144979E1,-1.206240828E0,-9.027212191E-1,8.730173635E-1,1.741287412E0
1.169153079E1,-1.280004623E0,-9.534852836E-1,9.461531675E-1,1.855465396E0
1.170161079E1,-1.590281274E0,-1.002320644E0,1.165461177E0,2.211773261E0
1.171169179E1,-1.820316001E0,-1.069127129E0,1.389515955E0,2.527318292E0
1.172177279E1,-1.858973113E0,-1.213938103E0,1.497701139E0,2.678158967E0
1.173185279E1,-1.621225909E0,-1.272405289E0,1.498756562E0,2.548266057E0
1.174193379E1,-1.211580505E0,-1.091501500E0,1.424006342E0,2.164970417E0
1.175201479E1,-8.841317511E-1,-9.566454113E-1,1.246915230E0,1.803235144E0
1.176209479E1,-5.985350275E-1,-9.408330783E-1,1.043710452E0,1.527331846E0
1.177217579E1,-4.776467675E-1,-1.163571941E0,1.049792214E0,1.638325301E0
1.178225679E1,-4.171807104E-1,-1.452527305E0,1.175574521E0,1.914641160E0
1.179233679E1,-4.627433842E-1,-1.725474747E0,1.259456338E0,2.185777850E0
1.180241779E1,-5.851542592E-1,-1.885008425E0,1.309609661E0,2.368700009E0
1.181249879E1,-7.666471553E-1,-1.860952980E0,1.212314331E0,2.349595687E0
1.182257879E1,-8.352034199E-1,-1.681563912E0,1.044776984E0,2.148669563E0
1.183265979E1,-8.507488275E-1,-1.454289656E0,8.573274567E-1,1.890434431E0
1.184274079E1,-7.719605201E-1,-1.265956395E0,4.784606268E-1,1.558041466E0
1.185282079E1,-6.255936027E-1,-1.094492058E0,-8.197796345E-4,1.260666845E0
1.186290179E1,-4.392790926E-1,-9.199319136E-1,-3.706737113E-1,1.084730311E0
1.187298279E1,-3.804017240E-1,-7.799910861E-1,-5.983420694E-1,1.054089559E0
1.188306279E1,-3.024291033E-1,-6.518546176E-1,-7.672353121E-1,1.051203039E0
1.189314379E1,-8.724455059E-2,-5.409501860E-1,-9.418233043E-1,1.089619132E0
1.190322479E1,1.562153828E-1,-4.333643416E-1,-1.052189500E0,1.148612485E0
1.191330479E1,6.094623041E-1,-6.076286173E-1,-1.156634220E0,1.441686358E0
1.192338579E1,9.962930417E-1,-1.093377872E0,-1.311615840E0,1.976970184E0
1.193346679E1,1.150004062E0,-1.600976709E0,-1.366774964E0,2.398689135E0
1.194354679E1,1.259629415E0,-1.868100616E0,-1.157703091E0,2.533129018E0
1.195362779E1,1.482733437E0,-1.938552548E0,-8.380639509E-1,2.580471975E0
1.196370879E1,1.800295719E0,-2.029122410E0,-5.324930656E-1,2.764407947E0
1.197378879E1,1.995338368E0,-2.052528230E0,-1.425671775E-2,2.862595080E0
1.198386979E1,2.155281351E0,-1.855250775E0,5.119529665E-1,2.889513623E0
1.199395079E1,2.179395268E0,-1.549996882E0,9.783466943E-1,2.847703693E0
1.200403079E1,2.009103298E0,-1.191239796E0,1.354208128E0,2.699894066E0
1.201411179E1,1.521116899E0,-7.180684876E-1,1.541810780E0,2.281797418E0
1.202419279E1,9.248979539E-1,-7.610735893E-2,1.488478326E0,1.754079896E0
1.203427279E1,2.855131084E-1,7.053390992E-1,1.308662412E0,1.513809198E0
1.204435379E1,-3.169997799E-1,1.414306980E0,9.819030440E-1,1.750681777E0
1.205443479E1,-7.249874979E-1,1.922279747E0,4.875874726E-1,2.111517900E0
1.206451479E1,-9.985793030E-1,2.337387620E0,-1.300186872E-2,2.541792784E0
1.207459579E1,-1.042219412E0,2.613042907E0,-4.814965012E-1,2.854129187E0
1.208467679E1,-8.895983130E-1,2.832301800E0,-9.645310394E-1,3.121480221E0
1.209475679E1,-5.725160873E-1,3.014264812E0,-1.293366680E0,3.329619257E0
1.210483779E1,-2.920169663E-1,3.079991609E0,-1.519123583E0,3.446644554E0
1.211491879E1,-1.573982745E-1,3.120740855E0,-1.607820582E0,3.514097996E0
1.212499879E1,-2.196740448E-2,2.981160800E0,-1.737491945E0,3.450605823E0
1.213507979E1,2.531756669E-1,2.515294418E0,-1.807847983E0,3.107912202E0
1.214516079E1,6.805246854E-1,1.700845690E0,-1.604300559E0,2.435111947E0
1.215524079E1,1.152175133E0,8.966705203E-1,-1.150044408E0,1.858528369E0
1.216532179E1,1.610239576E0,3.180914551E-1,-5.765185795E-1,1.739662995E0
1.217540279E1,1.993402355E0,-1.141581148E-1,-2.126698114E-2,1.996781738E0
1.218548279E1,2.179550804E0,-4.197464687E-1,4.791694555E-1,2.270733840E0
1.219556379E1,2.128243825E0,-5.310236603E-1,7.569969837E-1,2.320442273E0
1.220564479E1,1.727859827E0,-3.369966727E-1,7.531108510E-1,1.914743401E0
1.221572479E1,1.199124767E0,5.633441448E-2,4.737273788E-1,1.290539190E0
1.222580579E1,8.671262938E-1,3.315371275E-1,3.903476916E-2,9.291655339E-1
1.223588679E1,6.496379381E-1,3.550107747E-1,-3.918839014E-1,8.376366115E-1
1.224596679E1,4.106482011E-1,2.637626356E-1,-7.429904902E-1,8.889530592E-1
1.225604779E1,8.255625308E-2,2.010728824E-1,-1.028720530E0,1.051433197E0
1.226612879E1,-3.189977735E-1,1.553926796E-1,-1.288202858E0,1.336178531E0
1.227620879E1,-7.610507852E-1,4.444994867E-2,-1.597194876E0,1.769803822E0
1.228628979E1,-1.086807355E0,-1.177678934E-1,-1.744837217E0,2.058998888E0
1.229637079E1,-1.258519029E0,-2.402843106E-1,-1.723472222E0,2.147548183E0
1.230645079E1,-1.253878094E0,-2.733362818E-1,-1.599773644E0,2.050901926E0
1.231653179E1,-1.109554778E0,-1.834926438E-1,-1.363419832E0,1.767397803E0
1.232661279E1,-8.906391174E-1,6.345690787E-3,-1.227522646E0,1.516604811E0
1.233669279E1,-6.115053213E-1,1.875403789E-1,-1.154666047E0,1.319986300E0
1.234677379E1,-4.905638516E-1,3.435285974E-1,-1.036480955E0,1.197062053E0
1.235685479E1,-4.280892760E-1,4.049629533E-1,-9.497642617E-1,1.117724284E0
1.236693479E1,-3.950881755E-1,4.392931259E-1,-9.245180310E-1,1.097181255E0
1.237701579E1,-3.890140879E-1,4.299001586E-1,-9.395727110E-1,1.104057510E0
1.238709679E1,-3.846093804E-1,5.122231078E-1,-9.411748481E-1,1.138466944E0
1.239717679E1,-3.777207756E-1,5.271332154E-1,-8.792083955E-1,1.092497054E0
1.240725779E1,-2.648987496E-1,4.418284786E-1,-9.216106492E-1,1.055817191E0
1.241733879E1,-1.326423329E-1,3.286410016E-1,-8.299925275E-1,9.024890537E-1
1.242741850E1,-7.199091911E-3,2.728185108E-1,-6.585748956E-1,7.128833424E-1
1.243749950E1,-4.450900555E-3,3.185700497E-1,-4.256264287E-1,5.316620580E-1
1.244758050E1,1.090856552E-2,3.607275975E-1,-1.883575273E-1,4.070896148E-1
1.245766050E1,-3.612994552E-3,3.601042843E-1,6.427551806E-4,3.601229824E-1
1.246774150E1,-8.559738994E-2,3.719922584E-1,1.305127770E-1,4.034088973E-1
1.247782250E1,-2.100506973E-1,4.526469970E-1,1.335362260E-1,5.165680236E-1
1.248790250E1,-3.242813176E-1,5.366937053E-1,7.266217947E-2,6.312513751E-1
1.249798350E1,-5.629412717E-1,5.107805997E-1,-5.452762485E-2,7.620846136E-1
1.250806450E1,-8.362313604E-1,4.847853407E-1,-2.101176479E-1,9.891658813E-1
1.251814450E1,-9.666874194E-1,4.963362229E-1,-3.559409206E-1,1.143471973E0
1.252822550E1,-1.106457508E0,5.089226469E-1,-5.315905479E-1,1.328848746E0
1.253830650E1,-1.173962443E0,5.465059179E-1,-6.242639458E-1,1.437554177E0
1.254838650E1,-1.128115595E0,5.531042084E-1,-8.217777742E-1,1.501295364E0
1.255846750E1,-1.021077050E0,5.682669157E-1,-9.140053220E-1,1.483553625E0
1.256854850E1,-8.272032595E-1,5.650187874E-1,-8.356514628E-1,1.304540084E0
1.257862850E1,-4.927840394E-1,4.845476514E-1,-6.748033310E-1,9.659099707E-1
1.258870950E1,-1.048902780E-1,4.242292365E-1,-5.891724658E-1,7.335506867E-1
1.259879050E1,2.291126204E-1,4.055663860E-1,-4.923782426E-1,6.778001328E-1
1.260887050E1,5.951038814E-1,3.943753999E-1,-4.571106152E-1,8.477208858E-1
1.261895150E1,8.299233842E-1,3.797178921E-1,-5.217528999E-1,1.051277599E0
1.262903250E1,1.131586502E0,3.437569311E-1,-5.974263954E-1,1.324981184E0
1.263911250E1,1.407618350E0,3.119714668E-1,-6.386950202E-1,1.576910570E0
1.264919350E1,1.545178776E0,4.073921791E-1,-6.947522767E-1,1.742477135E0
1.265927450E1,1.699703729E0,6.865131113E-1,-6.901511027E-1,1.958724474E0
1.266935450E1,1.833535970E0,9.332512861E-1,-5.334404607E-1,2.125410747E0
1.267943550E1,2.108337564E0,1.004720634E0,-3.519507806E-1,2.361867945E0
1.268951650E1,2.414382586E0,9.108792543E-1,-1.716590488E-1,2.586196264E0
1.269959650E1,2.838252511E0,8.145302966E-1,5.315703750E-3,2.952823255E0
1.270967750E1,3.280292659E0,5.253761271E-1,2.048231404E-1,3.328406904E0
1.271975850E1,3.488182225E0,1.717227834E-1,3.946798937E-1,3.514637416E0
1.272983850E1,3.380805126E0,-1.414470702E-1,5.176135097E-1,3.423123475E0
1.273991950E1,2.988211958E0,-2.620534945E-1,4.017731510E-1,3.026467314E0
1.275000050E1,2.647126912E0,-2.625774050E-1,1.180317490E-1,2.662735299E0
1.276008050E1,2.357347090E0,-2.145589006E-1,-5.840198994E-2,2.367811567E0
1.277016150E1,2.050894518E0,-1.567053795E-3,-1.157444644E-1,2.054158602E0
1.278024250E1,1.670194586E0,2.853517252E-1,-2.239283328E-1,1.709128275E0
1.279032250E1,1.183282320E0,6.793488103E-1,-2.473616342E-1,1.386672144E0
1.280040350E1,6.750610471E-1,1.096209678E0,-7.263177395E-2,1.289441139E0
1.281048450E1,1.700861478E-1,1.416885602E0,2.184661563E-1,1.443683334E0
1.282056450E1,-4.143541664E-1,1.525007637E0,3.812331980E-1,1.625631083E0
1.283064550E1,-8.796118534E-1,1.368111053E0,3.906700194E-1,1.672742637E0
1.284072650E1,-1.037051643E0,9.769448975E-1,5.189234322E-1,1.516304380E0
1.285080650E1,-9.975192028E-1,2.615827936E-1,6.010173167E-1,1.193604597E0
1.286088750E1,-1.075160286E0,-5.726192906E-1,3.448709719E-1,1.266016777E0
1.287096850E1,-1.225606806E0,-1.333644640E0,-5.353725269E-2,1.812066861E0
1.288104850E1,-1.386381263E0,-2.083912868E0,-3.278938736E-1,2.524333623E0
1.289112950E1,-1.422173824E0,-2.688755871E0,-3.063455683E-1,3.057095702E0
1.290121050E1,-1.416514304E0,-3.009181243E0,-4.594844386E-2,3.326228462E0
1.291129050E1,-1.378500386E0,-3.065542554E0,3.806293269E-1,3.382705005E0
1.292137150E1,-1.525142707E0,-2.949280611E0,8.125380041E-1,3.418264824E0
1.293145250E1,-1.807656779E0,-2.670967180E0,1.108977073E0,3.410501261E0
1.294153250E1,-2.180899172E0,-2.463448327E0,1.232740409E0,3.513480863E0
1.295161350E1,-2.607354151E0,-2.380012945E0,1.162704945E0,3.716805090E0
1.296169450E1,-2.891926442E0,-2.431544456E0,9.959607737E-1,3.907375699E0
1.297177450E1,-3.062380380E0,-2.446228861E0,9.237453215E-1,4.026849221E0
1.298185550E1,-2.910831075E0,-2.448724160E0,9.380359165E-1,3.917792611E0
1.299193650E1,-2.563418757E0,-2.392874773E0,8.968085146E-1,3.619562255E0
1.300201650E1,-2.310603279E0,-2.377308315E0,7.346383274E-1,3.395611257E0
1.301209750E1,-2.207923833E0,-2.373239530E0,3.702193826E-1,3.262553587E0
1.302217850E1,-2.189877571E0,-2.363291077E0,5.933096632E-2,3.222456929E0
1.303225850E1,-2.127600047E0,-2.356618235E0,-1.860598639E-2,3.175008291E0
1.304233950E1,-2.017710984E0,-2.144739406E0,2.835209620E-1,2.958284785E0
1.305242050E1,-1.927592527E0,-1.806484997E0,7.311077785E-1,2.741080002E0
1.306250050E1,-1.728765560E0,-1.464552104E0,1.115564547E0,2.525475695E0
1.307258150E1,-1.433892814E0,-1.203089179E0,1.450514109E0,2.368008310E0
1.308266250E1,-1.170444174E0,-1.024468435E0,1.671414315E0,2.283221617E0
1.309274250E1,-1.044795111E0,-8.566393125E-1,1.746308377E0,2.207944900E0
1.310282350E1,-1.036892014E0,-7.923421597E-1,1.621583759E0,2.081462234E0
1.311290450E1,-1.117376014E0,-8.133886278E-1,1.342380527E0,1.926685157E0
1.312298550E1,-1.235970411E0,-9.123773110E-1,9.960905819E-1,1.830915526E0
1.313306550E1,-1.379160537E0,-1.059724807E0,7.255190098E-1,1.884536623E0
1.314314650E1,-1.361789044E0,-1.149710532E0,6.522281085E-1,1.897815906E0
1.315322750E1,-1.222526493E0,-1.078362806E0,7.985694444E-1,1.815254948E0
1.316330750E1,-1.190247524E0,-8.480193472E-1,9.506894374E-1,1.743455301E0
1.317338850E1,-1.221532466E0,-4.831513363E-1,1.026421259E0,1.667068499E0
1.318346950E1,-1.156453541E0,-9.168960392E-2,1.032792531E0,1.553207066E0
1.319354950E1,-1.145333891E0,1.237493026E-1,9.600537533E-1,1.499602221E0
1.320363050E1,-1.172157993E0,3.330193967E-1,8.352156991E-1,1.477308885E0
1.321371150E1,-1.208393773E0,3.910945272E-1,6.663187288E-1,1.434277200E0
1.322379150E1,-1.096392111E0,2.021680659E-1,4.384252529E-1,1.197983427E0
1.323387250E1,-9.016155106E-1,-1.882628024E-2,1.863665503E-1,9.208677695E-1
1.324395350E1,-6.836359888E-1,-1.794919789E-2,1.552201867E-2,6.840477118E-1
1.325403350E1,-4.500011319E-1,1.025689334E-1,-8.900178507E-2,4.700454473E-1
1.326411450E1,-3.050609350E-1,1.880283290E-1,-1.773589146E-1,3.998412325E-1
1.327419550E1,-1.674981701E-1,3.185340893E-1,-1.920118909E-1,4.079070596E-1
1.328427550E1,-2.275619388E-2,4.351749319E-1,-1.655019307E-1,4.661394156E-1
1.329435650E1,4.299866974E-2,5.129803222E-1,-5.048836827E-2,5.172492358E-1
1.330443750E1,1.762128603E-1,5.483320034E-1,2.556168795E-2,5.765174394E-1
1.331451750E1,3.413481706E-1,5.810500985E-1,7.748203933E-2,6.783371264E-1
1.332459850E1,5.009403205E-1,6.200024951E-1,1.775097728E-2,7.972825069E-1
1.333467950E1,7.389664364E-1,6.848902166E-1,-1.929744887E-1,1.025858253E0
1.334475950E1,1.116155115E0,5.902425063E-1,-2.742661352E-1,1.292056644E0
1.335484050E1,1.464691268E0,4.204890651E-1,-2.598561108E-1,1.545851469E0
1.336492150E1,1.756079659E0,3.016064000E-1,-2.966786590E-1,1.806322345E0
1.337500150E1,1.998777700E0,2.972566563E-1,-2.172627993E-1,2.032406686E0
1.338508250E1,2.127230503E0,4.110709548E-1,-1.524398357E-2,2.166638254E0
1.339516350E1,2.151082465E0,5.994290668E-1,2.374279457E-1,2.245627531E0
1.340524350E1,2.163553991E0,7.667687774E-1,6.151247478E-1,2.376400363E0
1.341532450E1,2.181344145E0,9.731246191E-1,9.166463631E-1,2.558412468E0
1.342540538E1,2.222398031E0,1.037304243E0,9.716411805E-1,2.638018135E0
1.343548538E1,2.198712130E0,9.268403989E-1,7.719764538E-1,2.507850833E0
1.344556638E1,2.149565113E0,7.161570328E-1,6.014890409E-1,2.344205651E0
1.345564738E1,2.004160062E0,4.198727685E-1,4.719930947E-1,2.101363409E0
1.346572738E1,1.854906959E0,2.232525408E-1,5.029353905E-1,1.934803745E0
1.347580837E1,1.860641323E0,4.683853626E-2,6.288598573E-1,1.964597848E0
1.348588937E1,1.846263605E0,-1.045949936E-2,8.584462483E-1,2.036106250E0
1.349596937E1,1.809875797E0,8.176570952E-2,1.190583154E0,2.167907811E0
1.350605037E1,1.705997672E0,2.751454103E-1,1.446268446E0,2.253403087E0
1.351613137E1,1.529343347E0,3.539974523E-1,1.480533714E0,2.157819582E0
1.352621137E1,1.254545261E0,1.967032582E-1,1.354072473E0,1.856364255E0
1.353629237E1,9.654647666E-1,-5.245244801E-2,1.123557106E0,1.482313747E0
1.354637338E1,7.070324528E-1,-3.281515896E-1,1.002003433E0,1.269483845E0
1.355645438E1,4.219461912E-1,-5.572665489E-1,9.929869529E-1,1.214334255E0
1.356653438E1,3.593213421E-1,-5.358587229E-1,9.640520793E-1,1.160022762E0
1.357661538E1,3.949764937E-1,-4.504022509E-1,6.969324841E-1,9.190122446E-1
1.358669638E1,4.688256580E-1,-4.727871466E-1,3.386788436E-1,7.470130806E-1
1.359677638E1,6.003231061E-1,-5.424011725E-1,2.640835746E-1,8.510740262E-1
1.360685738E1,1.056489542E0,-6.548045379E-1,5.461509188E-1,1.357652371E0
1.361693838E1,1.751640453E0,-6.333733231E-1,9.366578009E-1,2.084882222E0
1.362701838E1,2.180253054E0,-6.040629852E-1,1.229974676E0,2.575118090E0
1.363709938E1,2.219439924E0,-6.480989510E-1,1.565638769E0,2.792341416E0
1.364718038E1,1.811415369E0,-8.067888755E-1,1.974288976E0,2.798204941E0
1.365726038E1,1.439477490E0,-9.141595423E-1,2.308373151E0,2.869907614E0
1.366734138E1,1.462834193E0,-1.083655121E0,2.469343489E0,3.067873786E0
1.367742238E1,1.895772564E0,-1.786769355E0,2.556438936E0,3.649914845E0
1.368750238E1,2.278692684E0,-2.319168865E0,2.597047849E0,4.161206808E0
1.369758338E1,1.949370482E0,-1.776840198E0,2.759384682E0,3.817251654E0
1.370766438E1,1.135759660E0,-5.135954493E-1,2.826814772E0,3.089435555E0
1.371774438E1,1.682892984E-1,9.676118642E-1,2.597075331E0,2.776579601E0
1.372782538E1,-8.327727324E-1,2.538873900E0,2.195103813E0,3.458015595E0
1.373790638E1,-1.734599912E0,3.532411734E0,1.312136242E0,4.148309418E0
1.374798638E1,-2.335826998E0,3.878611924E0,8.505301416E-2,4.528460250E0
1.375806738E1,-2.477496262E0,3.652215920E0,-1.412341146E0,4.633721654E0
1.376814837E1,-2.198281775E0,3.232433199E0,-2.802513160E0,4.809900950E0
1.377822837E1,-1.321084237E0,2.693209988E0,-3.753544074E0,4.804970002E0
1.378830937E1,-6.424043477E-2,2.115992154E0,-4.057686412E0,4.576720294E0
1.379839037E1,1.179457072E0,1.766987055E0,-3.775915521E0,4.332539701E0
1.380847037E1,1.968171619E0,1.537588506E0,-3.543067700E0,4.334882543E0
1.381855137E1,2.188985286E0,1.161634174E0,-3.232072425E0,4.072756155E0
1.382863237E1,1.959770340E0,7.474419755E-1,-2.733058763E0,3.445138530E0
1.383871237E1,1.412659820E0,4.167579567E-1,-2.324562337E0,2.751887537E0
1.384879338E1,7.157149833E-1,1.951157391E-1,-1.941167277E0,2.078087699E0
1.385887438E1,-1.384503722E-2,1.495600820E-2,-1.815768475E0,1.815882849E0
1.386895438E1,-8.322587621E-1,-2.303019440E-1,-1.841036194E0,2.033496472E0
1.387903538E1,-1.609433244E0,-5.910780734E-1,-1.910860574E0,2.567301460E0
1.388911638E1,-2.292738866E0,-1.012846509E0,-2.134096888E0,3.291941537E0
1.389919638E1,-2.924776685E0,-1.315386710E0,-2.325375246E0,3.961304190E0
1.390927738E1,-3.203140987E0,-1.426885511E0,-2.327910160E0,4.208952382E0
1.391935838E1,-3.101366690E0,-1.498543723E0,-2.204152525E0,4.089302751E0
1.392943938E1,-2.643584084E0,-1.463335884E0,-2.071864972E0,3.663674819E0
1.393951938E1,-2.003668896E0,-1.292397797E0,-1.818697345E0,2.998773273E0
1.394960038E1,-1.321211706E0,-1.077180499E0,-1.415228648E0,2.215579005E0
1.395968138E1,-7.230351126E-1,-8.496109593E-1,-1.220089374E0,1.653250325E0
1.396976138E1,-5.987221384E-1,-6.869881976E-1,-1.439807857E0,1.703956469E0
1.397984238E1,-6.867104548E-1,-5.255915970E-1,-1.903369413E0,2.090605869E0
1.398992338E1,-7.456065345E-1,-4.860667580E-1,-2.120414404E0,2.299640676E0
1.400000338E1,-6.904614437E-1,-4.728111202E-1,-1.955289618E0,2.126839169E0
1.401008438E1,-6.618562800E-1,-5.489430374E-1,-1.713817884E0,1.917436814E0
1.402016538E1,-6.493929398E-1,-5.837304622E-1,-1.349005422E0,1.606943705E0
1.403024538E1,-5.706116492E-1,-4.318081051E-1,-9.904553278E-1,1.221907382E0
1.404032638E1,-4.016048974E-1,-1.634162289E-1,-6.524511798E-1,7.833797926E-1
1.405040738E1,-3.478777564E-1,1.834914744E-2,-4.286780906E-1,5.523771627E-1
1.406048738E1,-5.755355895E-1,-4.294721425E-2,-5.954724021E-1,8.292605499E-1
1.407056837E1,-9.508841497E-1,-1.795943052E-1,-1.067184246E0,1.440596055E0
1.408064937E1,-1.225874024E0,-1.787558144E-1,-1.476077697E0,1.927051150E0
1.409072937E1,-1.244559386E0,-7.799600959E-3,-1.664314187E0,2.078203699E0
1.410081037E1,-1.104279420E0,2.076030529E-1,-1.642081758E0,1.989714694E0
1.411089137E1,-9.021955544E-1,3.176458973E-1,-1.473376869E0,1.756614679E0
1.412097137E1,-7.195460790E-1,2.550420982E-1,-1.305854725E0,1.512630025E0
1.413105237E1,-5.973913121E-1,2.659652817E-1,-1.121028185E0,1.297812815E0
1.414113338E1,-5.485080045E-1,2.145045215E-1,-1.087799774E0,1.237005080E0
1.415121338E1,-5.361241865E-1,1.279283077E-1,-1.116329362E0,1.244984354E0
1.416129438E1,-4.673211694E-1,1.548067886E-1,-1.067080604E0,1.175166045E0
1.417137538E1,-3.918312764E-1,1.940217251E-1,-9.543742065E-1,1.049764881E0
1.418145538E1,-2.893898124E-1,1.562680078E-1,-8.559475869E-1,9.169582462E-1
1.419153638E1,-9.209715486E-2,8.297725260E-2,-7.057799792E-1,7.165839026E-1
1.420161738E1,1.154392397E-1,5.098011911E-2,-6.608809644E-1,6.728215512E-1
1.421169838E1,2.127895331E-1,1.772957647E-1,-5.761273277E-1,6.392463307E-1
1.422177838E1,1.872161508E-1,3.702860409E-1,-4.133861598E-1,5.857044957E-1
1.423185938E1,1.679010433E-1,4.534071350E-1,-3.456631234E-1,5.943498846E-1
1.424194038E1,2.720329374E-1,4.879162323E-1,-3.815606421E-1,6.765003270E-1
1.425202038E1,4.388791430E-1,4.448567516E-1,-4.436510557E-1,7.663802521E-1
1.426210138E1,6.085097927E-1,3.643511170E-1,-5.859146896E-1,9.199630035E-1
1.427218238E1,6.519891036E-1,3.226768416E-1,-7.746473157E-1,1.062679914E0
1.428226238E1,5.445599645E-1,3.700626773E-1,-1.024111463E0,1.217495884E0
1.429234338E1,4.451730859E-1,4.870718944E-1,-1.177987667E0,1.350212224E0
1.430242438E1,4.244207329E-1,4.971600956E-1,-1.132604795E0,1.307705907E0
1.431250438E1,3.683400875E-1,4.831226850E-1,-1.016101216E0,1.183868079E0
1.432258538E1,3.827721852E-1,6.031455570E-1,-8.350293191E-1,1.098896297E0
1.433266638E1,4.837307954E-1,6.680660230E-1,-5.777171856E-1,1.007007865E0
1.434274638E1,6.065047824E-1,5.111004424E-1,-3.960669994E-1,8.865330120E-1
1.435282738E1,6.822537071E-1,2.220942074E-1,-2.398558559E-1,7.565228280E-1
1.436290838E1,6.724069959E-1,-1.116473204E-1,-2.089429423E-1,7.129189613E-1
1.437298838E1,5.769079310E-1,-3.359488517E-1,-2.542787442E-1,7.143823007E-1
1.438306937E1,5.185743535E-1,-3.622122055E-1,-2.962154134E-1,6.984701948E-1
1.439315037E1,7.591282207E-1,-4.565874356E-1,-2.780307189E-1,9.284658434E-1
1.440323037E1,1.265230463E0,-8.504909652E-1,-2.316696078E-1,1.542016152E0
1.441331137E1,1.768882722E0,-1.433340837E0,-9.048829347E-2,2.278508321E0
1.442339237E1,2.028798475E0,-1.914701756E0,1.059801990E-1,2.791655041E0
1.443347175E1,2.182396059E0,-2.089002576E0,2.311202618E-1,3.029884635E0
1.444355275E1,2.167633594E0,-1.848807728E0,5.401877090E-2,2.849498805E0
1.445363375E1,1.728249251E0,-1.064537650E0,-4.038356102E-1,2.069581862E0
1.446371475E1,1.248949476E0,-6.905561686E-4,-7.746517012E-1,1.469680417E0
1.447379475E1,8.901333332E-1,8.005691922E-1,-5.962335634E-1,1.337438912E0
1.448387575E1,6.397046882E-1,1.265493003E0,-1.505769128E-1,1.425962144E0
1.449395675E1,4.261327976E-1,1.236283822E0,1.960641575E-1,1.322281363E0
1.450403675E1,2.266269690E-1,8.315810698E-1,3.601241648E-1,9.341179116E-1
1.451411775E1,8.452033281E-2,2.218901396E-1,3.456369571E-1,4.193373664E-1
1.452419875E1,-1.697183579E-1,-4.893476307E-1,-1.081033230E-2,5.180562595E-1
1.453427875E1,-5.638312179E-1,-1.042946806E0,-5.834100348E-1,1.321367077E0
1.454435975E1,-9.095069128E-1,-1.320235806E0,-1.052094190E0,1.917583790E0
1.455444075E1,-1.150011663E0,-1.436553882E0,-1.338065866E0,2.275221779E0
1.456452075E1,-1.397733632E0,-1.415779309E0,-1.440620036E0,2.456313589E0
1.457460175E1,-1.598804176E0,-1.286207934E0,-1.120095700E0,2.337759615E0
1.458468275E1,-1.624756458E0,-1.182239177E0,-5.385858643E-1,2.080287901E0
1.459476275E1,-1.494409742E0,-1.176422367E0,6.130966410E-2,1.902889628E0
1.460484375E1,-1.274798847E0,-1.213451614E0,6.232253341E-1,1.867079735E0
1.461492475E1,-1.119959899E0,-1.176635790E0,9.123029052E-1,1.863083076E0
1.462500475E1,-1.218666161E0,-9.918900883E-1,1.003706580E0,1.864516039E0
1.463508575E1,-1.417379107E0,-7.731340563E-1,8.387501948E-1,1.819395969E0
1.464516675E1,-1.676664530E0,-6.443608260E-1,6.539045052E-1,1.911542812E0
1.465524675E1,-1.921073467E0,-5.605456674E-1,5.508372429E-1,2.075609881E0
1.466532775E1,-1.994636702E0,-4.530563021E-1,6.230282830E-1,2.138223521E0
1.467540875E1,-1.837075290E0,-1.731132513E-1,8.633763282E-1,2.037211944E0
1.468548875E1,-1.575614119E0,8.818712175E-2,1.084789627E0,1.914968761E0
1.469556975E1,-1.126977142E0,2.320333046E-1,1.229895154E0,1.684208723E0
1.470565075E1,-4.462402028E-1,1.662310785E-1,1.617765381E0,1.686394947E0
1.471573075E1,1.192644882E-1,1.751463282E-1,1.922479722E0,1.934122161E0
1.472581175E1,4.476131290E-1,3.130032080E-1,1.957492265E0,2.032265851E0
1.473589275E1,5.951296091E-1,3.832194972E-1,1.644791065E0,1.790635106E0
1.474597375E1,7.005619240E-1,5.268990344E-1,1.249868512E0,1.526624020E0
1.475605375E1,7.878064746E-1,6.225852102E-1,8.965259479E-1,1.346109268E0
1.476613475E1,8.983434087E-1,6.614814734E-1,7.398702697E-1,1.338651051E0
1.477621575E1,1.105003306E0,7.329742098E-1,7.906217627E-1,1.543815491E0
1.478629575E1,1.353845016E0,7.991617674E-1,9.524272299E-1,1.838116832E0
1.479637675E1,1.496385516E0,7.750285542E-1,1.141494171E0,2.035398687E0
1.480645775E1,1.607450454E0,8.610668242E-1,1.415788665E0,2.308633921E0
1.481653775E1,1.574021922E0,1.087339452E0,1.718880258E0,2.571847864E0
1.482661875E1,1.404685387E0,1.431819391E0,1.924552414E0,2.779775135E0
1.483669975E1,1.110578626E0,1.780735028E0,1.884054598E0,2.820294994E0
1.484677975E1,7.810821766E-1,1.917609576E0,1.635504225E0,2.638596203E0
1.485686075E1,6.180524486E-1,1.807695955E0,1.317796932E0,2.320849467E0
1.486694175E1,6.585859323E-1,1.565057555E0,9.320536302E-1,1.936973038E0
1.487702175E1,7.855406785E-1,1.355313252E0,7.592960358E-1,1.740826999E0
1.488710275E1,9.362947619E-1,1.152212555E0,6.087745254E-1,1.604633315E0
1.489718375E1,1.110068164E0,1.041784379E0,2.952054530E-1,1.550713475E0
1.490726375E1,1.235382766E0,9.315871686E-1,7.771125019E-2,1.549214081E0
1.491734475E1,1.333287376E0,8.253672338E-1,-1.561937481E-3,1.568084416E0
1.492742575E1,1.410030327E0,8.555944151E-1,7.298319161E-2,1.650925156E0
1.493750575E1,1.402338315E0,9.086912262E-1,2.929642153E-1,1.696496544E0
1.494758675E1,1.393827108E0,9.438569659E-1,5.685602997E-1,1.776761321E0
1.495766775E1,1.403958578E0,1.010235143E0,7.445785940E-1,1.883101701E0
1.496774775E1,1.463899555E0,1.021237264E0,5.643766169E-1,1.872017207E0
1.497782875E1,1.540131460E0,1.039853629E0,8.563832045E-2,1.860278045E0
1.498790975E1,1.440749259E0,1.059824209E0,-4.352708262E-1,1.840773336E0
1.499799075E1,1.063105667E0,9.326016605E-1,-7.604170932E-1,1.605669228E0
1.500807075E1,5.721453738E-1,7.080820280E-1,-5.529992509E-1,1.065147247E0
1.501815175E1,2.413596135E-1,5.185544729E-1,2.071943325E-1,6.083442248E-1
1.502823275E1,1.167414147E-1,4.049009728E-1,1.025757746E0,1.108941977E0
1.503831275E1,1.119133687E-1,3.023525047E-1,1.807370850E0,1.835900604E0
1.504839375E1,1.038962513E-1,1.594336903E-1,2.493214747E0,2.500466618E0
1.505847475E1,2.035211116E-1,1.070940936E-1,2.976264342E0,2.985136416E0
1.506855475E1,3.997466522E-1,2.075217766E-1,2.988658100E0,3.022406312E0
1.507863575E1,4.864567673E-1,4.086636561E-1,2.726078357E0,2.799133683E0
1.508871675E1,4.894090265E-1,5.524636459E-1,2.200655159E0,2.321124815E0
1.509879675E1,4.289260125E-1,4.744582808E-1,1.563846012E0,1.689586498E0
1.510887775E1,4.579685479E-1,3.139469486E-1,1.202032514E0,1.324077053E0
1.511895875E1,5.774721873E-1,1.998285949E-2,1.056347966E0,1.204053349E0
1.512903875E1,6.513026404E-1,-5.337279975E-2,1.144264435E0,1.317719577E0
1.513911975E1,6.333060801E-1,1.213098443E-1,1.286292134E0,1.438867653E0
1.514920075E1,6.286066729E-1,3.030927622E-1,1.348907043E0,1.518736903E0
1.515928075E1,8.771653783E-1,2.972408688E-1,1.373838986E0,1.656865955E0
1.516936175E1,1.446646761E0,-2.160546184E-2,1.641773025E0,2.188303524E0
1.517944275E1,2.099577851E0,-4.422968405E-1,2.022429103E0,2.948571370E0
1.518952275E1,2.462335017E0,-9.330051184E-1,2.179243825E0,3.417995894E0
1.519960375E1,2.543989044E0,-1.471423752E0,2.124647203E0,3.626443692E0
1.520968475E1,2.599656876E0,-1.853363879E0,2.217156587E0,3.887024167E0
1.521976475E1,2.528220273E0,-1.755876760E0,2.535703540E0,3.988081417E0
1.522984575E1,2.414662083E0,-1.216168815E0,2.719352889E0,3.834649879E0
1.523992675E1,2.213590370E0,-4.867374337E-1,2.833898674E0,3.628756998E0
1.525000675E1,1.835155649E0,2.470004225E-1,2.985927451E0,3.513483771E0
1.526008775E1,1.473625814E0,9.011693680E-1,2.993264537E0,3.455909700E0
1.527016875E1,1.139336402E0,1.554787506E0,2.804656749E0,3.403167804E0
1.528024875E1,1.024837979E0,2.334910739E0,2.333980447E0,3.456814396E0
1.529032975E1,1.190853880E0,3.126447152E0,1.755759816E0,3.778292907E0
1.530041075E1,1.373333786E0,3.648470778E0,1.069650455E0,4.042466673E0
1.531049075E1,1.499103886E0,4.113901543E0,4.541824393E-1,4.402019997E0
1.532057175E1,1.718272147E0,4.482843309E0,9.137451209E-2,4.801738498E0
1.533065275E1,1.888872850E0,4.627371862E0,-4.807288349E-1,5.021106572E0
1.534073375E1,2.103623539E0,4.554757045E0,-1.001556851E0,5.116068790E0
1.535081375E1,2.324457672E0,4.383237745E0,-1.372170921E0,5.147691680E0
1.536089475E1,2.529012571E0,4.057446676E0,-1.511740889E0,5.014393146E0
1.537097575E1,2.792014484E0,3.686391141E0,-1.618533266E0,4.899436137E0
1.538105575E1,2.973518490E0,3.330460600E0,-1.755114284E0,4.797312389E0
1.539113675E1,2.891032403E0,3.024782783E0,-1.945566430E0,4.614391398E0
1.540121775E1,2.710644631E0,2.753055655E0,-2.138885319E0,4.416077464E0
1.541129775E1,2.485305219E0,2.434832053E0,-2.184618001E0,4.108248406E0
1.542137875E1,2.215221158E0,1.927023008E0,-2.168554530E0,3.650102903E0
1.543146013E1,1.830219430E0,1.323734195E0,-2.137086131E0,3.109519659E0
1.544154013E1,1.397842391E0,7.790654719E-1,-2.005928845E0,2.566058629E0
1.545162113E1,9.321561027E-1,4.160381645E-1,-1.774558468E0,2.047207980E0
1.546170213E1,4.934605622E-1,2.957153302E-1,-1.415737794E0,1.528157186E0
1.547178213E1,1.621719414E-1,3.368680340E-1,-1.030441366E0,1.096170251E0
1.548186313E1,-2.947522938E-2,3.270084590E-1,-5.992214906E-1,6.832786519E-1
1.549194413E1,-1.485251248E-1,2.417139548E-1,-5.827408209E-2,2.896225428E-1
1.550202413E1,-1.325008303E-1,1.441455603E-1,3.721002857E-1,4.204676387E-1
1.551210513E1,-2.451860315E-1,4.565681398E-2,4.649505620E-1,5.276170579E-1
1.552218613E1,-3.343373591E-1,6.347912729E-2,2.808577015E-1,4.412392976E-1
1.553226613E1,-3.423579848E-1,2.668897265E-1,-4.823324338E-2,4.367671710E-1
1.554234713E1,-4.759896666E-1,3.282106465E-1,-4.190617597E-1,7.140736304E-1
1.555242813E1,-7.000748509E-1,3.256051272E-1,-6.692347352E-1,1.021762510E0
1.556250813E1,-8.714421237E-1,3.764852589E-1,-7.538600256E-1,1.212211806E0
1.557258913E1,-9.105933255E-1,4.334529269E-1,-5.840280855E-1,1.165397121E0
1.558267013E1,-9.046636641E-1,2.977156627E-1,-1.042141937E-1,9.580770111E-1
1.559275013E1,-6.989960396E-1,5.022231996E-2,6.297686608E-1,9.421922898E-1
1.560283113E1,-5.133200455E-1,-7.009408236E-2,1.270617941E0,1.372180966E0
1.561291213E1,-4.527925926E-1,-2.190366983E-2,1.844072507E0,1.898974543E0
1.562299213E1,-4.267923635E-1,2.117785496E-1,2.319683274E0,2.368107339E0
1.563307313E1,-3.140282249E-1,5.215114099E-1,2.544483134E0,2.616291707E0
1.564315412E1,-7.834625781E-2,7.436658436E-1,2.598297399E0,2.703761527E0
1.565323412E1,2.747273344E-1,9.392604697E-1,2.483284421E0,2.669154708E0
1.566331512E1,6.318115318E-1,1.144200701E0,1.980013254E0,2.372516289E0
1.567339612E1,8.129787380E-1,1.401016259E0,1.365442238E0,2.118540415E0
1.568347612E1,8.672485006E-1,1.600584653E0,8.307811707E-1,2.001046863E0
1.569355712E1,8.232745153E-1,1.776312779E0,4.202933295E-1,2.002427152E0
1.570363812E1,7.634060436E-1,1.872884808E0,1.470187359E-1,2.027831551E0
1.571371813E1,7.134743303E-1,1.892379425E0,1.914454418E-1,2.031451911E0
1.572379913E1,5.430782801E-1,1.765085540E0,5.035626505E-1,1.914167267E0
1.573388013E1,3.330720216E-1,1.393844649E0,8.734661373E-1,1.678297641E0
1.574396013E1,2.642081934E-1,9.242793185E-1,1.147909589E0,1.497262386E0
1.575404113E1,2.301265275E-1,4.703909576E-1,1.203797423E0,1.312765823E0
1.576412213E1,1.148293751E-1,8.273225427E-2,1.023956804E0,1.033691418E0
1.577420213E1,3.321101546E-2,-3.114484334E-1,8.670863865E-1,9.219229360E-1
1.578428313E1,-1.012030238E-1,-6.487047225E-1,7.307645470E-1,9.823831697E-1
1.579436413E1,-3.188317126E-1,-8.887943208E-1,6.462418753E-1,1.144219195E0
1.580444413E1,-3.972153926E-1,-1.093411201E0,5.655491298E-1,1.293512250E0
1.581452513E1,-1.687465507E-1,-1.216179925E0,5.957920986E-1,1.364748048E0
1.582460613E1,1.146592212E-1,-1.198081039E0,8.346672302E-1,1.464655010E0
1.583468613E1,1.795598066E-1,-1.010686548E0,1.166723006E0,1.554017887E0
1.584476713E1,6.024503231E-2,-7.926564476E-1,1.519595454E0,1.714964737E0
1.585484813E1,-9.585106730E-2,-6.701932400E-1,1.887582954E0,2.005321873E0
1.586492813E1,-2.746437192E-1,-5.168856776E-1,2.062414264E0,2.143863935E0
1.587500913E1,-3.646902555E-1,-3.877200991E-1,1.938519804E0,2.010269854E0
1.588509013E1,-1.651803339E-1,-4.113562989E-1,1.648353335E0,1.706917474E0
1.589517013E1,4.317262441E-1,-6.680408800E-1,1.320287261E0,1.541371019E0
1.590525113E1,1.053844262E0,-9.770548251E-1,1.081756384E0,1.798727532E0
1.591533213E1,1.542450466E0,-8.754731941E-1,7.252943306E-1,1.916157253E0
1.592541213E1,1.969073260E0,-3.203996435E-1,1.516900764E-1,2.000728696E0
1.593549313E1,2.015853909E0,1.549766502E-1,-2.501989956E-1,2.037224651E0
1.594557412E1,1.810526592E0,3.595104995E-1,-6.879297455E-1,1.969898900E0
1.595565412E1,1.447734343E0,3.869661006E-1,-9.511408424E-1,1.774921517E0
1.596573512E1,1.201506922E0,2.655080295E-1,-8.729299477E-1,1.508681574E0
1.597581612E1,1.096413161E0,2.063491175E-1,-7.483102870E-1,1.343380089E0
1.598589612E1,1.116017121E0,2.039830416E-1,-7.570287779E-1,1.363889976E0
1.599597712E1,1.240247650E0,1.259651050E-1,-7.941029026E-1,1.478066595E0
1.600605812E1,1.493689365E0,-1.091336024E-1,-6.820417455E-1,1.645660659E0
1.601613812E1,1.809477602E0,-4.466828370E-1,-4.133864522E-1,1.909089602E0
1.602621913E1,2.230463095E0,-7.589370167E-1,-9.944315806E-2,2.358143328E0
1.603630013E1,2.799938630E0,-1.035371446E0,1.876843666E-1,2.991132860E0
1.604638013E1,3.342982997E0,-1.265253267E0,5.160255522E-1,3.611465564E0
1.605646113E1,3.516590922E0,-1.496729332E0,9.225052732E-1,3.931618800E0
1.606654213E1,3.406597779E0,-1.602716840E0,1.124357589E0,3.929095276E0
1.607662213E1,3.137621182E0,-1.534620751E0,1.199456742E0,3.693023694E0
1.608670313E1,2.793562242E0,-1.518001210E0,1.197661647E0,3.397456563E0
1.609678413E1,2.466103547E0,-1.692681808E0,1.223142790E0,3.231550200E0
1.610686413E1,2.268071217E0,-2.095852297E0,1.334116949E0,3.364017231E0
1.611694513E1,2.131205440E0,-2.575542959E0,1.458599493E0,3.647323764E0
1.612702613E1,1.948639580E0,-3.020359072E0,1.484526778E0,3.888905359E0
1.613710613E1,1.589992422E0,-3.429480858E0,1.387718375E0,4.026807314E0
1.614718713E1,1.128596236E0,-3.755178663E0,1.157563342E0,4.088404230E0
1.615726813E1,7.870094991E-1,-3.987320434E0,9.235441773E-1,4.167858208E0
1.616734813E1,6.002868533E-1,-4.066956587E0,6.624905567E-1,4.164057388E0
1.617742913E1,4.528352773E-1,-4.076558593E0,4.011061299E-1,4.121198354E0
1.618751013E1,3.682091099E-1,-4.128419302E0,1.331204890E-1,4.146944049E0
1.619759013E1,4.102710557E-1,-4.370060752E0,-4.170190349E-2,4.389475181E0
1.620767113E1,4.617055035E-1,-4.883146031E0,-1.536867544E-1,4.907331939E0
1.621775213E1,2.981746691E-1,-5.428518174E0,-2.994576944E-1,5.444941929E0
1.622783213E1,-2.817597806E-2,-5.883190647E0,-5.026899536E-1,5.904695018E0
1.623791313E1,-5.172639924E-1,-6.261752252E0,-7.599854225E-1,6.328876768E0
1.624799412E1,-1.037660923E0,-6.480393679E0,-1.056054509E0,6.647367415E0
1.625807412E1,-1.562378361E0,-6.622935932E0,-1.378525237E0,6.942956023E0
1.626815512E1,-1.965061485E0,-6.742341338E0,-1.696545356E0,7.224880588E0
1.627823612E1,-2.308294213E0,-6.845776244E0,-1.965904069E0,7.487165911E0
1.628831612E1,-2.560720267E0,-6.802665308E0,-2.226703920E0,7.602088787E0
1.629839712E1,-2.684009394E0,-6.646120727E0,-2.461874256E0,7.578631275E0
1.630847812E1,-2.655785469E0,-6.499639789E0,-2.593982154E0,7.485135754E0
1.631855812E1,-2.544360343E0,-6.400051181E0,-2.550294097E0,7.344278362E0
1.632863913E1,-2.440037829E0,-6.383172024E0,-2.442443959E0,7.257010554E0
1.633872013E1,-2.397416305E0,-6.420963163E0,-2.374076267E0,7.253455108E0
1.634880013E1,-2.382766106E0,-6.544868587E0,-2.381939895E0,7.361149149E0
1.635888113E1,-2.402483502E0,-6.754465540E0,-2.342907391E0,7.542144705E0
1.636896213E1,-2.477941820E0,-6.896256427E0,-2.284419155E0,7.675748774E0
1.637904213E1,-2.486505067E0,-6.880057300E0,-2.271637141E0,7.660171748E0
1.638912313E1,-2.450408451E0,-6.725489663E0,-2.278108840E0,7.511756963E0
1.639920413E1,-2.278849390E0,-6.512162186E0,-2.292752899E0,7.270359464E0
1.640928413E1,-2.045457777E0,-6.235571344E0,-2.226341685E0,6.929851716E0
1.641936513E1,-1.811817073E0,-6.009395195E0,-1.967344238E0,6.577686149E0
1.642944650E1,-1.534018196E0,-5.834836512E0,-1.714214472E0,6.271926355E0
1.643952650E1,-1.246914060E0,-5.661063695E0,-1.440898948E0,5.973158847E0
1.644960750E1,-8.665860111E-1,-5.559156082E0,-1.187103768E0,5.750165477E0
1.645968850E1,-7.820574921E-1,-5.557498981E0,-1.063437788E0,5.712119464E0
1.646976850E1,-7.806798881E-1,-5.525238723E0,-1.005805000E0,5.670041246E0
1.647984950E1,-6.372079271E-1,-5.483569125E0,-8.760035366E-1,5.589539023E0
1.648993050E1,-3.381234312E-1,-5.514267007E0,-5.978409630E-1,5.556876991E0
1.650001050E1,5.891654491E-3,-5.691110197E0,-2.790455031E-1,5.697950191E0
1.651009150E1,2.822603023E-1,-5.838588086E0,-7.517940581E-2,5.845890322E0
1.652017250E1,3.944291943E-1,-5.850079619E0,1.364520863E-1,5.864948858E0
1.653025250E1,3.335742974E-1,-5.765910704E0,2.923303771E-1,5.782945193E0
1.654033350E1,1.614808005E-1,-5.454581553E0,4.086566395E-1,5.472251476E0
1.655041450E1,-4.481013715E-2,-4.959072711E0,5.378670953E-1,4.988357557E0
