"Time (s)","Linear Acceleration x (m/s^2)","Linear Acceleration y (m/s^2)","Linear Acceleration z (m/s^2)","Absolute acceleration (m/s^2)"
3.907958333E-3,5.719120699E0,-6.238444666E0,-9.033307328E0,1.237849646E1
1.387495833E-2,5.376866795E0,-6.338735524E0,-9.352109220E0,1.251208262E1
2.384195833E-2,5.017861787E0,-5.829289259E0,-6.236172438E0,9.901989540E0
3.380895833E-2,4.624295642E0,-5.587267156E0,-4.018745125E0,8.291681182E0
4.377595833E-2,3.634474298E0,-5.757783659E0,-4.894311290E0,8.385449248E0
5.374295833E-2,1.708078258E0,-6.043581526E0,-5.818079562E0,8.561101494E0
6.370995833E-2,-1.125591937E0,-4.701350834E0,-5.663938186E0,7.446465783E0
7.367695833E-2,-3.749857112E0,-3.136585640E0,-4.255955554E0,6.481724733E0
8.364395833E-2,-5.408899012E0,-2.650100221E0,1.373325015E0,6.177802303E0
9.361095833E-2,-6.281947365E0,-2.534229457E0,4.648258116E0,8.215320149E0
1.035779583E-1,-5.634636619E0,-3.795710685E0,5.728708963E0,8.886768582E0
1.135449583E-1,-5.113837400E0,-4.793042777E0,5.201129898E0,8.727906062E0
1.235119583E-1,-5.373572474E0,-4.759947537E0,4.018116842E0,8.226642367E0
1.334789583E-1,-5.679066687E0,-4.436003603E0,2.751375750E0,7.713623981E0
1.434459583E-1,-6.024585092E0,-4.140223369E0,2.299796601E0,7.663298212E0
1.534129583E-1,-6.974024979E0,-4.291459263E0,1.630679833E0,8.349416970E0
1.633799583E-1,-7.493975183E0,-4.551308942E0,-3.750673091E-1,8.775804955E0
1.733469583E-1,-6.302889753E0,-3.873127236E0,8.225205168E-1,7.443391285E0
1.833139583E-1,-4.417575226E0,-2.856133881E0,3.553847626E0,6.348409610E0
1.932809583E-1,-2.819223917E0,-2.172770373E0,4.355547378E0,5.624922004E0
2.032479583E-1,-1.882630070E0,-6.136951035E-1,4.413962524E0,4.837766305E0
2.132149583E-1,-1.512841920E0,1.438118597E0,6.160277917E0,6.504298563E0
2.231819583E-1,-2.423226500E-1,2.083855857E0,6.634414601E0,6.958206134E0
2.331489583E-1,1.944169384E0,1.628285252E0,6.360376654E0,6.847298638E0
2.431159583E-1,4.209609938E0,1.247873003E0,4.852993110E0,6.544428546E0
2.530829583E-1,5.676154774E0,1.464114733E0,3.258634280E0,6.706792254E0
2.630499583E-1,4.290908748E0,3.508532875E0,3.726153670E0,6.678766502E0
2.730169583E-1,2.102474269E0,5.507683042E0,4.925493321E0,7.682151717E0
2.829839583E-1,5.564070082E-1,5.887670199E0,5.855125766E0,8.322063858E0
2.929509583E-1,-8.890651200E-1,5.687978429E0,6.204584609E0,8.464065546E0
3.029179583E-1,-2.084614533E0,5.875999741E0,6.632211370E0,9.102703904E0
3.128849583E-1,-3.065540800E0,5.837727376E0,6.757382716E0,9.441335842E0
3.228519583E-1,-4.056357340E0,6.102139052E0,6.308666217E0,9.668991950E0
3.328179583E-1,-4.944205581E0,6.714743650E0,5.831642178E0,1.017550989E1
3.427849583E-1,-5.308579502E0,7.405605043E0,5.560185192E0,1.067425228E1
3.527519583E-1,-5.047273282E0,7.730517275E0,5.140015969E0,1.056672272E1
3.627189583E-1,-4.490347626E0,7.637234890E0,4.588513898E0,9.977225985E0
3.726859583E-1,-4.077756979E0,7.490868557E0,3.863438692E0,9.363085616E0
3.826529583E-1,-3.858151932E0,7.300246403E0,3.185897548E0,8.850360279E0
3.926199583E-1,-3.570622119E0,7.094382312E0,3.107820555E0,8.528666444E0
4.025869583E-1,-3.281309197E0,6.719820203E0,2.930245293E0,8.031768864E0
4.125539583E-1,-3.012822011E0,6.026470234E0,2.158582689E0,7.074950119E0
4.225209583E-1,-2.450936162E0,4.820395467E0,8.752179632E-1,5.478075120E0
4.324879583E-1,-1.665222114E0,3.024112108E0,-1.495909553E0,3.762441244E0
4.424549583E-1,-1.021870809E0,4.198493797E-1,-6.577758590E0,6.669887669E0
4.524219583E-1,-3.655533046E-2,-4.138953354E0,-1.568831465E1,1.622514986E1
4.623889583E-1,2.445933869E0,-1.202951068E1,-2.298652740E1,2.605901305E1
4.723559583E-1,7.031347573E0,-2.219893084E1,-2.079037868E1,3.121653768E1
4.823229583E-1,1.019895094E1,-2.590138779E1,-1.075190692E1,2.984131351E1
4.922899583E-1,1.058254700E1,-2.082139933E1,-3.305529534E0,2.358913938E1
5.022569583E-1,1.006108295E1,-1.091551669E1,-1.255090222E-1,1.484552617E1
5.122239583E-1,7.067748245E0,-2.123357892E0,-1.015022551E0,7.449294246E0
5.221909583E-1,3.836865728E0,6.910104972E-1,-1.503199569E0,4.178354110E0
5.321579583E-1,5.547086113E-1,3.008021740E0,-1.479035365E0,3.397564134E0
5.421249583E-1,-1.481865710E0,5.387039781E0,-1.389059873E0,5.757222500E0
5.520919583E-1,-3.818475650E0,6.130339004E0,-2.280437493E0,7.573784242E0
5.620589583E-1,-6.755787011E0,4.757951297E0,-2.831688134E0,8.734827781E0
5.720259583E-1,-9.743428865E0,1.408725813E0,-1.926659019E0,1.003149687E1
5.819929583E-1,-1.193004837E1,-3.447791998E0,-1.025196998E0,1.246051173E1
5.919599583E-1,-1.212478404E1,-8.059080509E0,-5.706481943E-1,1.456999677E1
6.019269583E-1,-9.537160732E0,-1.001714580E1,-5.558222866E0,1.490618953E1
6.118939583E-1,-3.974291960E0,-6.796726291E0,-3.795977318E0,8.740705273E0
6.218609583E-1,-2.442444397E0,1.506695327E0,5.440698509E0,6.151167833E0
6.318275833E-1,-2.887202477E0,6.301959461E0,9.904929546E0,1.208959307E1
6.417945833E-1,-3.630171917E0,8.876069267E0,9.814286009E0,1.372162394E1
6.517615833E-1,-4.725570294E0,1.020417250E1,7.282297790E0,1.339731362E1
6.617285833E-1,-5.869001793E0,8.908374549E0,5.781208189E0,1.213370048E1
6.716955833E-1,-5.848321946E0,5.376383230E0,4.589476642E0,9.174511544E0
6.816625833E-1,-5.405090135E0,3.348452482E0,4.720473568E0,7.918964838E0
6.916295833E-1,-5.210434572E0,2.473548222E0,4.762801563E0,7.480063366E0
7.015965833E-1,-5.051022516E0,7.441885847E-1,5.249654771E0,7.322944785E0
7.115635833E-1,-5.220419862E0,-3.300861994E0,6.362542462E0,8.867379547E0
7.215305833E-1,-4.878965857E0,-8.504560574E0,7.439707174E0,1.230776589E1
7.314975833E-1,-3.443496341E0,-8.153309559E0,8.085767201E0,1.198806719E1
7.414645833E-1,-1.780085987E0,-5.508475340E0,8.057302955E0,9.921297174E0
7.514315833E-1,-1.028563149E-1,-4.727544022E0,7.712815415E0,9.046975932E0
7.613985833E-1,1.397777486E0,-3.961180456E0,7.810192605E0,8.868136278E0
7.713655833E-1,2.474226792E0,-3.069678290E0,6.971765031E0,8.009383913E0
7.813325833E-1,3.236854571E0,-2.024021884E0,5.493215861E0,6.689492701E0
7.912995833E-1,3.703249834E0,-6.455144817E-1,4.348473709E0,5.748040698E0
8.012665833E-1,3.786818532E0,6.003909338E-1,2.946601417E0,4.835589290E0
8.112335833E-1,4.033198857E0,1.515813475E0,-2.123603841E-1,4.313870703E0
8.212005833E-1,4.703369001E0,2.000047715E0,-5.569037876E0,7.558839441E0
8.311675833E-1,4.610829504E0,9.685795784E-1,-7.113728995E0,8.532469474E0
8.411345833E-1,4.135281302E0,-3.319329840E-1,-5.800064875E0,7.131022613E0
8.511015833E-1,3.728772638E0,-6.522007728E-1,-3.739893165E0,5.321269784E0
8.610685833E-1,2.976164647E0,6.048652232E-2,-2.931976361E0,4.178241258E0
8.710355833E-1,2.266852657E0,9.959778768E-1,-3.248406622E0,4.084450818E0
8.810025833E-1,1.833181337E0,1.094298808E0,-3.042771158E0,3.717055288E0
8.909695833E-1,1.466071503E0,1.002767664E0,-1.874522613E0,2.582391076E0
9.009365833E-1,9.629190351E-1,1.129851633E0,-8.700661276E-1,1.720695455E0
9.109035833E-1,3.941562025E-1,1.417330576E0,-3.080840186E-1,1.503030550E0
9.208705833E-1,-2.255029880E-2,1.615569897E0,-2.424081655E-1,1.633810371E0
9.308375833E-1,-4.231553954E-1,1.802958541E0,-3.912980103E-1,1.892837585E0
9.408045833E-1,-8.478677581E-1,2.182697775E0,-6.104298721E-1,2.419849983E0
9.507715833E-1,-1.243471366E0,2.455260471E0,-9.421909480E-1,2.908994465E0
9.607385833E-1,-1.751998010E0,2.285868387E0,-1.741327718E0,3.365548029E0
9.707055833E-1,-2.293715789E0,1.357148693E0,-2.807869501E0,3.871319650E0
9.806725833E-1,-2.212519452E0,2.615523881E-1,-2.904045966E0,3.660209687E0
9.906395833E-1,-1.366350018E0,-4.115796626E-1,-2.393314191E0,2.786442715E0
1.000606583E0,-4.094945455E-1,-7.421999466E-1,-2.210590748E0,2.367542608E0
1.010573583E0,6.656072688E-1,-1.188227895E0,-2.455129493E0,2.807593168E0
1.020540583E0,1.615452076E0,-1.900197737E0,-2.821253778E0,3.765622091E0
1.030507583E0,2.494102939E0,-2.592131510E0,-3.101818680E0,4.749839404E0
1.040474583E0,3.342935050E0,-3.306166588E0,-3.016869162E0,5.586363020E0
1.050441583E0,4.051411180E0,-4.143026524E0,-2.577663159E0,6.342156470E0
1.060408583E0,4.609818813E0,-4.505676101E0,-2.079839405E0,6.773276797E0
1.070375583E0,4.989860641E0,-3.796832181E0,-1.727484728E0,6.503756400E0
1.080342583E0,5.133144321E0,-2.525565053E0,-1.028612357E0,5.812546158E0
1.090309583E0,5.176652868E0,-1.965135160E0,2.847594023E-4,5.537101335E0
1.100276583E0,5.273676302E0,-2.250236624E0,6.957846026E-1,5.775754740E0
1.110243583E0,5.358128223E0,-2.842984663E0,4.259426169E-1,6.080586070E0
1.120210583E0,5.176220759E0,-3.462104228E0,-8.131633638E-1,6.280180068E0
1.130177583E0,4.586995961E0,-3.994658689E0,-1.807640991E0,6.345502024E0
1.140144583E0,3.831182527E0,-3.851548086E0,-2.399466923E0,5.938840268E0
1.150111583E0,3.082140168E0,-3.617409199E0,-3.402100393E0,5.844614993E0
1.160078583E0,2.625146351E0,-3.535614839E0,-5.538049972E0,7.075447911E0
1.170045583E0,2.672628081E0,-2.743320041E0,-6.905390362E0,7.896401824E0
1.180012583E0,3.535395568E0,-2.406392950E0,-6.059656107E0,7.416817443E0
1.189979583E0,4.263497293E0,-2.792246034E0,-5.532681059E0,7.522274043E0
1.199946583E0,4.194788416E0,-3.479655815E0,-6.354061661E0,8.371281505E0
1.209913583E0,3.170265602E0,-3.651844037E0,-6.356971235E0,7.987341995E0
1.219880583E0,1.587160762E0,-2.865030420E0,-4.815731728E0,5.823980655E0
1.229847583E0,-7.680617429E-2,-2.512577217E0,-1.184990877E0,2.779055026E0
1.239814583E0,-1.519978739E0,-2.427991396E0,2.974938194E0,4.129858937E0
1.249781583E0,-2.443120774E0,-3.053810701E0,4.353787658E0,5.852355584E0
1.259748583E0,-2.923130401E0,-3.509943223E0,4.545612584E0,6.444143584E0
1.269715583E0,-2.828945498E0,-3.839625029E0,4.542543966E0,6.586376748E0
1.279682583E0,-2.556076993E0,-4.266575267E0,4.170440025E0,6.490744496E0
1.289649583E0,-2.601589381E0,-4.881163825E0,3.425523462E0,6.506015569E0
1.299616583E0,-3.416132542E0,-5.551964006E0,2.062453294E0,6.837249407E0
1.309583583E0,-4.634499325E0,-6.369272608E0,-3.669969821E-1,7.885486943E0
1.319550583E0,-4.957912039E0,-7.132315539E0,-1.688933450E0,8.848915919E0
1.329517583E0,-4.699588776E0,-6.496432006E0,-8.461760125E-1,8.062616035E0
1.339484583E0,-4.634896936E0,-4.524779540E0,8.908212581E-1,6.538307274E0
1.349451583E0,-4.097893328E0,-2.743454527E0,3.045257978E0,5.795935527E0
1.359418583E0,-2.635037501E0,-1.051083791E0,4.335355773E0,5.181072229E0
1.369385583E0,-1.355707939E0,8.286562926E-1,6.662499948E0,6.849344554E0
1.379352583E0,-3.298090560E-1,1.537970914E0,7.491651499E0,7.654996455E0
1.389319583E0,4.245755379E-1,1.326669497E0,6.335894362E0,6.487208468E0
1.399286583E0,7.386777301E-1,1.218784275E0,3.161093367E0,3.467505036E0
1.409253583E0,1.069038983E0,1.087331851E0,1.288672243E0,1.996449611E0
1.419220583E0,1.302886093E0,1.111636387E0,2.450255546E0,2.989481539E0
1.429187583E0,7.361928096E-1,1.578385114E0,5.138291625E0,5.425432725E0
1.439154583E0,-8.230267395E-1,2.228905397E0,5.388979887E0,5.889524302E0
1.449121583E0,-2.269005456E0,2.575574534E0,5.348072766E0,6.354829050E0
1.459088583E0,-3.402998233E0,3.221367928E0,5.360689888E0,7.120014352E0
1.469055583E0,-4.443778646E0,4.795451830E0,5.382750263E0,8.468620154E0
1.479022583E0,-5.380010843E0,6.583271345E0,5.379529617E0,1.006097993E1
1.488989583E0,-6.124422791E0,7.698084524E0,5.024729927E0,1.104612922E1
1.498956583E0,-6.370348495E0,8.328409694E0,4.795168240E0,1.152984763E1
1.508922583E0,-6.420339265E0,8.589718838E0,4.338909710E0,1.156849876E1
1.518889583E0,-6.090959176E0,8.744545507E0,3.823523259E0,1.132193402E1
1.528856583E0,-5.494999262E0,8.892038598E0,3.564188720E0,1.104385841E1
1.538823583E0,-4.882303155E0,8.713817219E0,3.403549626E0,1.055232887E1
1.548790583E0,-4.501218184E0,8.526771222E0,3.030941656E0,1.010709651E1
1.558757583E0,-4.196408679E0,8.280552573E0,2.801360381E0,9.696649767E0
1.568724583E0,-3.990616509E0,7.622244383E0,2.039903799E0,8.842219013E0
1.578691583E0,-3.886615300E0,6.681724423E0,9.451471540E-1,7.787459336E0
1.588658583E0,-3.694432232E0,5.734058581E0,6.632701367E-2,6.821484927E0
1.598625583E0,-3.359794034E0,4.567197581E0,-5.959318471E-1,5.701109055E0
1.608592583E0,-2.947369741E0,2.954213907E0,-2.100808982E0,4.672019540E0
1.618559583E0,-2.410857884E0,4.755014241E-2,-5.901980674E0,6.375568417E0
1.628529833E0,-1.038450005E0,-6.060274742E0,-1.367581295E1,1.499443791E1
1.638496833E0,4.802616716E0,-1.961912993E1,-2.192949348E1,2.981405828E1
1.648463833E0,1.298548249E1,-3.328777771E1,-1.549392631E1,3.894561147E1
1.658430833E0,1.570159485E1,-3.019103383E1,-6.530142374E0,3.465084940E1
1.668397833E0,1.364185583E1,-1.725876802E1,-5.189794486E0,2.260308101E1
1.678364833E0,9.727191732E0,-2.973941243E0,-2.840048776E0,1.056070370E1
1.688331833E0,7.379322978E0,1.897030300E0,-2.789202558E0,8.113740351E0
1.698298833E0,5.335290168E0,3.635675316E0,-3.791891284E0,7.487449211E0
1.708265833E0,2.780674978E0,5.751088597E0,-3.636872534E0,7.350783306E0
1.718232833E0,2.005989656E-2,7.623273493E0,-2.463266771E0,8.011390911E0
1.728199833E0,-3.620588915E0,7.828859257E0,-8.930955327E-1,8.671638887E0
1.738166833E0,-7.595540149E0,4.926252875E0,1.854133372E0,9.241104269E0
1.748133833E0,-9.610860792E0,-5.632014728E-1,5.076554968E0,1.088380684E1
1.758100833E0,-9.230232781E0,-5.677401985E0,7.902977393E0,1.341220124E1
1.768067833E0,-7.750467975E0,-8.798847429E0,1.003295082E1,1.543209552E1
1.778034833E0,-5.569765270E0,-8.334771464E0,4.928007624E0,1.117031601E1
1.788001833E0,-2.299173434E0,-2.204907839E0,2.770884401E0,4.222039486E0
1.797968833E0,-1.035221099E0,2.242678514E0,-1.310791529E0,2.796330465E0
1.807935833E0,7.382080525E-2,3.721765627E0,-1.108007722E1,1.168867401E1
1.817902833E0,-9.735328279E-1,6.381470484E0,-6.584522649E0,9.221001585E0
1.827869833E0,-3.277779233E0,6.616315715E0,1.780648051E0,7.595405046E0
1.837836833E0,-5.000937606E0,4.650799316E0,6.734585592E0,9.591347888E0
1.847803833E0,-5.005249928E0,2.293015439E0,7.664934905E0,9.437249267E0
1.857770833E0,-4.364405325E0,2.475407052E-1,7.724919151E0,8.876017470E0
1.867737833E0,-4.129383801E0,-1.941423531E0,7.827607952E0,9.060484653E0
1.877704833E0,-3.967182038E0,-3.362738984E0,7.675548770E0,9.271493716E0
1.887671833E0,-3.557836597E0,-3.944376143E0,7.562472975E0,9.241607107E0
1.897638833E0,-2.884969133E0,-4.209527493E0,7.708286161E0,9.244503456E0
1.907605833E0,-2.027140204E0,-3.379183694E0,7.965218664E0,8.886669129E0
1.917572833E0,-1.037774944E0,-1.790398722E0,8.098290768E0,8.358517678E0
1.927539833E0,2.977932114E-2,-6.904064798E-1,7.557435014E0,7.588963823E0
1.937506833E0,7.936761289E-1,-1.214004761E-1,5.918407842E0,5.972621808E0
1.947473833E0,1.301491971E0,4.630994797E-2,4.676058118E0,4.854023639E0
1.957440833E0,1.681889602E0,1.947818631E-1,3.828405976E0,4.186094233E0
1.967407833E0,1.862086170E0,4.867643309E-1,2.392998734E0,3.070952191E0
1.977374833E0,1.682257246E0,4.214684737E-1,8.538595462E-1,1.933054898E0
1.987341833E0,1.247092985E0,2.515583271E-1,-1.260184316E0,1.790694562E0
1.997308833E0,7.767795029E-1,2.041146040E-1,-4.595250183E0,4.664908725E0
2.007275833E0,5.923598561E-1,1.995245397E-1,-8.225259547E0,8.248975382E0
2.017242833E0,5.788585621E-1,5.135434091E-1,-8.564220300E0,8.599108873E0
2.027209833E0,4.613287966E-1,9.849184531E-1,-5.440303237E0,5.547953491E0
2.037176833E0,3.012087893E-1,1.545480493E0,-2.062427566E0,2.594772467E0
2.047143833E0,-1.283016524E-1,2.138842489E0,-1.046828188E0,2.384734316E0
2.057110833E0,-5.347052135E-1,2.256194937E0,-1.569499539E0,2.799938225E0
2.067077833E0,-8.367130248E-1,2.114984679E0,-2.051751281E0,3.063157227E0
2.077044833E0,-7.339131264E-1,1.802915272E0,-1.766145202E0,2.628383691E0
2.087011833E0,-5.114955680E-1,1.347575632E0,-1.313902248E0,1.950365842E0
2.096978833E0,-3.870675498E-1,1.315435241E0,-1.418695316E0,1.973040182E0
2.106945833E0,-3.312263480E-1,1.605213309E0,-2.205238792E0,2.747635127E0
2.116912833E0,-8.124282226E-2,1.530258436E0,-2.768203160E0,3.164054363E0
2.126879833E0,7.302634406E-1,5.937718856E-1,-1.908244675E0,2.127732945E0
2.136846833E0,1.725016618E0,-7.912814748E-1,-9.460373926E-1,2.120564890E0
2.146813833E0,2.621025526E0,-2.102161735E0,-8.590676612E-1,3.467975781E0
2.156780833E0,3.132338222E0,-3.317373362E0,-1.336664435E0,4.754280237E0
2.166747833E0,3.585134323E0,-3.833462648E0,-2.189426751E0,5.687021496E0
2.176714833E0,3.986408561E0,-3.517969696E0,-2.603421898E0,5.919912970E0
2.186681833E0,4.221956919E0,-3.116329131E0,-2.666467162E0,5.886125602E0
2.196648833E0,4.253210871E0,-2.847487603E0,-3.056199873E0,5.961404703E0
2.206615833E0,4.177364590E0,-2.812448748E0,-3.404506815E0,6.078725980E0
2.216582833E0,4.000917549E0,-2.879133319E0,-2.842906895E0,5.690243362E0
2.226549833E0,3.881447824E0,-2.511020104E0,-1.598087600E0,4.891292584E0
2.236516833E0,3.940046572E0,-1.976214464E0,-3.652220598E-1,4.422982902E0
2.246483833E0,3.978285024E0,-1.886427544E0,1.844764379E-1,4.406743942E0
2.256450833E0,3.835297212E0,-2.377870817E0,-4.486752757E-1,4.534874181E0
2.266417833E0,3.618181617E0,-3.218584068E0,-1.904931058E0,5.203775932E0
2.276384833E0,3.432139002E0,-3.791353340E0,-3.491996364E0,6.192574334E0
2.286351833E0,3.705989546E0,-4.185558586E0,-4.939150078E0,7.459789722E0
2.296318833E0,4.434734173E0,-4.827508020E0,-5.820333663E0,8.766298239E0
2.306285833E0,5.320873858E0,-4.832831910E0,-5.175316195E0,8.857305493E0
2.316252833E0,5.696587869E0,-4.030451835E0,-3.531961498E0,7.821151282E0
2.326219833E0,5.503002346E0,-3.895103996E0,-2.597078839E0,7.224935187E0
2.336186833E0,5.230337325E0,-4.285865816E0,-3.821307456E0,7.767075705E0
2.346152833E0,4.141320599E0,-4.709543953E0,-5.345452044E0,8.240400361E0
2.356119833E0,1.614080173E0,-4.523683771E0,-5.162781519E0,7.051473795E0
2.366086833E0,-7.883850566E-1,-4.585331551E0,-3.283426182E0,5.694532810E0
2.376053833E0,-2.775994575E0,-4.335943125E0,4.510097766E-1,5.168167807E0
2.386020833E0,-4.266515041E0,-3.314306497E0,3.431864183E0,6.400427323E0
2.395987833E0,-4.196763021E0,-3.604350613E0,5.051479769E0,7.491435847E0
2.405954833E0,-3.696330823E0,-4.822365979E0,5.108843293E0,7.938410104E0
2.415921833E0,-3.967686361E0,-5.420658932E0,4.529670736E0,8.102098203E0
2.425888833E0,-4.817071910E0,-5.284460907E0,3.220104929E0,7.842116080E0
2.435855833E0,-5.368046855E0,-4.864462423E0,2.154794862E0,7.557913905E0
2.445822833E0,-5.846176018E0,-4.906130852E0,8.074808934E-1,7.674628288E0
2.455789833E0,-6.561006902E0,-5.114855985E0,-5.979000199E-1,8.340626340E0
2.465756833E0,-6.317651049E0,-4.402159334E0,-4.285178769E-1,7.712026268E0
2.475723833E0,-5.306584432E0,-3.475486166E0,1.336495889E0,6.482674115E0
2.485690833E0,-3.629407686E0,-2.620851279E0,3.830727321E0,5.892022860E0
2.495657833E0,-2.522844343E0,-1.260313540E0,4.690460980E0,5.472984378E0
2.505624833E0,-2.308355024E0,1.104866481E-1,4.258299118E0,4.844979009E0
2.515591833E0,-2.168449280E0,1.419851310E0,4.926699017E0,5.566912361E0
2.525558833E0,-1.206921663E0,1.920011612E0,6.536005962E0,6.918271347E0
2.535525833E0,4.745109057E-1,1.880492620E0,6.673172286E0,6.949290715E0
2.545492833E0,2.915001310E0,1.995593306E0,3.429620022E0,4.923608308E0
2.555459833E0,3.329810974E0,3.392827002E0,2.598301199E0,5.417571902E0
2.565426833E0,1.536584685E0,5.273228406E0,4.934277009E0,7.383435509E0
2.575393833E0,-4.034168033E-1,5.550583479E0,4.500480558E0,7.157237409E0
2.585360833E0,-1.827667266E0,4.476246480E0,4.336408271E0,6.494735321E0
2.595327833E0,-2.901743333E0,4.792691360E0,5.278669825E0,7.697685363E0
2.605294833E0,-3.843466065E0,5.937261604E0,5.991082885E0,9.269108959E0
2.615261833E0,-4.569894609E0,7.270036179E0,6.198432169E0,1.059046383E1
2.625228833E0,-4.873605714E0,8.309304501E0,5.739946142E0,1.121354340E1
2.635192333E0,-4.946418752E0,8.965700651E0,4.986229520E0,1.138917607E1
2.645159333E0,-5.000035381E0,9.271153935E0,4.215647188E0,1.134576266E1
2.655126333E0,-5.067189483E0,9.273995681E0,3.628501952E0,1.117360423E1
2.665093333E0,-5.102438253E0,9.185609170E0,3.285150233E0,1.100920088E1
2.675060333E0,-5.173433391E0,9.069217418E0,2.763955158E0,1.080067432E1
2.685027333E0,-5.158722966E0,8.733113616E0,2.062515274E0,1.035053937E1
2.694994333E0,-5.050185780E0,8.169775318E0,1.327093420E0,9.695915743E0
2.704961333E0,-4.873109871E0,7.323178598E0,1.007235521E0,8.853850461E0
2.714928333E0,-4.463579949E0,5.934805773E0,1.001087466E0,7.493173003E0
2.724895333E0,-3.918594308E0,4.046295451E0,8.430223167E-3,5.632757699E0
2.734862333E0,-3.222771844E0,1.113701624E0,-3.212515243E0,4.684745869E0
2.744829333E0,-2.439091165E0,-4.335878806E0,-1.140657522E1,1.244423436E1
2.754796333E0,1.767438168E0,-1.586452050E1,-2.371795092E1,2.858929947E1
2.764763333E0,1.130669776E1,-3.152491236E1,-2.347418050E1,4.089863890E1
2.774730333E0,1.491398543E1,-3.508482822E1,-1.034638965E1,3.950215072E1
2.784697333E0,1.392517565E1,-2.494357176E1,-4.783654780E0,2.896507625E1
2.794664333E0,1.110325558E1,-7.625779610E0,-2.098981727E0,1.363233375E1
2.804631333E0,8.732470422E0,1.221147720E0,-1.663530514E0,8.972991429E0
2.814598333E0,6.133491238E0,3.611822770E0,-3.574050049E0,7.964848538E0
2.824565333E0,2.529648456E0,4.913008931E0,-4.409487065E0,7.069678511E0
2.834532333E0,-1.745550139E0,5.679462544E0,-3.795653090E0,7.050547671E0
2.844499333E0,-5.409898885E0,5.501702510E0,-1.622304574E0,7.884643847E0
2.854466333E0,-7.597418275E0,4.579167416E0,2.820459434E0,9.308304361E0
2.864433333E0,-8.405835600E0,2.334616624E0,7.811059163E0,1.170987413E1
2.874400333E0,-7.910061879E0,-7.517116123E-1,1.089004037E1,1.348062048E1
2.884367333E0,-6.318616424E0,-2.748787773E0,1.323337520E1,1.491988495E1
2.894334333E0,-4.578381258E0,-2.557927637E0,9.661580125E0,1.099321151E1
2.904301333E0,-2.699213032E0,-1.585333360E0,2.499817423E0,4.006010485E0
2.914268333E0,-1.629867217E0,-5.080552125E-1,-4.070291255E0,4.413825794E0
2.924235333E0,-9.970940372E-1,-1.305830605E0,-1.347323032E1,1.357303670E1
2.934202333E0,-2.146129873E0,3.089002168E-1,-1.027512145E1,1.050140055E1
2.944169333E0,-4.004410383E0,3.102218630E0,-1.676946366E-1,5.068252602E0
2.954136333E0,-5.656270148E0,3.810731013E0,4.989398711E0,8.450394211E0
2.964103333E0,-5.699066504E0,3.014494607E0,5.753760774E0,8.641313546E0
2.974070333E0,-5.144383255E0,2.829550685E0,5.745297514E0,8.214589440E0
2.984037333E0,-4.348749990E0,2.447136934E0,5.666992772E0,7.550821990E0
2.994004333E0,-4.192094896E0,1.028162706E0,5.317790036E0,6.849063369E0
3.003971333E0,-4.726064676E0,-1.608062657E0,5.382475444E0,7.341157588E0
3.013938333E0,-5.073670537E0,-3.769887042E0,5.655770795E0,8.481858541E0
3.023905333E0,-4.537823216E0,-3.859803185E0,6.128726342E0,8.546999868E0
3.033872333E0,-3.231175463E0,-2.474926996E0,6.580550051E0,7.737531743E0
3.043839333E0,-1.877113515E0,-9.315023839E-1,6.786570847E0,7.102731566E0
3.053805333E0,-8.326739144E-1,3.048843491E-1,6.957773813E0,7.014051379E0
3.063772333E0,-5.247755449E-2,6.595162243E-1,6.480446888E0,6.514131363E0
3.073739333E0,4.842573372E-1,7.398411798E-1,5.546658243E0,5.616697233E0
3.083706333E0,8.164730340E-1,6.360343909E-1,4.914925064E0,5.022714042E0
3.093673333E0,1.014909407E0,5.121383232E-1,4.291031832E0,4.439063071E0
3.103640333E0,1.155075425E0,2.462104636E-1,2.912154300E0,3.142524701E0
3.113607333E0,1.283697140E0,3.810221136E-2,1.122079587E0,1.705401045E0
3.123574333E0,1.463529134E0,-7.127171159E-3,-3.653573315E-2,1.464002453E0
3.133541333E0,1.759941599E0,-1.186645639E-1,-7.336355299E-1,1.910417965E0
3.143508333E0,2.034631949E0,-2.257317603E-1,-1.356299093E0,2.455652505E0
3.153475333E0,2.006068301E0,-2.336798805E-1,-2.299195946E0,3.060264419E0
3.163442333E0,1.779570263E0,-1.580502391E-2,-3.414197990E0,3.850177663E0
3.173409333E0,1.327415309E0,4.463612401E-1,-4.640845601E0,4.847547592E0
3.183376333E0,8.739399080E-1,1.001402923E0,-5.315804906E0,5.479448930E0
3.193343333E0,5.408297333E-1,1.508115031E0,-5.384785094E0,5.618079588E0
3.203310333E0,2.669046369E-1,2.001572084E0,-5.087869331E0,5.473933067E0
3.213277333E0,-6.550650313E-2,2.252050431E0,-4.671632653E0,5.186537756E0
3.223244333E0,-3.653748183E-1,2.260599060E0,-4.494180183E0,5.043953052E0
3.233211333E0,-5.630105612E-1,1.854110568E0,-4.023635736E0,4.465909922E0
3.243178333E0,-3.549259901E-1,1.124717778E0,-2.911954910E0,3.141726267E0
3.253145333E0,4.799138792E-1,5.024278522E-2,-1.176954610E0,1.272031376E0
3.263112333E0,1.847601009E0,-1.083466256E0,7.549578403E-1,2.271010779E0
3.273079333E0,2.971044240E0,-1.917200271E0,1.247638822E0,3.749581762E0
3.283046333E0,3.408853635E0,-2.438798804E0,2.013791303E-1,4.196257412E0
3.293013333E0,3.766512614E0,-2.541209863E0,-1.493352858E0,4.782725959E0
3.302980333E0,4.084207920E0,-2.379812093E0,-2.991402783E0,5.593992362E0
3.312947333E0,4.204078765E0,-2.529153489E0,-4.162210069E0,6.433885940E0
3.322914333E0,4.205375677E0,-2.619779484E0,-4.867278442E0,6.945417811E0
3.332881333E0,4.002669960E0,-2.376273358E0,-4.482279637E0,6.462110540E0
3.342848333E0,3.799425714E0,-1.922534101E0,-2.716860806E0,5.051049966E0
3.352815333E0,3.864927393E0,-1.543267906E0,-6.182718654E-1,4.207326905E0
3.362782333E0,4.071157227E0,-1.498351935E0,5.472670792E-1,4.372514259E0
3.372749333E0,4.370502801E0,-1.860787504E0,9.186192137E-1,4.838149040E0
3.382716333E0,4.712142163E0,-2.658720186E0,1.135235749E0,5.528276133E0
3.392683333E0,4.987182616E0,-3.784123843E0,9.533785719E-1,6.332496696E0
3.402650333E0,5.265360977E0,-4.480434841E0,-2.098451677E-1,6.916817012E0
3.412617333E0,5.317137487E0,-4.598842127E0,-3.067406062E0,7.670089955E0
3.422584333E0,5.060582714E0,-4.746083788E0,-6.623841666E0,9.592188861E0
3.432551333E0,4.676293469E0,-4.689479817E0,-9.127329971E0,1.127683883E1
3.442518333E0,4.549318550E0,-4.042248593E0,-8.268848786E0,1.026693397E1
3.452485333E0,4.603111179E0,-3.455438402E0,-4.804545420E0,7.497489165E0
3.462452333E0,4.291359568E0,-4.265686491E0,-3.221677245E0,6.855002002E0
3.472419333E0,3.366286490E0,-5.861840124E0,-4.584339863E0,8.167571631E0
3.482386333E0,1.386222365E0,-6.730127090E0,-5.215165554E0,8.626365100E0
3.492353333E0,-8.615182292E-1,-6.159543507E0,-3.674503752E0,7.223860997E0
3.502320333E0,-2.520403131E0,-4.658508870E0,-7.696806908E-1,5.352246743E0
3.512287333E0,-3.667958671E0,-3.537478346E0,2.456904123E0,5.657212364E0
3.522254333E0,-4.022849286E0,-3.294466310E0,5.321873732E0,7.440373959E0
3.532221333E0,-3.842382284E0,-4.040050625E0,5.711270227E0,7.981511027E0
3.542188333E0,-3.560743540E0,-5.312035791E0,5.123994598E0,8.194628695E0
3.552155333E0,-4.197156831E0,-5.692357408E0,4.319487891E0,8.287160791E0
3.562122333E0,-5.297625328E0,-5.171864583E0,2.997173985E0,7.987244161E0
3.572089333E0,-5.892597063E0,-4.714606472E0,1.786736903E0,7.755168798E0
3.582056333E0,-6.540337579E0,-4.985563522E0,3.064113495E-1,8.229565432E0
3.592023333E0,-7.096315402E0,-4.512077048E0,-1.302963130E0,8.509655956E0
3.601990333E0,-6.557061785E0,-3.251614990E0,-1.202843450E0,7.417202415E0
3.611957333E0,-5.094380790E0,-2.745006378E0,1.278834010E0,5.926482268E0
3.621924333E0,-3.279065621E0,-2.035232166E0,4.967916040E0,6.290837075E0
3.631892083E0,-2.909938790E0,-4.863702285E-1,6.295559099E0,6.952579674E0
3.641859083E0,-2.740435902E0,1.232459743E0,6.579849554E0,7.233489207E0
3.651826083E0,-2.085393383E0,2.345605881E0,7.290823030E0,7.937684358E0
3.661793083E0,-3.972031134E-1,2.688949122E0,5.954095738E0,6.545187068E0
3.671760083E0,1.777803527E0,2.865240335E0,2.742466640E0,4.346413559E0
3.681727083E0,2.871621401E0,3.560469013E0,1.892528237E0,4.950233550E0
3.691694083E0,2.289723749E0,4.693371724E0,3.854208570E0,6.490415756E0
3.701661083E0,6.622239967E-1,5.679901670E0,5.459230675E0,7.905885349E0
3.711628083E0,-8.275352351E-1,5.462923776E0,5.678032315E0,7.922651180E0
3.721595083E0,-1.938555326E0,5.421191028E0,5.675588179E0,8.084529058E0
3.731562083E0,-3.108931233E0,6.138889387E0,5.447930346E0,8.776751185E0
3.741529083E0,-3.938427771E0,7.064771428E0,5.488974876E0,9.775021934E0
3.751496083E0,-4.728228146E0,7.922607665E0,5.543704230E0,1.076366621E1
3.761463083E0,-5.448620317E0,8.438056682E0,5.283928810E0,1.134936860E1
3.771430083E0,-5.897692911E0,8.659601251E0,4.711954175E0,1.148799319E1
3.781397083E0,-6.104794858E0,8.646920979E0,4.071514200E0,1.134085493E1
3.791364083E0,-5.793190888E0,8.481620777E0,3.434315920E0,1.083021133E1
3.801330083E0,-5.462905650E0,8.400445052E0,2.914308122E0,1.043570827E1
3.811297083E0,-5.323564746E0,8.149640431E0,2.268695407E0,9.995196827E0
3.821264083E0,-5.160564255E0,7.587893745E0,1.600975101E0,9.315077895E0
3.831231083E0,-4.941990656E0,6.701674538E0,1.094798453E0,8.398469915E0
3.841198083E0,-4.509549005E0,5.313974143E0,8.839903946E-1,7.025367780E0
3.851165083E0,-3.764385104E0,3.145278111E0,5.313043267E-2,4.905730573E0
3.861132083E0,-2.820850320E0,1.537537050E-1,-2.800025754E0,3.977559673E0
3.871099083E0,-1.841062506E0,-5.309184104E0,-1.057913690E1,1.197894338E1
3.881066083E0,2.797833633E0,-1.692400791E1,-2.326784162E1,2.890747949E1
3.891033083E0,1.225512666E1,-3.050489599E1,-2.302770583E1,4.013741452E1
3.901000083E0,1.604466269E1,-3.233170182E1,-1.361030426E1,3.857473947E1
3.910967083E0,1.452223952E1,-2.100805415E1,-5.539008331E0,2.613263081E1
3.920934083E0,1.134358199E1,-5.255643489E0,-4.121585369E-1,1.250873757E1
3.930901083E0,8.963979231E0,2.526609950E0,-2.440782765E-1,9.316450810E0
3.940868083E0,6.383596532E0,4.752000001E0,-2.292849817E0,8.281845747E0
3.950835083E0,3.090689090E0,6.152049131E0,-3.044660393E0,7.527949553E0
3.960802083E0,-3.306439653E-2,7.750410088E0,-2.463230810E0,8.132493825E0
3.970769083E0,-2.531713985E0,8.482062827E0,-1.145036706E0,8.925585390E0
3.980736083E0,-5.300991570E0,6.549273294E0,3.547479424E-1,8.433228232E0
3.990703083E0,-7.657304288E0,2.872786167E0,2.676925200E0,8.605413287E0
4.000670083E0,-8.984818708E0,-1.454194347E0,5.839897277E0,1.081415964E1
4.010637083E0,-9.284882028E0,-5.635989665E0,9.365686455E0,1.434187911E1
4.020604083E0,-8.427336981E0,-7.510958421E0,1.070848667E1,1.555976194E1
4.030571083E0,-6.738098599E0,-7.177575912E0,6.306543678E0,1.169153805E1
4.040538083E0,-3.636702672E0,-3.590107965E0,5.170963235E-1,5.136328468E0
4.050505083E0,-1.127155482E0,-1.004369216E0,-5.874819188E0,6.065701732E0
4.060472083E0,4.323583281E-1,7.020196348E-1,-8.622598901E0,8.661926870E0
4.070439083E0,-1.058974609E-1,3.282648502E0,-4.485621321E0,5.559477862E0
4.080406083E0,-2.230749317E0,4.783883699E0,3.699871020E-1,5.291377534E0
4.090373083E0,-4.087568607E0,4.256374215E0,4.174929518E0,7.228760271E0
4.100340083E0,-4.395512220E0,3.438669757E0,5.071363810E0,7.540802893E0
4.110307083E0,-4.035795898E0,3.001059460E0,4.906182307E0,7.025996815E0
4.120274083E0,-4.036361324E0,1.612322354E0,5.232928226E0,6.802597587E0
4.130241083E0,-4.555293819E0,-4.906398654E-1,5.809030995E0,7.398396472E0
4.140208083E0,-5.021999862E0,-2.073043186E0,6.384448471E0,8.383267438E0
4.150175083E0,-4.763926859E0,-3.130693985E0,6.448859060E0,8.607207859E0
4.160142083E0,-3.911118935E0,-3.201878573E0,6.788675845E0,8.463746064E0
4.170109083E0,-3.058548407E0,-1.766813977E0,7.018787169E0,7.857462906E0
4.180076083E0,-2.079337421E0,-4.449684334E-1,6.298563398E0,6.647822343E0
4.190043083E0,-1.178825573E0,-8.160958886E-3,5.040295215E0,5.176318400E0
4.200010083E0,-3.831756431E-1,3.607661891E-1,4.368757700E0,4.400343129E0
4.209977083E0,1.941746297E-1,9.726059711E-1,4.156147091E0,4.272847389E0
4.219944083E0,5.358371248E-1,1.504012624E0,3.556236799E0,3.898204146E0
4.229911083E0,6.645740658E-1,1.826070830E0,2.420043275E0,3.103675695E0
4.239878083E0,8.135758118E-1,1.718795473E0,1.359233226E0,2.337451270E0
4.249845083E0,1.014050085E0,1.277237720E0,4.335505754E-1,1.687483295E0
4.259812083E0,1.268999578E0,3.038564086E-1,-3.008568235E-1,1.339105476E0
4.269779083E0,1.360229006E0,-6.789167011E-1,-9.337553161E-1,1.784110374E0
4.279746083E0,1.267854986E0,-1.086570543E0,-2.012127478E0,2.614717728E0
4.289713083E0,1.071675054E0,-8.203164089E-1,-3.670313637E0,3.910576508E0
4.299680083E0,6.813232689E-1,6.675064445E-2,-5.611930711E0,5.653531936E0
4.309647083E0,1.834974678E-1,1.070494208E0,-7.247426750E0,7.328357501E0
4.319614083E0,-1.985330712E-1,1.567131563E0,-7.141155944E0,7.313783217E0
4.329581083E0,-3.142986587E-1,1.607182066E0,-5.636492525E0,5.869571179E0
4.339548083E0,-2.681636886E-1,1.477369201E0,-4.051351246E0,4.320645604E0
4.349515083E0,-2.097884497E-1,1.376594778E0,-3.045615828E0,3.348850571E0
4.359482083E0,-7.423449576E-2,1.327172357E0,-2.112518908E0,2.495923349E0
4.369449083E0,4.355687419E-1,1.022793208E0,-1.008368127E0,1.500877195E0
4.379416083E0,1.291454494E0,3.035424131E-1,7.552366063E-2,1.328795143E0
4.389383083E0,2.146675419E0,-9.130245978E-1,6.015355262E-1,2.409081621E0
4.399350083E0,2.666498737E0,-2.051211437E0,4.735408527E-1,3.397340845E0
4.409317083E0,3.059676628E0,-2.738005507E0,-1.881581372E-1,4.110194485E0
4.419284083E0,3.587686048E0,-2.825444770E0,-1.190140227E0,4.719222721E0
4.429251083E0,4.018749218E0,-2.509050177E0,-2.163325658E0,5.208229638E0
4.439218083E0,4.275832287E0,-2.394405574E0,-2.661599063E0,5.576740030E0
4.449185083E0,4.292113566E0,-2.528614960E0,-2.964870750E0,5.797119203E0
4.459152083E0,4.134354226E0,-2.466870702E0,-3.436855366E0,5.915260834E0
4.469119083E0,3.987384169E0,-2.441619501E0,-3.547426214E0,5.868983817E0
4.479086083E0,4.044664078E0,-2.290436232E0,-2.479041097E0,5.267926574E0
4.489053083E0,4.218519925E0,-1.997679593E0,-1.183636808E0,4.815353591E0
4.499020083E0,4.347662700E0,-1.962834281E0,-8.397072378E-1,4.843552169E0
4.508987083E0,4.319386150E0,-2.406660753E0,-1.264010734E0,5.103610078E0
4.518954083E0,4.085589325E0,-3.195536683E0,-2.098568037E0,5.595308984E0
4.528921083E0,3.863779877E0,-3.742730818E0,-3.370599396E0,6.348052395E0
4.538888083E0,4.047875076E0,-4.463591352E0,-5.325183256E0,8.041549421E0
4.548855083E0,4.757618006E0,-4.946215269E0,-6.910292668E0,9.739205272E0
4.558822083E0,5.442164991E0,-4.429299771E0,-6.300560807E0,9.430425374E0
4.568789083E0,5.678824612E0,-3.685449740E0,-4.731662216E0,8.259553020E0
4.578756083E0,5.584145327E0,-3.790400244E0,-4.837999679E0,8.303978200E0
4.588723083E0,4.853565552E0,-4.507830216E0,-6.685688835E0,9.411485910E0
4.598690083E0,2.586593904E0,-5.133330263E0,-7.850743046E0,9.730144602E0
4.608657083E0,-3.537907532E-1,-5.454678032E0,-6.606326916E0,8.574510812E0
4.618623083E0,-2.565748873E0,-5.394255245E0,-4.448655224E-1,5.989905029E0
4.628590083E0,-3.863514413E0,-4.123367016E0,5.666869980E0,8.002644222E0
4.638556333E0,-4.625187635E0,-3.359200834E0,7.284291691E0,9.259454429E0
4.648523333E0,-4.207098267E0,-4.199593073E0,6.876560665E0,9.089738412E0
4.658490333E0,-4.711993352E0,-4.915666491E0,5.317666075E0,8.639689282E0
4.668457333E0,-5.746906668E0,-5.098436419E0,3.908463714E0,8.619575324E0
4.678424333E0,-6.342363136E0,-5.405770167E0,2.782811551E0,8.785895593E0
4.688391333E0,-6.637117184E0,-5.409557993E0,2.272309864E0,8.858782891E0
4.698358333E0,-7.852255720E0,-5.117039920E0,6.238347602E-1,9.393145759E0
4.708325333E0,-8.226577510E0,-4.571435058E0,-1.247320880E0,9.493703460E0
4.718292333E0,-6.875485362E0,-2.672157088E0,-1.307929609E0,7.491555402E0
4.728259333E0,-5.199559336E0,-1.325730434E0,6.392583995E-1,5.403853234E0
4.738226333E0,-3.912884502E0,-9.511121911E-1,2.577489789E0,4.781080750E0
4.748193333E0,-3.235362069E0,1.505371517E-1,4.013325048E0,5.157228625E0
4.758160333E0,-2.627353967E0,1.412743435E0,4.338565017E0,5.265166597E0
4.768127333E0,-1.784455612E0,2.357726575E0,3.714134133E0,4.747414959E0
4.778094333E0,-6.818225480E-1,3.090709555E0,4.426287577E0,5.441451025E0
4.788061333E0,5.216578826E-1,3.418595681E0,6.366664749E0,7.245229010E0
4.798028333E0,1.642831225E0,3.573598351E0,7.140236177E0,8.151838583E0
4.807995333E0,3.408784930E0,3.043196835E0,3.805769358E0,5.946826219E0
4.817962333E0,3.570270116E0,3.721028293E0,1.691010089E0,5.427006116E0
4.827929333E0,1.497583172E0,5.784720612E0,3.153076834E0,6.756303829E0
4.837896333E0,-4.957300128E-1,6.529669334E0,4.158343013E0,7.757199654E0
4.847863333E0,-1.874523637E0,6.297072358E0,4.573918663E0,8.005478817E0
4.857830333E0,-2.902735605E0,6.721229382E0,5.019624138E0,8.876791362E0
4.867797333E0,-3.684799529E0,7.245266204E0,4.545747947E0,9.313187120E0
4.877764333E0,-4.354739585E0,8.014231195E0,3.822881235E0,9.889695619E0
4.887731333E0,-4.732895978E0,8.815771025E0,3.119700050E0,1.048096615E1
4.897698333E0,-4.808192328E0,9.278864073E0,2.659062248E0,1.078362852E1
4.907665333E0,-4.547260037E0,9.163121363E0,2.410084444E0,1.050946592E1
4.917632333E0,-4.214456988E0,8.498267215E0,2.251185189E0,9.749360396E0
4.927599333E0,-3.862020157E0,7.692948330E0,2.116012327E0,8.864206782E0
4.937566333E0,-3.640275906E0,6.912978879E0,1.640774320E0,7.983296688E0
4.947533333E0,-3.284838869E0,5.745064795E0,8.215104103E-1,6.668644184E0
4.957500333E0,-2.798372161E0,3.985621233E0,-5.841071691E-1,4.904818503E0
4.967467333E0,-2.489191571E0,1.307236276E0,-3.806547915E0,4.732308991E0
4.977434333E0,-1.467343565E0,-3.709499338E0,-1.221095679E1,1.284604796E1
4.987401333E0,3.508819388E0,-1.399544632E1,-2.163261631E1,2.600296943E1
4.997368333E0,1.092416355E1,-2.580099109E1,-2.049318109E1,3.471309496E1
5.007335333E0,1.320152073E1,-2.827353535E1,-8.952131603E0,3.246249545E1
5.017302333E0,1.206575523E1,-2.013793701E1,-9.487738895E-1,2.349508732E1
5.027269333E0,9.787912143E0,-6.456524760E0,-8.043298289E-2,1.172588613E1
5.037236333E0,7.387591526E0,7.279461890E-1,-1.546690135E0,7.582787389E0
5.047203333E0,4.759013152E0,2.266238700E0,-3.374999134E0,6.258966622E0
5.057170333E0,1.177068484E0,3.976112491E0,-4.380357406E0,6.031790096E0
5.067137333E0,-2.465149866E0,5.509510297E0,-4.332568113E0,7.429859624E0
5.077104333E0,-7.041486645E0,4.390746154E0,-2.408158079E0,8.640625631E0
5.087071333E0,-1.193185165E1,3.283989269E-1,2.194063886E-1,1.193838636E1
5.097038333E0,-1.324036730E1,-3.239280288E0,3.688969764E0,1.412121669E1
5.107005333E0,-1.188688305E1,-6.004042654E0,4.067103645E0,1.392436171E1
5.116972333E0,-1.016257073E1,-8.646650253E0,4.997776601E0,1.424851485E1
5.126939333E0,-6.061785078E0,-6.921681874E0,2.569968224E-1,9.204399256E0
5.136906333E0,-1.819757591E0,-5.684657210E-1,3.418171173E0,3.913893859E0
5.146873333E0,-1.462695906E0,5.226375836E0,5.928321211E0,8.037379926E0
5.156840333E0,-1.068394327E0,8.019386685E0,4.606913039E-1,8.103349044E0
5.166807333E0,-1.687293014E0,1.002798420E1,-2.132389355E0,1.039011594E1
5.176774333E0,-2.946365190E0,9.164319457E0,9.496324070E-1,9.673035752E0
5.186741333E0,-4.543421340E0,5.464842832E0,3.739729443E0,8.030738506E0
5.196708333E0,-5.385689659E0,2.906058578E0,5.505109098E0,8.231467411E0
5.206675333E0,-5.443371856E0,1.361871489E0,5.942831662E0,8.173263686E0
5.216642333E0,-5.423767312E0,-1.461564177E0,7.003963308E0,8.978247252E0
5.226609333E0,-5.076781840E0,-5.294681840E0,8.082434288E0,1.091481166E1
5.236576333E0,-4.219813037E0,-7.323652223E0,7.873622031E0,1.155147730E1
5.246543333E0,-2.733061394E0,-6.422114480E0,7.423336140E0,1.018916574E1
5.256510333E0,-1.284458739E0,-4.035285729E0,7.152617072E0,8.312237734E0
5.266477333E0,-4.178420305E-3,-2.330683787E0,7.400889848E0,7.759205818E0
5.276444333E0,1.194106978E0,-1.428240311E0,7.283399405E0,7.517557367E0
5.286411333E0,2.142227734E0,-8.666029680E-1,6.143713925E0,6.563944025E0
5.296378333E0,2.748944186E0,-4.794722682E-1,4.979611641E0,5.708162567E0
5.306345333E0,3.201273971E0,1.092376828E-2,3.790047072E0,4.961121968E0
5.316312333E0,3.284567558E0,7.451738405E-1,2.556709077E0,4.228525677E0
5.326279333E0,3.174995999E0,1.229768854E0,9.806564176E-1,3.543249644E0
5.336246333E0,3.064920995E0,1.559704430E0,-2.114369552E0,4.036951476E0
5.346213333E0,2.779072841E0,1.119448267E0,-6.917802832E0,7.538727101E0
5.356180333E0,2.393610060E0,1.453869241E-1,-7.788262038E0,8.149081669E0
5.366147333E0,2.240445900E0,1.276821399E-1,-6.020620680E0,6.425245048E0
5.376114333E0,2.194299674E0,5.467181718E-1,-3.234775593E0,3.946850005E0
5.386081333E0,1.935515943E0,1.301414203E0,-1.818003427E0,2.957200932E0
5.396048333E0,1.480886886E0,1.839006041E0,-1.447959753E0,2.769757504E0
5.406015333E0,7.896233507E-1,1.978269761E0,-1.933897434E0,2.876980286E0
5.415982333E0,5.478548706E-3,1.956976540E0,-2.879698745E0,3.481731186E0
5.425949333E0,-6.237528992E-1,1.624523739E0,-2.822311247E0,3.315657677E0
5.435916333E0,-1.002544008E0,1.257295207E0,-1.803585362E0,2.416362118E0
5.445883333E0,-1.096474703E0,9.458192915E-1,-5.263039340E-1,1.540722797E0
5.455850333E0,-1.253125850E0,7.474869990E-1,1.927201349E-1,1.471802385E0
5.465817333E0,-1.446426028E0,6.123800647E-1,1.073034239E-1,1.574379758E0
5.475784333E0,-1.453432454E0,6.743845242E-1,-1.137903249E-1,1.606302781E0
5.485751333E0,-1.217910993E0,4.927676672E-1,-6.485602963E-1,1.465181770E0
5.495718333E0,-2.445681269E-1,-8.231359363E-2,-1.642536233E0,1.662682884E0
5.505685333E0,1.344534349E0,-9.298435289E-1,-2.859077370E0,3.293433620E0
5.515652333E0,2.428469698E0,-2.085282578E0,-4.104876073E0,5.205369927E0
5.525619333E0,3.157680055E0,-2.993215420E0,-5.100908037E0,6.704442160E0
5.535586333E0,3.488660527E0,-3.571813781E0,-5.422705457E0,7.371183110E0
5.545553333E0,3.463266655E0,-3.557298653E0,-4.859733780E0,6.947344963E0
5.555520333E0,3.407361426E0,-2.412243674E0,-3.592887439E0,5.507982533E0
5.565487333E0,3.421601442E0,-1.334270293E0,-1.854492391E0,4.114216289E0
5.575454333E0,3.546952297E0,-1.110944661E0,-1.787670703E-1,3.721159269E0
5.585421333E0,3.838028739E0,-1.578462297E0,8.378291121E-1,4.233670446E0
5.595388333E0,4.382812067E0,-2.673416578E0,9.862545419E-1,5.227704643E0
5.605355333E0,4.937909884E0,-4.207595572E0,2.488637839E-1,6.492206690E0
5.615322333E0,5.339468004E0,-5.316243448E0,-1.484350338E0,7.679561113E0
5.625289333E0,5.717207490E0,-5.814623272E0,-2.879222782E0,8.647903163E0
5.635256250E0,5.690057698E0,-5.842326795E0,-4.986495568E0,9.559010255E0
5.645223250E0,5.678214748E0,-5.977370580E0,-7.850783976E0,1.138445830E1
5.655190250E0,5.892842061E0,-5.584289169E0,-7.784664831E0,1.124770553E1
5.665157250E0,5.583923718E0,-5.125397345E0,-4.557597622E0,8.844297492E0
5.675124250E0,5.071594775E0,-5.094144562E0,-3.944450403E0,8.199394573E0
5.685091250E0,4.726622500E0,-5.205648626E0,-5.930208693E0,9.198212490E0
5.695058250E0,2.866529061E0,-4.300668628E0,-5.454399120E0,7.514200507E0
5.705025250E0,-1.569399990E-1,-3.760469517E0,-3.300794166E0,5.006096611E0
5.714992250E0,-2.515369847E0,-3.856510034E0,1.630926440E0,4.884636748E0
5.724959250E0,-3.715439524E0,-3.856716440E0,5.570286841E0,7.727020645E0
5.734926250E0,-3.696851810E0,-3.534017964E0,6.590137146E0,8.341816581E0
5.744893250E0,-3.507556097E0,-3.578426397E0,5.628783556E0,7.535999574E0
5.754860250E0,-3.939857415E0,-4.414619751E0,4.520730343E0,7.446364672E0
5.764827250E0,-4.448533602E0,-5.241882652E0,3.488327236E0,7.709423574E0
5.774794250E0,-4.929265945E0,-5.611827800E0,2.765271951E0,7.964734960E0
5.784761250E0,-5.720214128E0,-5.410806373E0,2.554645010E0,8.277915584E0
5.794728250E0,-6.542313938E0,-4.569042377E0,1.685385067E0,8.155890064E0
5.804695250E0,-7.174500861E0,-3.715174060E0,1.328535636E-1,8.080447449E0
5.814662250E0,-6.664156464E0,-1.997864950E0,3.928799745E-1,6.968270977E0
5.824629250E0,-5.097961040E0,-9.986178946E-1,1.673380441E0,5.457714409E0
5.834596250E0,-3.742969092E0,-3.486297083E-1,3.017481365E0,4.820430903E0
5.844563250E0,-3.070412408E0,9.293652266E-1,2.486676975E0,4.058905574E0
5.854530250E0,-3.029100367E0,2.178061518E0,2.697373205E0,4.603827019E0
5.864497250E0,-2.130318710E0,2.346605170E0,4.540199232E0,5.536986789E0
5.874464250E0,-7.003364407E-1,2.865005277E0,7.146159407E0,7.730868039E0
5.884431250E0,1.159974880E0,2.546678179E0,7.516588120E0,8.020611475E0
5.894398250E0,2.800232453E0,2.093125448E0,4.753208328E0,5.900463147E0
5.904365250E0,2.646431970E0,2.756497326E0,3.227796357E0,5.002054478E0
5.914332250E0,8.643432384E-1,4.404661358E0,3.491467191E0,5.686692717E0
5.924299250E0,-8.820757969E-1,5.463134860E0,3.629637482E0,6.618018469E0
5.934266250E0,-2.097130206E0,5.716773042E0,4.157221810E0,7.373055153E0
5.944233250E0,-3.328091600E0,6.221442717E0,5.102234770E0,8.707200631E0
5.954200250E0,-4.507836063E0,7.060222294E0,5.544973075E0,1.004559860E1
5.964167250E0,-5.344811189E0,7.914494653E0,4.951108804E0,1.075730964E1
5.974134250E0,-5.644251781E0,8.455851513E0,4.384208382E0,1.107159817E1
5.984101250E0,-5.526116390E0,8.614226857E0,4.208773494E0,1.106601288E1
5.994068250E0,-5.177766763E0,8.740909123E0,3.566929894E0,1.076734646E1
6.004035250E0,-4.818645103E0,8.939654229E0,2.973151284E0,1.058188957E1
6.014002250E0,-4.610816933E0,8.778858138E0,2.591612277E0,1.024911885E1
6.023969250E0,-4.588558629E0,8.421071105E0,1.848872340E0,9.766659499E0
6.033936250E0,-4.523969700E0,7.941916341E0,1.289587917E0,9.230567372E0
6.043903250E0,-4.449264504E0,7.264479570E0,7.767811109E-1,8.554063767E0
6.053870250E0,-3.713995847E0,5.738399554E0,-4.749678656E-2,6.835587066E0
6.063837250E0,-2.929568770E0,3.200374669E0,-2.767017052E0,5.145984315E0
6.073804250E0,-1.695978176E0,-1.304108600E0,-8.809339088E0,9.065401060E0
6.083771250E0,2.101633732E0,-1.108948890E1,-2.047391568E1,2.337894034E1
6.093738250E0,1.143933600E1,-2.717334664E1,-2.454804972E1,3.836477448E1
6.103705250E0,1.539640761E1,-3.339350472E1,-1.296070783E1,3.898917123E1
6.113672250E0,1.330496383E1,-2.546091469E1,-4.454362106E0,2.907097489E1
6.123639250E0,1.116572139E1,-1.046287671E1,-9.746811479E-2,1.530211172E1
6.133606250E0,8.914376716E0,3.544547045E-1,6.069820614E-1,8.942045493E0
6.143573250E0,6.514458972E0,3.968047426E0,-1.666540953E0,7.807748384E0
6.153540250E0,2.851778583E0,5.086561893E0,-3.778961921E0,6.948834879E0
6.163507250E0,-1.723089814E0,5.070703075E0,-4.776536380E0,7.176096987E0
6.173474250E0,-7.214817998E0,2.517212305E0,-3.923354526E0,8.589683770E0
6.183441250E0,-1.194386885E1,-9.819504064E-1,-1.278201342E-1,1.198484742E1
6.193408250E0,-1.392118785E1,-4.074469090E0,3.394575612E0,1.489711090E1
6.203375250E0,-1.258126213E1,-6.368160467E0,6.192465670E0,1.540091736E1
6.213342250E0,-9.654211464E0,-7.477338685E0,8.889773387E0,1.510438558E1
6.223309250E0,-4.740898477E0,-4.610557609E0,3.248959769E0,7.368113695E0
6.233276250E0,-7.338233717E-1,9.078053731E-1,1.868165228E0,2.202872819E0
6.243243250E0,-1.264918807E0,5.081414005E0,4.762458916E0,7.078262696E0
6.253210250E0,-1.047069824E0,7.383117821E0,-5.736030847E-2,7.457216249E0
6.263177250E0,-1.930954969E0,9.455675104E0,-4.022142942E0,1.045542981E1
6.273144250E0,-3.284954644E0,1.019535724E1,-3.704747598E-1,1.071790501E1
6.283111250E0,-4.601291526E0,7.389079058E0,3.446219097E0,9.361986920E0
6.293078250E0,-5.521376637E0,3.928502707E0,5.157924821E0,8.516039100E0
6.303045250E0,-5.299795230E0,1.474547920E0,6.166088880E0,8.263339103E0
6.313012250E0,-5.193347254E0,-1.770539238E0,7.783048661E0,9.522684041E0
6.322979250E0,-5.009569851E0,-6.006102628E0,8.853377978E0,1.181318587E1
6.332946250E0,-4.210708922E0,-8.117349767E0,8.167370943E0,1.226080687E1
6.342913250E0,-2.727434326E0,-7.052829074E0,7.213093654E0,1.045035961E1
6.352880250E0,-1.344713712E0,-4.304423710E0,6.549845152E0,7.952156308E0
6.362847250E0,-1.151717114E-1,-2.382657348E0,6.719585145E0,7.130437930E0
6.372814250E0,1.009069866E0,-1.272364066E0,6.911329379E0,7.099549711E0
6.382781250E0,1.953017098E0,-4.456122118E-1,5.849482033E0,6.182983591E0
6.392748250E0,2.493525819E0,2.994142789E-1,4.612279029E0,5.251708080E0
6.402715250E0,2.681584261E0,6.972401208E-1,3.504932159E0,4.467839229E0
6.412682250E0,2.434053935E0,7.906400353E-1,2.337003458E0,3.465734465E0
6.422649250E0,1.922220398E0,8.153778505E-1,6.060943079E-1,2.174194703E0
6.432616250E0,1.424713124E0,8.547968549E-1,-2.918179271E0,3.358013610E0
6.442583250E0,9.315501849E-1,6.428235930E-1,-8.160208688E0,8.238325907E0
6.452550250E0,7.959361508E-1,8.476825476E-2,-9.181307373E0,9.216132871E0
6.462517250E0,8.742110726E-1,-7.401171684E-2,-6.296919746E0,6.357744963E0
6.472484250E0,1.015169462E0,1.078518927E-1,-3.054883665E0,3.220949437E0
6.482451250E0,1.116545490E0,9.215001369E-1,-1.575819356E0,2.139869850E0
6.492418250E0,8.256807176E-1,1.624381067E0,-1.442188259E0,2.323847988E0
6.502385250E0,4.961319358E-1,1.830434607E0,-1.460888239E0,2.393915662E0
6.512352250E0,2.194243687E-1,1.803857843E0,-1.279684780E0,2.222530834E0
6.522319250E0,-2.110406309E-3,1.754099792E0,-7.268093441E-1,1.898715975E0
6.532286250E0,1.561206579E-3,1.751132914E0,-7.316971779E-2,1.752661613E0
6.542253250E0,3.411148667E-2,1.813701046E0,3.234691393E-1,1.842635981E0
6.552220250E0,-6.986779511E-2,1.752844394E0,2.981927955E-1,1.779399877E0
6.562187250E0,-1.131936166E-1,1.745000355E0,-1.399887747E-1,1.754262207E0
6.572154250E0,-2.561193015E-1,1.547302485E0,-1.015836483E0,1.868599967E0
6.582121250E0,-1.136046758E-1,9.180882865E-1,-1.631079052E0,1.875156260E0
6.592088250E0,6.429849762E-1,-1.619023848E-1,-2.075780268E0,2.179106648E0
6.602055250E0,1.858764075E0,-1.242459651E0,-2.510966894E0,3.362092297E0
6.612022250E0,2.568978875E0,-2.381036500E0,-3.090257273E0,4.671046701E0
6.621989250E0,3.061000437E0,-3.115167874E0,-3.887649381E0,5.847034484E0
6.631956250E0,3.402004207E0,-2.947762089E0,-4.255306513E0,6.194398073E0
6.641923583E0,3.598306638E0,-2.281488238E0,-3.858754780E0,5.748303027E0
6.651890583E0,3.745554439E0,-2.426667001E0,-3.392235556E0,5.605814201E0
6.661857583E0,3.942538656E0,-3.289894956E0,-3.085903144E0,5.990811138E0
6.671824583E0,4.210263657E0,-3.596272684E0,-2.617787338E0,6.124729204E0
6.681791583E0,4.418323962E0,-3.164069307E0,-1.599609045E0,5.664951042E0
6.691758583E0,4.561350950E0,-2.589886764E0,-3.849812633E-1,5.259434049E0
6.701725583E0,4.756112933E0,-2.295831458E0,3.090556066E-1,5.290271040E0
6.711692583E0,4.998576500E0,-2.551793908E0,2.873538119E-1,5.619607761E0
6.721659583E0,5.287207929E0,-3.497868138E0,-8.285425642E-1,6.393444453E0
6.731626583E0,5.352050042E0,-4.675556427E0,-2.807664557E0,7.641220310E0
6.741593583E0,5.297435294E0,-5.496224838E0,-4.656079352E0,8.941497811E0
6.751560583E0,5.450008446E0,-5.528752899E0,-6.579318627E0,1.017630258E1
6.761527583E0,5.633305793E0,-4.414949534E0,-6.977385374E0,9.995489993E0
6.771494583E0,5.577554930E0,-3.277409981E0,-4.972860446E0,8.159649270E0
6.781461583E0,5.335847408E0,-3.598438493E0,-4.024157308E0,7.590380042E0
6.791428583E0,4.551715616E0,-5.357173373E0,-5.676018534E0,9.035187214E0
6.801395583E0,2.500804433E0,-6.831056464E0,-7.274224539E0,1.028745342E1
6.811362583E0,-1.294175935E-1,-5.932834092E0,-5.684171891E0,8.217364503E0
6.821329583E0,-1.965261168E0,-5.294480696E0,-1.394931647E0,5.817182445E0
6.831296583E0,-3.244573480E0,-5.608640483E0,3.484932343E0,7.357231719E0
6.841263583E0,-3.984956989E0,-4.504837611E0,5.686700227E0,8.277197810E0
6.851230583E0,-3.912731304E0,-4.408998238E0,5.546561179E0,8.094014618E0
6.861197583E0,-4.019644134E0,-5.170608602E0,4.813361267E0,8.127802837E0
6.871164583E0,-4.729818588E0,-5.377436898E0,4.149477757E0,8.276845844E0
6.881131583E0,-5.793356949E0,-5.009157037E0,3.348726132E0,8.358744264E0
6.891098583E0,-6.689602962E0,-5.258257779E0,3.311307460E0,9.130433711E0
6.901065583E0,-7.991677900E0,-5.363319381E0,2.834518479E0,1.003327491E1
6.911032583E0,-9.583438520E0,-4.488682923E0,1.452656821E0,1.068179667E1
6.920999583E0,-8.973408451E0,-2.261114200E0,5.282336614E-1,9.268965824E0
6.930966583E0,-6.268961869E0,-9.289570910E-1,1.884460541E0,6.611659075E0
6.940933583E0,-4.369036904E0,-1.756386638E-2,3.527995624E0,5.615651795E0
6.950900583E0,-3.455101018E0,1.413432237E0,2.673923239E0,4.591881883E0
6.960868583E0,-2.264557333E0,2.242784933E0,2.609391029E0,4.119129241E0
6.970834583E0,-1.246980718E0,2.860231610E0,3.056578188E0,4.367900639E0
6.980802583E0,-4.283657762E-1,3.635360152E0,4.528046087E0,5.822588946E0
6.990769583E0,1.690511029E0,2.963638449E0,6.698053358E0,7.516974071E0
7.000736583E0,4.195500607E0,2.170905111E0,5.976461338E0,7.617948836E0
7.010703583E0,3.971199076E0,3.086860333E0,3.386859041E0,6.063822473E0
7.020670583E0,1.460426455E0,5.386184333E0,4.019064675E0,6.877260208E0
7.030637583E0,-2.996304797E-1,6.485750898E0,5.023296189E0,8.209034519E0
7.040604583E0,-1.499875427E0,6.308274454E0,4.879605835E0,8.115078927E0
7.050571583E0,-2.619076357E0,6.798693879E0,5.366997864E0,9.049114073E0
7.060538583E0,-3.736503826E0,7.596406707E0,5.479589510E0,1.008428267E1
7.070505583E0,-4.767394550E0,8.369871131E0,5.291752385E0,1.099024280E1
7.080472583E0,-5.642541470E0,8.862406079E0,4.922537554E0,1.160223650E1
7.090439583E0,-5.948122222E0,8.867257513E0,4.436565228E0,1.156250513E1
7.100406583E0,-5.524684407E0,8.675570582E0,3.788917682E0,1.096100178E1
7.110373583E0,-5.105540786E0,8.303471319E0,3.385287602E0,1.031864113E1
7.120340583E0,-4.890619650E0,7.630268517E0,3.056943054E0,9.564729951E0
7.130307583E0,-4.785223880E0,7.050706535E0,2.449189014E0,8.866191801E0
7.140274583E0,-4.681771140E0,6.393197075E0,1.896578311E0,8.147942019E0
7.150241583E0,-4.405258066E0,5.390985482E0,1.126508488E0,7.052520434E0
7.160208583E0,-3.791889237E0,3.893276741E0,-3.924338320E-1,5.448856034E0
7.170175583E0,-3.144329107E0,1.158985970E0,-4.549755337E0,5.650692669E0
7.180142583E0,-2.155078745E0,-4.114960474E0,-1.388108881E1,1.463768734E1
7.190109583E0,2.157752969E0,-1.437574806E1,-2.397792983E1,2.804031292E1
7.200076583E0,9.813917634E0,-2.755451494E1,-2.062753841E1,3.579189312E1
7.210043583E0,1.201303673E1,-2.921307765E1,-6.844150718E0,3.231964351E1
7.220010583E0,1.064287155E1,-1.920717605E1,-1.713858669E0,2.202552243E1
7.229977583E0,8.982588580E0,-5.256444558E0,-1.435071613E0,1.050602387E1
7.239944583E0,7.467562140E0,1.868695278E0,-2.288466013E0,8.030789690E0
7.249911583E0,4.859446097E0,4.229543681E0,-3.814432593E0,7.486865307E0
7.259878583E0,1.450699320E0,6.300204127E0,-4.424757946E0,7.834257044E0
7.269845583E0,-1.676156115E0,7.979843135E0,-4.463863247E0,9.295884620E0
7.279812583E0,-5.057358559E0,6.906060453E0,-3.380385004E0,9.203127151E0
7.289779583E0,-8.345195881E0,3.255199918E0,-1.000755637E0,9.013330829E0
7.299746583E0,-1.012456968E1,-5.177984279E-1,2.346994156E0,1.040593138E1
7.309713583E0,-9.827232914E0,-3.457990712E0,4.214136268E0,1.123793357E1
7.319680583E0,-8.739326867E0,-5.446528768E0,3.844978740E0,1.099201397E1
7.329647583E0,-6.552745956E0,-6.719030828E0,4.139903526E0,1.025780951E1
7.339614583E0,-3.234780563E0,-6.381902593E0,7.829505959E0,1.060630235E1
7.349581583E0,-1.418268469E0,-2.060865190E0,5.818906943E0,6.333903124E0
7.359548583E0,5.949416942E-1,4.616575563E-1,-2.256812696E0,2.379135738E0
7.369515583E0,9.573508778E-1,2.541399313E0,-1.768041308E0,3.240555699E0
7.379482583E0,-4.469690582E-1,3.902299579E0,2.455718307E0,4.632307821E0
7.389449583E0,-2.243125241E0,4.330529189E0,5.072778836E0,7.036915448E0
7.399416583E0,-2.900637040E0,3.926059740E0,6.018997493E0,7.749578772E0
7.409383583E0,-2.856768596E0,3.518290123E0,6.004075398E0,7.522527075E0
7.419350583E0,-2.931760307E0,2.314652476E0,5.571100774E0,6.707458417E0
7.429317583E0,-3.065646342E0,1.563796896E-1,5.530190145E0,6.325001592E0
7.439284583E0,-3.130117742E0,-1.987274473E0,5.607540622E0,6.722455558E0
7.449251583E0,-2.942749856E0,-3.355890725E0,6.024476919E0,7.497739754E0
7.459218583E0,-2.603129245E0,-3.664255337E0,6.882025473E0,8.219812872E0
7.469185583E0,-1.960004813E0,-3.181323856E0,8.345129807E0,9.143502165E0
7.479152583E0,-8.866559941E-1,-2.384225571E0,8.829188046E0,9.188321500E0
7.489119583E0,2.787990065E-1,-1.607171541E0,7.640523949E0,7.812703467E0
7.499086583E0,1.217889359E0,-8.367242807E-1,6.286816342E0,6.458128346E0
7.509053583E0,1.613083369E0,-4.479025662E-2,4.379904832E0,4.667720049E0
7.519020583E0,1.559122339E0,1.922962117E-1,2.643503977E0,3.075053427E0
7.528987583E0,1.280919420E0,2.672978622E-1,1.146579348E0,1.739783581E0
7.538954583E0,1.009665770E0,5.184036148E-1,-2.976630560E-1,1.173358671E0
7.548921583E0,8.600235347E-1,1.087604331E0,-2.349864993E0,2.728440790E0
7.558888583E0,7.123938379E-1,1.617694775E0,-4.988955492E0,5.292836505E0
7.568855583E0,5.156103998E-1,1.527701449E0,-7.016760525E0,7.199628745E0
7.578822583E0,2.551944912E-1,1.244571666E0,-6.737244905E0,6.855986564E0
7.588789583E0,1.065989075E-1,1.335822728E0,-4.842823048E0,5.024810520E0
7.598756583E0,-9.860788330E-2,1.458482695E0,-3.415890759E0,3.715535623E0
7.608723583E0,-4.024292086E-1,1.355403299E0,-2.877434118E0,3.206040311E0
7.618690583E0,-6.241655664E-1,1.408812937E0,-2.346458551E0,2.807170155E0
7.628657583E0,-7.463872840E-1,1.428746679E0,-1.616102140E0,2.282585635E0
7.638623875E0,-6.756353898E-1,1.470237352E0,-7.142679437E-1,1.768688708E0
7.648590875E0,-4.709571142E-1,1.437773611E0,-4.057559820E-1,1.566407187E0
7.658557875E0,-3.082026440E-1,1.318231965E0,-1.098317892E0,1.743280406E0
7.668524875E0,-3.329142930E-1,1.091676332E0,-2.581198094E0,2.822263761E0
7.678491875E0,-1.139119470E-1,2.482914877E-1,-3.680356815E0,3.690481118E0
7.688458875E0,8.012392831E-1,-1.183305709E0,-3.204282656E0,3.508507393E0
7.698425875E0,2.320500568E0,-2.308243343E0,-2.141205933E0,3.911198418E0
7.708392875E0,3.592011818E0,-2.820137252E0,-1.714756947E0,4.878126117E0
7.718359875E0,4.402025726E0,-3.158157188E0,-2.090250080E0,5.806972766E0
7.728326875E0,4.995555829E0,-3.171694661E0,-2.581606522E0,6.455998551E0
7.738293875E0,5.366067572E0,-3.199393507E0,-2.649314355E0,6.785990462E0
7.748260875E0,5.644512566E0,-3.015181071E0,-2.717959498E0,6.952635675E0
7.758227875E0,5.797803172E0,-2.484928073E0,-2.959970491E0,6.967841449E0
7.768194875E0,5.632717563E0,-2.042316653E0,-2.405729291E0,6.456477203E0
7.778161875E0,5.169100020E0,-1.828772244E0,-1.117391217E0,5.595763225E0
7.788128875E0,4.817758081E0,-1.758276458E0,-2.142606926E-1,5.133053348E0
7.798095875E0,4.658519395E0,-1.903052348E0,-7.006864697E-3,5.032242074E0
7.808062875E0,4.336400962E0,-2.557318357E0,-4.388382125E-1,5.053397814E0
7.818029875E0,3.812707956E0,-3.471025325E0,-1.139411392E0,5.280437206E0
7.827996875E0,3.347980612E0,-3.816247276E0,-1.734332987E0,5.364757996E0
7.837963875E0,3.049900668E0,-4.031076318E0,-2.598146541E0,5.683470402E0
7.847930875E0,3.025486203E0,-4.582027289E0,-4.464264366E0,7.076595027E0
7.857897875E0,3.442744682E0,-4.498454205E0,-6.300132791E0,8.472322843E0
7.867864875E0,4.420019070E0,-3.730909503E0,-6.610479609E0,8.783774528E0
7.877831875E0,5.120329564E0,-3.744874408E0,-6.749687195E0,9.262836305E0
7.887798875E0,5.013360600E0,-4.820227652E0,-7.515993458E0,1.024004574E1
7.897765875E0,3.753752820E0,-5.448284687E0,-7.189814719E0,9.770767726E0
7.907732875E0,1.697818294E0,-5.239742571E0,-4.848694822E0,7.338074042E0
7.917699875E0,-1.735922845E-1,-4.838919446E0,-1.234263024E0,4.996867109E0
7.927666875E0,-1.630261904E0,-4.214882957E0,1.438696886E0,4.742661800E0
7.937633875E0,-2.745536721E0,-3.527280217E0,3.318070350E0,5.566800559E0
7.947600875E0,-3.227532647E0,-3.215097958E0,4.538497692E0,6.430535217E0
7.957567875E0,-3.112288705E0,-3.623447034E0,4.792630548E0,6.766462663E0
7.967534875E0,-3.015022611E0,-4.492861928E0,4.246880676E0,6.878383904E0
7.977501875E0,-3.328384838E0,-5.495023236E0,4.099628197E0,7.621048310E0
7.987468875E0,-4.018176191E0,-6.134729678E0,3.401321837E0,8.083912318E0
7.997435875E0,-4.881599443E0,-6.294575012E0,2.569964423E0,8.369970421E0
8.007402875E0,-5.700811313E0,-5.461931503E0,2.566099706E0,8.301615088E0
8.017369875E0,-6.323698239E0,-3.850613117E0,3.262977591E0,8.090945777E0
8.027336875E0,-6.290435768E0,-2.581449232E0,2.747103775E0,7.333487672E0
8.037303875E0,-5.453101038E0,-1.475524989E0,2.304826522E0,6.101287588E0
8.047270875E0,-3.880898185E0,-6.537456071E-1,2.558755603E0,4.694250130E0
8.057237875E0,-2.627217143E0,3.728588158E-1,2.668101167E0,3.762985178E0
8.067204875E0,-1.735872266E0,1.268761012E0,3.055424825E0,3.736124715E0
8.077171875E0,-1.308585228E0,2.362340028E0,3.496281788E0,4.417808512E0
8.087138875E0,-1.133699832E0,3.575353101E0,3.556963608E0,5.169179356E0
8.097106875E0,1.128333550E-1,3.858902714E0,5.864215847E0,7.020889476E0
8.107073875E0,1.571624271E0,3.842610033E0,6.515311496E0,7.725602799E0
8.117040875E0,2.563562599E0,4.005501766E0,3.266403183E0,5.769340287E0
8.127007875E0,1.107636672E0,5.183715135E0,3.229978245E0,6.207295793E0
8.136974875E0,-8.591126116E-1,5.926480508E0,5.012063688E0,7.809099058E0
8.146941875E0,-1.878934922E0,6.085769772E0,5.621007929E0,8.494864348E0
8.156908875E0,-2.595474948E0,6.523587061E0,5.567459128E0,8.960484333E0
8.166875875E0,-3.429677324E0,7.488499265E0,5.527588134E0,9.919402118E0
8.176842875E0,-4.352646866E0,8.420333186E0,5.215853187E0,1.081908823E1
8.186809875E0,-5.209049951E0,9.013995729E0,4.636269862E0,1.139654854E1
8.196776875E0,-5.507340395E0,9.360454366E0,4.055095510E0,1.159278671E1
8.206743875E0,-5.438722150E0,9.413372837E0,3.566817335E0,1.144174256E1
8.216710875E0,-5.026768851E0,9.171459492E0,3.222048251E0,1.094375024E1
8.226677875E0,-4.643765700E0,8.504172903E0,2.755072068E0,1.007352663E1
8.236644875E0,-4.555830301E0,7.617120468E0,1.749757357E0,9.046422761E0
8.246611875E0,-4.159625015E0,6.593587003E0,1.423948016E0,7.924991974E0
8.256578875E0,-3.847016787E0,5.127719275E0,1.134009004E0,6.509917015E0
8.266545875E0,-3.371455136E0,2.803000233E0,-1.222579703E-1,4.386167695E0
8.276512875E0,-3.134362236E0,-8.285598135E-1,-4.711026514E0,5.718785606E0
8.286479875E0,-1.688427958E0,-7.826533234E0,-1.771051104E1,1.943624482E1
8.296446875E0,6.628043475E0,-2.172049294E1,-2.696119328E1,3.525076903E1
8.306413875E0,1.401761311E1,-3.181147270E1,-1.591679461E1,3.823359287E1
8.316380875E0,1.495784071E1,-2.859172679E1,-6.203650224E0,3.285892749E1
8.326347875E0,1.209181393E1,-1.426075437E1,-2.716571076E0,1.889340726E1
8.336314875E0,8.288294871E0,-4.570686615E-1,-8.051148176E-1,8.339841335E0
8.346281875E0,5.898660625E0,3.976655697E0,-1.622447977E0,7.296596819E0
8.356248875E0,3.013503212E0,5.453023855E0,-3.117112073E0,6.966567192E0
8.366215875E0,-4.179716925E-1,6.516704303E0,-4.357420241E0,7.850429699E0
8.376182875E0,-3.920319529E0,6.443885418E0,-4.755259824E0,8.916561023E0
8.386149875E0,-7.433358268E0,4.409472447E0,-2.501352317E0,8.997501087E0
8.396116875E0,-1.001644180E1,1.395211143E0,1.627530377E0,1.024326977E1
8.406083875E0,-1.084777319E1,-2.406668354E0,5.658090971E0,1.246917115E1
8.416050875E0,-9.507779058E0,-6.599589170E0,9.917885807E0,1.524194537E1
8.426017875E0,-7.861559225E0,-9.775214914E0,1.288936830E1,1.798595994E1
8.435984875E0,-5.590467921E0,-7.204086018E0,7.151024290E0,1.158832755E1
8.445951875E0,-1.616748696E0,-1.429366484E0,1.057485031E0,2.403172795E0
8.455918875E0,1.139733501E0,1.278770860E0,-5.904779152E0,6.148224475E0
8.465885875E0,1.867776681E0,3.390542495E0,-7.332216640E0,8.291306832E0
8.475852875E0,7.017824572E-1,5.523696812E0,-2.479383159E0,6.095167425E0
8.485819875E0,-1.588658380E0,5.541115083E0,3.395919009E0,6.690295787E0
8.495786875E0,-3.582223287E0,4.134756222E0,6.756399214E0,8.693529953E0
8.505753875E0,-4.090784284E0,2.430909741E0,6.290607677E0,7.887685539E0
8.515720875E0,-3.976569451E0,1.006056722E0,5.976175994E0,7.248443573E0
8.525687875E0,-3.797248795E0,-6.952596688E-1,6.843348480E0,7.857092519E0
8.535654875E0,-3.868500626E0,-2.352126696E0,7.072825967E0,8.397777340E0
8.545621875E0,-4.166174482E0,-3.425978376E0,6.495050894E0,8.442749775E0
8.555588875E0,-4.043130353E0,-3.509356163E0,6.081105448E0,8.101995260E0
8.565555875E0,-3.384005015E0,-2.250249488E0,5.873376095E0,7.142244707E0
8.575522875E0,-2.312196645E0,-9.050144970E-1,5.894938288E0,6.396530464E0
8.585489875E0,-1.157110768E0,-9.713628531E-2,5.993244016E0,6.104696112E0
8.595456875E0,-1.839261783E-1,5.232766843E-1,5.681045970E0,5.708058395E0
8.605423875E0,4.825116875E-1,8.775740987E-1,4.969181378E0,5.069094337E0
8.615390875E0,1.030939549E0,9.863656390E-1,3.821185834E0,4.078874196E0
8.625357875E0,1.509887614E0,1.090908008E0,2.676417954E0,3.260836388E0
8.635325458E0,1.845473646E0,1.060336425E0,1.443871672E0,2.571935403E0
8.645292458E0,1.995165583E0,1.233032185E0,5.446120048E-1,2.407832284E0
8.655259458E0,2.003269093E0,1.515628118E0,-2.136525639E-1,2.521083709E0
8.665226458E0,1.974634693E0,1.397386308E0,-1.133493791E0,2.671456314E0
8.675193458E0,1.715872304E0,8.133055973E-1,-2.564814488E0,3.191231285E0
8.685160458E0,1.170504473E0,1.634747010E-1,-4.275534956E0,4.435876898E0
8.695127458E0,5.204333295E-1,4.796061695E-2,-5.818590024E0,5.842015143E0
8.705094458E0,-5.842245519E-2,4.599337971E-1,-6.990658554E0,7.006015936E0
8.715061458E0,-4.588329126E-1,9.968333244E-1,-7.132044228E0,7.215972505E0
8.725028458E0,-6.364865269E-1,1.266982874E0,-6.127324764E0,6.289234410E0
8.734995458E0,-5.961511177E-1,1.155166569E0,-4.525847241E0,4.708832043E0
8.744962458E0,-3.558393252E-1,1.196410489E0,-3.005907387E0,3.254765568E0
8.754929458E0,7.614960507E-2,1.206101080E0,-1.525377619E0,1.946087217E0
8.764896458E0,4.690111609E-1,9.867082858E-1,-1.693232323E-1,1.105547406E0
8.774863458E0,9.170866585E-1,4.221812493E-1,5.902998090E-1,1.169503660E0
8.784830458E0,1.563307191E0,-1.216887438E-1,7.574848607E-1,1.741413460E0
8.794797458E0,2.239713537E0,-7.753402108E-1,2.087676720E-1,2.379296768E0
8.804764458E0,2.902246778E0,-1.766081321E0,-1.050927671E0,3.556195799E0
8.814731458E0,3.392640476E0,-3.149964069E0,-2.617791139E0,5.318375079E0
8.824698458E0,3.686185612E0,-3.846068076E0,-3.982508468E0,6.651359087E0
8.834665458E0,3.845545920E0,-3.310705197E0,-4.698833316E0,6.915781001E0
8.844632458E0,3.880743819E0,-2.731289395E0,-5.059102199E0,6.936470962E0
8.854599458E0,3.676547646E0,-2.255863400E0,-3.923114205E0,5.830672975E0
8.864566458E0,3.522497780E0,-1.727848132E0,-1.558146877E0,4.221524780E0
8.874533458E0,3.599214711E0,-1.553667764E0,-2.889571184E-1,3.930868387E0
8.884500458E0,3.630462231E0,-1.676279783E0,6.459623784E-2,3.999292762E0
8.894467458E0,3.550157449E0,-2.260569239E0,3.613497412E-1,4.224259087E0
8.904434458E0,3.296173112E0,-2.969248853E0,7.830977118E-1,4.504934845E0
8.914401458E0,3.018837919E0,-3.613762291E0,3.695311654E-1,4.723263021E0
8.924368458E0,2.928670930E0,-3.868986238E0,-1.822209475E0,5.183301583E0
8.934335458E0,3.177649173E0,-3.881623825E0,-5.640206092E0,7.548270169E0
8.944302458E0,4.035845307E0,-4.376505845E0,-7.746632786E0,9.769962655E0
8.954269458E0,5.060641186E0,-4.618822648E0,-6.774759471E0,9.635402315E0
8.964236458E0,5.519871563E0,-4.608810461E0,-5.840227645E0,9.263820750E0
8.974203458E0,5.298538663E0,-5.232844611E0,-5.901218197E0,9.501660429E0
8.984170458E0,4.653660944E0,-6.063021179E0,-6.027153189E0,9.733620168E0
8.994137458E0,3.582384962E0,-6.085638210E0,-5.056782024E0,8.685592604E0
9.004104458E0,1.816657105E0,-4.771796919E0,-2.776263839E0,5.811878335E0
9.014071458E0,2.281044142E-1,-3.375187706E0,-8.055346477E-1,3.477471746E0
9.024038458E0,-1.768519903E0,-3.273040357E0,9.714482224E-1,3.845018527E0
9.034005458E0,-3.079470622E0,-3.796301254E0,3.005909725E0,5.738513379E0
9.043972458E0,-3.314893265E0,-4.140285349E0,4.260888265E0,6.803355712E0
9.053939458E0,-3.364966481E0,-4.796424807E0,4.451090004E0,7.358049509E0
9.063906458E0,-3.536131148E0,-5.675750731E0,3.450492243E0,7.524909739E0
9.073873458E0,-4.254273895E0,-6.359749832E0,2.395275639E0,8.017643649E0
9.083840458E0,-4.934416173E0,-6.884585384E0,1.917392206E0,8.684605446E0
9.093807458E0,-4.994638401E0,-6.715396199E0,2.088599849E0,8.625845361E0
9.103774458E0,-5.658290361E0,-5.370494499E0,1.835413804E0,8.014187719E0
9.113741458E0,-6.536702950E0,-3.089408550E0,9.905898137E-1,7.297547453E0
9.123708458E0,-6.490557309E0,-1.059490918E0,2.228246708E-1,6.580236015E0
9.133675458E0,-5.030087146E0,-6.310437924E-1,1.661869905E0,5.334960594E0
9.143642458E0,-3.458827741E0,-2.849932909E-1,4.866586424E0,5.977321636E0
9.153609458E0,-2.400865285E0,8.110169971E-1,6.813445820E0,7.269452980E0
9.163576458E0,-1.709346372E0,1.968273945E0,6.214378695E0,6.739025888E0
9.173543458E0,-8.948767407E-1,2.250848243E0,5.209536440E0,5.745118982E0
9.183510458E0,2.290178955E-2,2.281222774E0,4.277794905E0,4.848095614E0
9.193477458E0,1.934295775E0,1.849616983E0,4.788362081E0,5.485525914E0
9.203444458E0,3.895779642E0,1.684013311E0,4.853972518E0,6.447794123E0
9.213411458E0,3.007189973E0,3.089713190E0,3.685968972E0,5.672379253E0
9.223378458E0,3.981215648E-1,4.570711173E0,3.743825710E0,5.921666349E0
9.233345458E0,-1.208454365E0,5.266668999E0,4.626091614E0,7.113289529E0
9.243312458E0,-2.125450903E0,5.929161456E0,6.232721411E0,8.861112419E0
9.253279458E0,-3.232525585E0,6.701796160E0,6.578052120E0,9.931468327E0
9.263246458E0,-4.245644574E0,7.496420488E0,6.225870228E0,1.062935925E1
9.273213458E0,-4.973749807E0,8.406320919E0,6.048032427E0,1.148839043E1
9.283180458E0,-5.317858449E0,9.204208578E0,5.658628914E0,1.204230689E1
9.293147458E0,-5.190876220E0,9.727657170E0,5.336773607E0,1.224963928E1
9.303114458E0,-4.908628782E0,9.734922336E0,4.776082051E0,1.190270176E1
9.313081458E0,-4.392540080E0,9.437377996E0,3.985442308E0,1.114640131E1
9.323048458E0,-4.133211388E0,8.942059189E0,3.083717455E0,1.032245960E1
9.333015458E0,-4.159055204E0,8.286888031E0,2.236501223E0,9.537934323E0
9.342982458E0,-3.982993787E0,7.504580278E0,1.966177719E0,8.720597426E0
9.352949458E0,-3.586242955E0,6.163597966E0,1.684300117E0,7.327205832E0
9.362916458E0,-3.014979926E0,4.130262637E0,4.478110573E-1,5.133196680E0
9.372883458E0,-2.684966583E0,1.168646155E0,-3.452748098E0,4.527278302E0
9.382850458E0,-2.273523746E0,-4.404540905E0,-1.308495766E1,1.399231960E1
9.392817458E0,2.846735651E0,-1.696934020E1,-2.580374630E1,3.101444396E1
9.402784458E0,1.122139624E1,-3.084336090E1,-1.982044489E1,3.834165725E1
9.412751458E0,1.268862052E1,-3.010878923E1,-8.961206481E0,3.387983916E1
9.422718458E0,1.125877866E1,-1.857481839E1,-6.294186172E0,2.261417154E1
9.432685458E0,8.325566778E0,-4.615347063E0,-3.539978031E0,1.015617719E1
9.442652458E0,5.131191351E0,2.227212628E0,-2.920588324E0,6.310264411E0
9.452619458E0,3.203113213E0,4.648559248E0,-3.574184242E0,6.681603874E0
9.462586458E0,1.254639986E0,6.253978963E0,-4.087161933E0,7.575702412E0
9.472553458E0,-1.555167867E0,7.084524491E0,-4.311995269E0,8.438147757E0
9.482520458E0,-5.191129405E0,5.798394325E0,-2.155034890E0,8.075479963E0
9.492487458E0,-8.512167801E0,2.109407020E0,1.886193802E0,8.970190952E0
9.502454458E0,-1.052637046E1,-1.335078962E0,6.347222757E0,1.236422855E1
9.512421458E0,-1.036328693E1,-4.452656474E0,1.071597695E1,1.555814988E1
9.522388458E0,-8.753033325E0,-5.877346939E0,1.219541840E1,1.612101205E1
9.532355458E0,-6.777635132E0,-4.352346320E0,8.709407834E0,1.186309577E1
9.542322458E0,-4.152447266E0,-2.708162488E0,7.993076554E-1,5.021539115E0
9.552289458E0,-9.500953603E-1,-3.138464350E0,-8.584064580E0,9.189058950E0
9.562256458E0,6.756568784E-1,-1.289919162E0,-7.230428309E0,7.375601481E0
9.572223458E0,-3.843141325E-1,2.197226352E0,-2.468548268E-3,2.230584472E0
9.582190458E0,-1.939813208E0,4.192573491E0,3.683317845E0,5.908246618E0
9.592157458E0,-2.972729700E0,4.260031064E0,5.102035965E0,7.281192040E0
9.602124458E0,-3.390840995E0,3.492217389E0,5.165158997E0,7.097341221E0
9.612091458E0,-3.433699332E0,2.503598818E0,4.880854800E0,6.471556360E0
9.622058458E0,-3.822542388E0,8.768437815E-1,4.982337613E0,6.340691872E0
9.632025458E0,-4.200783859E0,-9.053641605E-1,5.690549449E0,7.130821995E0
9.641995875E0,-4.526186380E0,-2.621400332E0,6.539383314E0,8.373866310E0
9.651962875E0,-4.507841618E0,-3.668319737E0,7.244118980E0,9.287328224E0
9.661929875E0,-3.777242839E0,-3.081496097E0,7.824618856E0,9.218885068E0
9.671896875E0,-2.616719052E0,-1.083170972E0,8.512792869E0,8.971517172E0
9.681863875E0,-1.478251838E0,4.521529073E-1,8.368462536E0,8.510043241E0
9.691830875E0,-5.214941971E-1,9.418344140E-1,7.279937854E0,7.359110233E0
9.701797875E0,3.113325854E-1,8.081641406E-1,5.596737306E0,5.663349339E0
9.711764875E0,8.841563825E-1,7.179731780E-1,3.931011747E0,4.092685103E0
9.721731875E0,1.222195541E0,7.686012948E-1,3.206500797E0,3.516554742E0
9.731698875E0,1.281160617E0,3.632565182E-1,1.716038511E0,2.172122463E0
9.741665875E0,1.323543722E0,-3.751380605E-1,1.546470682E-2,1.375767315E0
9.751632875E0,1.540438585E0,-8.036214387E-1,-1.959670937E0,2.618982366E0
9.761599875E0,1.948329678E0,-1.102231725E0,-4.888458812E0,5.376609793E0
9.771566875E0,2.443385360E0,-1.092690824E0,-7.980104506E0,8.417016881E0
9.781533875E0,2.524614295E0,-3.021221244E-1,-8.292682621E0,8.673727006E0
9.791500875E0,2.321504243E0,8.144025350E-1,-5.706464986E0,6.214207598E0
9.801467875E0,1.939887760E0,1.264014242E0,-3.514788811E0,4.208875967E0
9.811434875E0,1.438627304E0,1.428905724E0,-2.725273780E0,3.396842249E0
9.821401875E0,9.875458995E-1,1.408277332E0,-2.576842210E0,3.098161991E0
9.831368875E0,5.926736324E-1,1.362997078E0,-1.750204815E0,2.296135877E0
9.841335875E0,3.795022760E-1,1.483909897E0,-5.973177834E-1,1.644019189E0
9.851302875E0,2.561207633E-1,1.427769610E0,-1.244353272E-1,1.455887377E0
9.861269875E0,1.057882641E-1,1.301990739E0,-4.828942050E-1,1.392680097E0
9.871236875E0,-9.932343632E-2,1.155999797E0,-1.359449573E0,1.787261541E0
9.881203875E0,-6.955277637E-2,7.838695443E-1,-1.735396595E0,1.905489542E0
9.891170875E0,4.178142563E-1,1.113075972E-1,-1.604528600E0,1.661767180E0
9.901137875E0,1.306219737E0,-8.658679730E-1,-2.236720785E0,2.731090848E0
9.911104875E0,2.357096829E0,-1.691187260E0,-3.362132043E0,4.440715222E0
9.921071875E0,3.109477948E0,-2.110070679E0,-3.794716659E0,5.340517381E0
9.931038875E0,3.591346698E0,-2.143888636E0,-3.587907658E0,5.510636165E0
9.941005875E0,3.873482454E0,-2.543262236E0,-3.402831588E0,5.749027043E0
9.950972875E0,4.127255999E0,-3.092611070E0,-3.493313157E0,6.229102834E0
9.960939875E0,4.238870282E0,-2.978344781E0,-3.186284634E0,6.082020115E0
9.970906875E0,4.150029734E0,-2.383718033E0,-1.770456208E0,5.102878956E0
9.980873875E0,4.062786938E0,-2.015952142E0,-3.276677325E-2,4.535567705E0
9.990840875E0,4.062490484E0,-2.016353846E0,1.122922390E0,4.672308472E0
1.000080787E1,4.212379180E0,-2.240358923E0,1.390578102E0,4.969613055E0
1.001077488E1,4.312989003E0,-2.970676743E0,6.928976861E-1,5.282698331E0
1.002074187E1,4.273278515E0,-4.181722228E0,-2.687760383E-1,5.984977078E0
1.003070888E1,4.361108372E0,-5.559208122E0,-1.321078097E0,7.188136651E0
1.004067587E1,4.729099089E0,-6.410503664E0,-3.221719930E0,8.592928181E0
1.005064288E1,5.091943671E0,-6.468974651E0,-6.077962570E0,1.023313991E1
1.006060987E1,5.577418106E0,-5.848141267E0,-6.951029050E0,1.065951002E1
1.007057688E1,5.750913765E0,-5.366106164E0,-4.799918518E0,9.214516931E0
1.008054387E1,5.515827629E0,-5.750433124E0,-4.133491470E0,8.976501951E0
1.009051088E1,5.100095859E0,-6.617823127E0,-7.102308213E0,1.096582613E1
1.010047787E1,2.937665117E0,-6.083116305E0,-9.243676114E0,1.144900557E1
1.011044488E1,-3.412980308E-1,-3.575843098E0,-8.024404181E0,8.791712044E0
1.012041187E1,-2.847675884E0,-1.694444159E0,-3.250027471E0,4.641452090E0
1.013037888E1,-4.700369964E0,-1.988951454E0,7.830743229E-1,5.163585100E0
1.014034587E1,-5.500227258E0,-2.906622834E0,4.669250790E0,7.778358382E0
1.015031288E1,-4.985557675E0,-2.796898663E0,6.056913178E0,8.328542772E0
1.016027987E1,-4.920849463E0,-3.497072332E0,5.135420058E0,7.925705868E0
1.017024688E1,-5.272678767E0,-4.744034924E0,3.721082672E0,8.009585819E0
1.018021387E1,-5.725952586E0,-5.352116116E0,2.823292702E0,8.330825986E0
1.019018088E1,-6.353170545E0,-4.873708625E0,2.890476333E0,8.512970408E0
1.020014787E1,-7.297398224E0,-3.980362832E0,2.626903732E0,8.717564587E0
1.021011488E1,-8.399966165E0,-3.284324314E0,1.460187743E0,9.136649606E0
1.022008187E1,-7.793848468E0,-1.905447367E0,1.505967202E0,8.163500525E0
1.023004888E1,-5.947883071E0,-1.170821904E0,1.053553655E0,6.152894625E0
1.024001587E1,-3.909617370E0,-1.430227779E0,9.980051064E-1,4.280966441E0
1.024998288E1,-2.631650501E0,-8.182470793E-1,1.339745771E0,3.064315809E0
1.025994987E1,-2.011736007E0,4.892283475E-1,1.460134825E0,2.533460054E0
1.026991688E1,-1.074620296E0,1.327203932E0,3.405663687E0,3.809832569E0
1.027988388E1,-1.806172390E-1,2.062845057E0,6.261256993E0,6.594792752E0
1.028985088E1,1.192675434E0,2.101913813E0,9.778237340E0,1.007245957E1
1.029981788E1,3.272664966E0,1.856447116E0,9.492252361E0,1.021075838E1
1.030978488E1,5.013972219E0,2.093473358E0,3.768066219E0,6.612175977E0
1.031975188E1,3.948206654E0,4.221595561E0,2.139300618E0,6.163344222E0
1.032971888E1,1.677834266E0,6.195491604E0,4.001888187E0,7.564016995E0
1.033968588E1,-1.034448463E-1,6.040485426E0,4.967909024E0,7.821654881E0
1.034965288E1,-1.373465348E0,5.725988254E0,5.555557705E0,8.095527775E0
1.035961988E1,-2.535139284E0,6.071850475E0,6.092323916E0,8.967201909E0
1.036958688E1,-3.619394037E0,6.618901353E0,6.030349277E0,9.657897324E0
1.037955388E1,-4.495895464E0,7.097578985E0,5.473311939E0,1.002725521E1
1.038952088E1,-5.042781451E0,7.512502670E0,4.934581064E0,1.030618413E1
1.039948788E1,-5.176717772E0,7.937989351E0,4.273718518E0,1.039590072E1
1.040945487E1,-4.916302668E0,8.407148300E0,3.873976836E0,1.048131056E1
1.041942188E1,-4.639172713E0,8.444954057E0,3.406624969E0,1.021979776E1
1.042938887E1,-4.417182878E0,8.064983858E0,2.695937422E0,9.582460424E0
1.043935588E1,-3.999560118E0,7.609371738E0,1.892786099E0,8.802366648E0
1.044932287E1,-3.710145163E0,6.906336442E0,1.279782575E0,7.943582543E0
1.045928988E1,-3.358238090E0,5.900796028E0,8.893451285E-1,6.847487977E0
1.046925687E1,-2.879875623E0,4.228217533E0,-1.818153700E-1,5.119039357E0
1.047922388E1,-2.545929443E0,1.249191551E0,-3.721846318E0,4.679142686E0
1.048919087E1,-1.565500774E0,-5.288259258E0,-1.345076181E1,1.453751946E1
1.049915788E1,3.808305295E0,-1.845199061E1,-2.546686482E1,3.167870500E1
1.050912487E1,1.139055969E1,-3.002535882E1,-2.271938916E1,3.933748424E1
1.051909188E1,1.398616562E1,-2.961360725E1,-1.147669503E1,3.470292627E1
1.052905887E1,1.370137815E1,-1.792368415E1,-3.447273935E0,2.282257466E1
1.053902588E1,1.004113576E1,-3.558937043E0,-1.487128204E0,1.075648597E1
1.054899287E1,6.984749942E0,2.524937062E0,-1.863637290E0,7.657361352E0
1.055895988E1,4.793758184E0,5.452718046E0,-3.430383668E0,8.029930493E0
1.056892687E1,2.057757103E0,7.748852974E0,-4.198235642E0,9.050097746E0
1.057889388E1,-1.497835333E0,8.079225921E0,-2.836817604E0,8.692809459E0
1.058886087E1,-5.632122316E0,5.977123243E0,9.155190200E-2,8.213110604E0
1.059882788E1,-9.335234740E0,2.868189670E0,3.210472226E0,1.028009006E1
1.060879487E1,-1.186834270E1,-1.332615530E0,5.748936821E0,1.325457269E1
1.061876188E1,-1.166207632E1,-6.222065445E0,9.294204243E0,1.615860003E1
1.062872887E1,-1.043385815E1,-9.143944250E0,1.073273975E1,1.754049072E1
1.063869200E1,-8.337557663E0,-7.113855879E0,3.686073053E0,1.156325853E1
1.064865900E1,-3.093896872E0,-2.770583269E0,-3.425964342E0,5.383824030E0
1.065862600E1,2.362275124E-4,6.365278959E-2,-6.872397448E0,6.872692225E0
1.066859300E1,5.789401308E-1,3.015459983E0,-4.656381068E0,5.577638858E0
1.067856000E1,-1.094920367E-1,5.070448136E0,-2.840179753E-1,5.079576658E0
1.068852700E1,-2.364704642E0,4.636368973E0,4.226022488E0,6.704253229E0
1.069849400E1,-4.286690274E0,3.084584597E0,6.434091332E0,8.323935782E0
1.070846100E1,-4.496799443E0,2.141289548E0,5.772068406E0,7.623850723E0
1.071842800E1,-4.626381051E0,1.032625886E0,6.192090279E0,7.798185678E0
1.072839500E1,-4.989407482E0,-7.097771358E-1,6.992618541E0,8.619436446E0
1.073836200E1,-5.079917117E0,-1.790960054E0,7.462515993E0,9.203382030E0
1.074832900E1,-4.661946740E0,-2.286311021E0,8.341046112E0,9.825172555E0
1.075829600E1,-3.788551062E0,-2.471688223E0,9.361408632E0,1.039703484E1
1.076826300E1,-2.587668330E0,-1.889831793E0,9.842576008E0,1.035102865E1
1.077823000E1,-1.200823090E0,-8.959320170E-1,9.493972027E0,9.611460614E0
1.078819700E1,3.405094972E-2,-5.559795767E-1,8.558770695E0,8.576877553E0
1.079816400E1,8.392678195E-1,-1.254752253E0,7.063472761E0,7.222978688E0
1.080813100E1,1.282336785E0,-1.332060045E0,5.672048274E0,5.965811195E0
1.081809800E1,1.445955327E0,-7.834923989E-1,3.716194400E0,4.063834146E0
1.082806500E1,1.496870250E0,8.923026502E-2,1.870725431E0,2.397539619E0
1.083803200E1,1.557865480E0,7.127393353E-1,2.159540462E-1,1.726724751E0
1.084799900E1,1.549338193E0,1.017683911E0,-1.700032343E0,2.515201651E0
1.085796600E1,1.341312387E0,8.368137431E-1,-6.020984377E0,6.225080644E0
1.086793300E1,1.117526361E0,2.353147620E-1,-1.015606863E1,1.022007672E1
1.087790000E1,1.064594660E0,1.993538010E-1,-9.830514371E0,9.890000836E0
1.088786700E1,9.163911322E-1,8.279891253E-1,-6.435113425E0,6.552558546E0
1.089783400E1,5.906988814E-1,1.655574793E0,-2.816599102E0,3.320102945E0
1.090780100E1,-3.541556194E-2,2.532081774E0,-1.594197008E0,2.992349658E0
1.091776800E1,-5.786480623E-1,2.581213589E0,-2.680249050E0,3.765797676E0
1.092773500E1,-9.566440956E-1,2.126300211E0,-3.285715367E0,4.028926158E0
1.093770200E1,-9.800469916E-1,1.736102647E0,-2.577167315E0,3.258271916E0
1.094766900E1,-8.220558093E-1,1.648252909E0,-1.537919751E0,2.399522987E0
1.095763600E1,-7.772146820E-1,1.357970227E0,-1.653084756E0,2.276144769E0
1.096760300E1,-8.017804429E-1,6.780244160E-1,-2.262354394E0,2.494156449E0
1.097757000E1,-5.775332907E-1,-5.877317119E-1,-2.612603197E0,2.739465044E0
1.098753700E1,5.219788948E-1,-1.808601104E0,-2.118921025E0,2.834312303E0
1.099750400E1,2.191159866E0,-2.353820050E0,-1.774487278E0,3.672935541E0
1.100747100E1,3.451311730E0,-2.799483717E0,-2.060422848E0,4.898367488E0
1.101743800E1,4.302397065E0,-3.395076426E0,-2.870930845E0,6.187035506E0
1.102740500E1,5.060949919E0,-3.947024932E0,-3.473349009E0,7.297696433E0
1.103737200E1,5.632788899E0,-3.857247368E0,-3.940998207E0,7.882774569E0
1.104733900E1,5.853441768E0,-2.795132804E0,-4.304755247E0,7.785015456E0
1.105730600E1,5.631774992E0,-1.685490317E0,-3.472722187E0,6.827705805E0
1.106727300E1,5.154244584E0,-9.563518810E-1,-1.441195402E0,5.436716871E0
1.107724000E1,4.788690110E0,-5.833673501E-1,2.888815431E-1,4.832734524E0
1.108720700E1,4.614484306E0,-5.355862427E-1,1.106075685E0,4.775324225E0
1.109717400E1,4.521680223E0,-9.585785007E-1,1.414833230E0,4.833861588E0
1.110714100E1,4.386325367E0,-2.059757727E0,1.323921306E0,5.023466905E0
1.111710800E1,4.171284363E0,-3.709259017E0,1.106333255E0,5.690535033E0
1.112707500E1,4.084510806E0,-5.637276052E0,-7.841350079E-2,6.961914858E0
1.113704200E1,4.462347649E0,-6.898893521E0,-3.335287769E0,8.867436092E0
1.114700900E1,5.001566767E0,-6.172206237E0,-6.440467136E0,1.022699452E1
1.115697600E1,5.562097231E0,-4.812874779E0,-6.369875455E0,9.730159431E0
1.116694300E1,5.900089685E0,-4.940741106E0,-5.028155810E0,9.192623772E0
1.117691000E1,5.686605502E0,-6.036436229E0,-6.041892850E0,1.026062930E1
1.118687700E1,4.636094154E0,-6.744212447E0,-8.262319785E0,1.162943244E1
1.119684400E1,2.317752962E0,-5.914822329E0,-7.636523868E0,9.933458550E0
1.120681100E1,-2.098887295E-2,-4.291468034E0,-3.441432567E0,5.500963236E0
1.121677800E1,-1.845432131E0,-2.199552959E0,1.403150493E0,3.195697776E0
1.122674500E1,-3.558442369E0,-1.948430834E0,3.686385294E0,5.481635827E0
1.123671200E1,-4.718821145E0,-2.994820481E0,3.387987846E0,6.535647203E0
1.124667900E1,-5.139185665E0,-3.482850149E0,3.629949138E0,7.191523149E0
1.125664600E1,-5.449458808E0,-4.295064656E0,3.405137730E0,7.729110211E0
1.126661300E1,-6.238173940E0,-5.387829155E0,2.227770599E0,8.538529085E0
1.127658000E1,-6.924492046E0,-5.970267967E0,1.125681545E0,9.211940547E0
1.128654700E1,-7.729796314E0,-5.392883488E0,2.376799607E-1,9.428119385E0
1.129651400E1,-8.498244996E0,-3.960286417E0,-2.834312072E-1,9.379998388E0
1.130648100E1,-8.164068435E0,-2.843212119E0,-3.527443939E-1,8.652184532E0
1.131644800E1,-7.033415149E0,-2.786277196E0,1.015191681E0,7.633012735E0
1.132641500E1,-5.865955979E0,-2.490336163E0,2.872836453E0,6.990307792E0
1.133638200E1,-5.035189426E0,-1.257834320E0,5.129440695E0,7.297015936E0
1.134634900E1,-3.715173476E0,-2.428617632E-1,5.164445636E0,6.366552797E0
1.135631600E1,-1.964505415E0,-1.287258679E-1,4.716053950E0,5.110481067E0
1.136628300E1,7.326276161E-2,-1.592325461E-1,5.047400751E0,5.050443226E0
1.137625000E1,2.325656643E0,-5.354289526E-1,8.473651607E0,8.803302479E0
1.138621700E1,5.344072101E0,-1.446356739E0,5.436701353E0,7.759431425E0
1.139618400E1,6.513018218E0,-6.249983561E-1,6.605693078E-1,6.576198071E0
1.140615100E1,4.107504981E0,2.321345199E0,2.817028872E0,5.495078923E0
1.141611800E1,1.871914317E0,4.516950703E0,6.011088549E0,7.748554214E0
1.142608500E1,-1.008741179E-1,5.025643262E0,5.348482071E0,7.339858735E0
1.143605200E1,-1.845688239E0,5.116592608E0,4.926952786E0,7.339001891E0
1.144601900E1,-3.424899564E0,6.204828438E0,5.802631803E0,9.159714450E0
1.145598600E1,-4.913176746E0,7.512653528E0,6.376720791E0,1.101098710E1
1.146595300E1,-6.025989593E0,8.572478907E0,6.380027976E0,1.226803579E1
1.147592000E1,-6.439633323E0,9.438070891E0,5.992953994E0,1.290199818E1
1.148588700E1,-6.214359984E0,9.741571789E0,5.433678342E0,1.276876467E1
1.149585400E1,-5.471873524E0,9.478909015E0,4.865126959E0,1.197750292E1
1.150582100E1,-4.836065421E0,8.971128622E0,4.155541320E0,1.100623465E1
1.151578800E1,-4.556687211E0,8.726717931E0,3.651461045E0,1.050010343E1
1.152575500E1,-4.478443864E0,8.933092484E0,3.240409678E0,1.050508713E1
1.153572200E1,-4.574956251E0,8.851348994E0,2.888560493E0,1.037402455E1
1.154568900E1,-4.513542068E0,8.255092626E0,2.397210775E0,9.709028570E0
1.155565600E1,-4.160564663E0,7.323356938E0,1.739449593E0,8.600438364E0
1.156562300E1,-4.155047522E0,6.167620266E0,1.579032693E0,7.602453808E0
1.157559000E1,-4.049007390E0,4.499888527E0,1.276909107E0,6.186594739E0
1.158555700E1,-3.789950008E0,2.053777195E0,3.143675096E-1,4.322100041E0
1.159552400E1,-4.244694986E0,-1.739937251E0,-4.291528845E0,6.281881644E0
1.160549100E1,-3.133777222E0,-1.148245337E1,-1.772268962E1,2.134856019E1
1.161545800E1,6.551457814E0,-3.377120679E1,-2.876881089E1,4.484484906E1
1.162542500E1,1.700336164E1,-3.881543133E1,-1.993108824E1,4.682948105E1
1.163539200E1,1.951284510E1,-2.801187011E1,-7.986175085E0,3.505987711E1
1.164535921E1,1.547111047E1,-1.245907520E1,-3.222897559E0,2.012388836E1
1.165532621E1,9.541199988E0,1.356473340E0,-1.609009906E0,9.770538880E0
1.166529321E1,6.492360005E0,5.866493338E0,-8.135736921E-1,8.787968177E0
1.167526021E1,3.864664268E0,6.547164788E0,-2.349229985E0,7.957378852E0
1.168522721E1,5.267566547E-1,5.166982743E0,-3.832428861E0,6.454664531E0
1.169519421E1,-4.533376701E0,1.842971038E0,-3.134612497E0,5.811526655E0
1.170516121E1,-9.349435288E0,-2.961980179E0,-1.037780060E0,9.862162757E0
1.171512821E1,-1.197807857E1,-7.219681127E0,3.027667215E0,1.430960973E1
1.172509521E1,-1.064049524E1,-7.051983567E0,9.350825171E0,1.582367033E1
1.173506221E1,-5.871509664E0,-3.225298426E0,7.338980699E0,9.936690262E0
1.174502921E1,-1.942970412E0,2.020511801E0,3.022103297E0,4.121978930E0
1.175499621E1,-3.081407512E0,5.733711841E0,4.319408369E0,7.812029979E0
1.176496321E1,-4.385273745E0,7.923457265E0,1.087610324E0,9.121112710E0
1.177493021E1,-4.870170475E0,8.563662475E0,-5.918341184E0,1.149267757E1
1.178489721E1,-5.061088498E0,7.189203100E0,-4.310732270E0,9.791918643E0
1.179486421E1,-6.403258379E0,4.350749445E0,2.833773544E0,8.243846863E0
1.180483121E1,-7.336849973E0,1.254175717E0,5.767799939E0,9.416466449E0
1.181479821E1,-6.861087179E0,-4.253475165E-1,6.756983936E0,9.639101083E0
1.182476521E1,-5.792610844E0,-2.790015321E0,7.599891647E0,9.954741530E0
1.183473221E1,-5.151849564E0,-4.941956157E0,7.259283149E0,1.018143784E1
1.184469921E1,-4.674302784E0,-5.801075858E0,6.793741872E0,1.008248562E1
1.185466621E1,-3.556825613E0,-5.056224200E0,6.857651939E0,9.232756995E0
1.186463321E1,-2.135218677E0,-3.505597572E0,6.605766753E0,7.777179921E0
1.187460021E1,-1.099079491E0,-1.982886722E0,6.180202889E0,6.582911456E0
1.188456721E1,-4.486936945E-1,-6.909596264E-1,5.603690815E0,5.663929907E0
1.189453421E1,-6.978127459E-2,7.444791913E-2,4.833240631E0,4.834317626E0
1.190450121E1,2.647691972E-1,3.517427659E-1,4.013700732E0,4.037774049E0
1.191446821E1,7.429226625E-1,7.189806533E-1,3.386267595E0,3.540575587E0
1.192443521E1,1.390306499E0,1.055915930E0,2.718457096E0,3.230776933E0
1.193440221E1,1.837880452E0,9.996037352E-1,2.014816028E0,2.904564650E0
1.194436921E1,2.089793705E0,5.666279411E-1,1.207887404E0,2.479374303E0
1.195433621E1,2.360002603E0,-1.179400939E-1,-3.027921240E-2,2.363141761E0
1.196430321E1,2.581500687E0,-5.584348226E-1,-2.146037487E0,3.403156203E0
1.197427021E1,2.557448750E0,-6.084934205E-1,-3.751982868E0,4.581286260E0
1.198423721E1,2.457028084E0,-8.611311436E-2,-4.307121030E0,4.959404605E0
1.199420421E1,2.301957293E0,8.633296967E-1,-4.395460764E0,5.036310244E0
1.200417121E1,2.034871100E0,1.747894142E0,-3.657128751E0,4.535463044E0
1.201413821E1,1.708949931E0,2.429000625E0,-2.455049386E0,3.853287089E0
1.202410521E1,1.287515371E0,2.878163266E0,-1.637517567E0,3.552883815E0
1.203407221E1,8.313527361E-1,2.866897436E0,-1.614997455E0,3.393886424E0
1.204403921E1,2.051150626E-1,2.454343627E0,-1.968975611E0,3.153211028E0
1.205400621E1,-2.593216753E-1,1.743963643E0,-2.128140914E0,2.763628172E0
1.206397321E1,-5.467737204E-1,1.214936222E0,-2.482106792E0,2.817070402E0
1.207394021E1,-8.262946022E-1,1.039584072E0,-3.137725847E0,3.407172039E0
1.208390721E1,-9.685328007E-1,1.005551523E0,-3.515920247E0,3.782973015E0
1.209387321E1,-6.107877217E-1,7.685036463E-1,-2.843071201E0,3.007775482E0
1.210384021E1,2.941538313E-1,2.391446882E-1,-1.626984101E0,1.670566946E0
1.211380721E1,1.385308884E0,-9.044373769E-1,-1.062716242E0,1.966329953E0
1.212377421E1,2.672679829E0,-2.151892889E0,-1.393052059E0,3.703303190E0
1.213374121E1,3.708662893E0,-3.518949105E0,-2.207371271E0,5.568632793E0
1.214370821E1,4.519109495E0,-4.447462392E0,-3.076660450E0,7.047560704E0
1.215367521E1,5.159924569E0,-4.526977508E0,-4.310472362E0,8.105462288E0
1.216364221E1,5.592537836E0,-3.710487517E0,-6.175856069E0,9.120602790E0
1.217360921E1,5.608624696E0,-2.824716792E0,-6.280482638E0,8.881450225E0
1.218357621E1,5.181001443E0,-2.160008824E0,-3.106218710E0,6.415372845E0
1.219354321E1,4.764207233E0,-1.597761033E0,-1.595500499E-1,5.027520969E0
1.220351021E1,4.573000942E0,-1.295082838E0,1.101609874E0,4.878844278E0
1.221347721E1,4.526652988E0,-1.413160926E0,1.711807758E0,5.041616494E0
1.222344421E1,4.442155459E0,-2.195456985E0,1.931571558E0,5.318246438E0
1.223341121E1,4.145417451E0,-3.329137375E0,1.737999922E0,5.593593231E0
1.224337821E1,3.565487094E0,-4.471738862E0,1.017644003E0,5.809022808E0
1.225334521E1,3.002970330E0,-5.180352402E0,-6.259884359E-1,6.020443782E0
1.226331221E1,2.892594779E0,-5.543449291E0,-4.308145170E0,7.593223914E0
1.227327921E1,3.223919945E0,-4.787133581E0,-8.183868862E0,1.001429065E1
1.228324621E1,3.719602157E0,-3.585851777E0,-8.908712518E0,1.029849173E1
1.229321321E1,4.098891156E0,-3.952697901E0,-6.803676292E0,8.872132803E0
1.230318021E1,3.776523632E0,-5.644482161E0,-6.463836118E0,9.375685946E0
1.231314721E1,2.259294692E0,-6.220706552E0,-8.540298756E0,1.080455022E1
1.232311421E1,5.089445740E-2,-5.506819409E0,-7.680806587E0,9.451054971E0
1.233308121E1,-1.540069187E0,-4.104930745E0,-3.375775936E0,5.533365404E0
1.234304821E1,-2.396166755E0,-2.640837062E0,1.127587591E0,3.739931722E0
1.235301521E1,-3.646195334E0,-2.284904766E0,4.455076636E0,6.193806426E0
1.236298221E1,-4.071789311E0,-2.613324158E0,5.523668160E0,7.343013094E0
1.237294921E1,-3.938311996E0,-2.861709786E0,4.770304710E0,6.815826531E0
1.238291621E1,-3.998909323E0,-3.982104717E0,4.342739929E0,7.120942623E0
1.239288321E1,-4.407878204E0,-5.273278107E0,3.823784337E0,7.864997070E0
1.240285021E1,-5.392908046E0,-5.571038209E0,2.593923097E0,8.176084696E0
1.241281721E1,-6.302214984E0,-6.048746372E0,1.146898606E0,8.810256681E0
1.242278421E1,-7.193118396E0,-6.517436374E0,-1.344545897E0,9.799272056E0
1.243275121E1,-7.281543499E0,-5.010030611E0,-1.825220060E0,9.025115552E0
1.244271821E1,-6.564045700E0,-2.974275119E0,-2.779625988E-1,7.211814726E0
1.245268521E1,-5.473592606E0,-1.808168995E0,2.352801465E0,6.226183892E0
1.246265221E1,-4.133856336E0,-5.237865615E-1,4.497789377E0,6.131331817E0
1.247261921E1,-3.074732038E0,1.167776674E0,6.010800866E0,6.851817753E0
1.248258621E1,-1.687419606E0,2.214454588E0,5.744934987E0,6.384001257E0
1.249255321E1,-1.334428533E-1,2.554446205E0,6.128196584E0,6.640617123E0
1.250252021E1,1.430148842E0,2.298506559E0,9.217454860E0,9.606764919E0
1.251248721E1,4.460505776E0,1.445935739E0,6.805518165E0,8.264497530E0
1.252245421E1,5.683413507E0,1.924250844E0,2.398448923E-1,6.005119148E0
1.253242121E1,3.125868863E0,3.978688774E0,2.368949136E0,5.586854259E0
1.254238821E1,6.493473315E-1,5.370369369E0,4.933602240E0,7.321403566E0
1.255235521E1,-7.388311464E-1,5.502618184E0,5.531031559E0,7.836899160E0
1.256232221E1,-1.874813805E0,5.789129412E0,5.978347650E0,8.530509174E0
1.257228921E1,-3.108999938E0,6.159549939E0,6.400572753E0,9.411337186E0
1.258225621E1,-4.382728452E0,6.732684077E0,6.064057306E0,1.006529357E1
1.259222321E1,-5.238445074E0,7.496492994E0,5.649854583E0,1.074986376E1
1.260219021E1,-5.648807931E0,8.228498905E0,5.284949734E0,1.129371148E1
1.261215721E1,-5.669355047E0,8.629792730E0,5.299019305E0,1.160579660E1
1.262212421E1,-5.451966094E0,8.783707818E0,4.993337395E0,1.148089176E1
1.263209121E1,-5.124778125E0,8.944747154E0,4.123219958E0,1.110282826E1
1.264205758E1,-4.862090208E0,8.970632778E0,3.510309259E0,1.079047936E1
1.265202458E1,-4.564910443E0,8.524341120E0,2.833415987E0,1.007626146E1
1.266199158E1,-4.320540682E0,7.767496821E0,1.792271877E0,9.067155956E0
1.267195858E1,-3.758508653E0,6.854034267E0,1.119885639E0,7.896728238E0
1.268192558E1,-3.290693394E0,5.595598853E0,2.593802936E-1,6.496665889E0
1.269189258E1,-2.799153642E0,3.550158618E0,-1.461175630E0,4.751202116E0
1.270185958E1,-2.475735081E0,-4.439264596E-1,-6.117455249E0,6.614347558E0
1.271182658E1,-1.349937615E0,-9.315070617E0,-1.826639063E1,2.054881745E1
1.272179358E1,6.650040116E0,-2.532129488E1,-2.720475087E1,3.775565491E1
1.273176058E1,1.407738452E1,-3.560404928E1,-1.723407874E1,4.198612330E1
1.274172758E1,1.648013758E1,-3.051047190E1,-7.819168666E0,3.554747851E1
1.275169458E1,1.490032165E1,-1.432861482E1,-3.800684327E0,2.101842024E1
1.276166158E1,9.783781085E0,-6.744143450E-1,-2.853294766E0,1.021364274E1
1.277162858E1,5.970410054E0,3.802691676E0,-3.623792020E0,7.952240490E0
1.278159558E1,2.793932663E0,6.035339876E0,-4.393085625E0,7.970607784E0
1.279156258E1,-1.035294555E0,6.350285529E0,-3.967993047E0,7.559294275E0
1.280152958E1,-5.944333227E0,3.495368453E0,-8.082851779E-1,6.943055744E0
1.281149658E1,-1.093975223E1,-7.393137610E-1,2.541832591E0,1.125547319E1
1.282146358E1,-1.317272554E1,-4.340337893E0,5.412449441E0,1.488804353E1
1.283143058E1,-1.252758937E1,-7.779169618E0,8.365334276E0,1.695390200E1
1.284139758E1,-1.066346778E1,-6.240763087E0,9.551396363E0,1.561684480E1
1.285136458E1,-7.003269829E0,4.652904314E-1,3.772099628E0,7.968125193E0
1.286133158E1,-2.751604669E0,4.121107652E0,-2.435098686E0,5.521282654E0
1.287129858E1,-5.113082378E-1,5.489615146E0,-5.023534756E0,7.458767459E0
1.288126558E1,-4.144688449E-1,6.887790828E0,-2.799778417E0,7.446623805E0
1.289123258E1,-1.724449438E0,6.831357011E0,8.747797143E-1,7.099746757E0
1.290119958E1,-3.821091987E0,4.720646646E0,4.987422352E0,7.858729569E0
1.291116658E1,-5.166427258E0,2.382603554E0,7.227763149E0,9.198333025E0
1.292113358E1,-5.045550107E0,8.674285948E-1,8.004274557E0,9.501495642E0
1.293110058E1,-4.914542656E0,-1.337668694E0,7.895004129E0,9.395380634E0
1.294106758E1,-4.431717302E0,-3.648540945E0,7.245828706E0,9.244133432E0
1.295103458E1,-3.573074733E0,-4.920856479E0,6.847595898E0,9.158125415E0
1.296100158E1,-2.980694193E0,-4.797749201E0,6.490495913E0,8.604038149E0
1.297096858E1,-2.110158387E0,-3.154949990E0,6.181002789E0,7.253362898E0
1.298093558E1,-1.134260142E0,-1.333331230E0,5.819331450E0,6.076918361E0
1.299090258E1,-1.128866377E-1,-2.477471119E-1,5.555161264E0,5.561828718E0
1.300086958E1,1.012326984E0,3.229294413E-1,5.689796913E0,5.788167089E0
1.301083658E1,1.689176694E0,6.564224625E-1,5.431278645E0,5.725643726E0
1.302080358E1,2.006124142E0,9.093654102E-1,4.861666285E0,5.337347523E0
1.303077058E1,1.965706141E0,1.116029985E0,3.700050237E0,4.335884606E0
1.304073758E1,1.769216306E0,1.182940258E0,2.153100339E0,3.027427136E0
1.305070458E1,1.532192988E0,9.883572006E-1,5.763378274E-1,1.912231837E0
1.306067158E1,1.325729265E0,3.808110291E-1,-1.074566209E0,1.748504407E0
1.307063858E1,1.141130035E0,-2.287027305E-1,-2.489148009E0,2.747788294E0
1.308060558E1,9.970614389E-1,-4.625954497E-1,-3.223242545E0,3.405498285E0
1.309057258E1,7.427429337E-1,-1.171589059E-1,-4.057872938E0,4.126951182E0
1.310053958E1,5.592788681E-1,7.475250059E-1,-5.009927115E0,5.096170738E0
1.311050558E1,3.073632762E-1,1.667735832E0,-4.669262484E0,4.967678244E0
1.312047358E1,-1.181228194E-1,2.356571749E0,-3.898127006E0,4.556619094E0
1.313044058E1,-5.651757851E-1,2.586860830E0,-3.852418152E0,4.674654879E0
1.314040658E1,-8.584751920E-1,2.182094927E0,-3.510592849E0,4.221703457E0
1.315037458E1,-1.085626510E0,1.373037917E0,-2.998244026E0,3.471784164E0
1.316034058E1,-1.172847379E0,6.434895909E-1,-2.974884984E0,3.261838515E0
1.317030758E1,-1.069914457E0,1.145843768E-1,-3.643615251E0,3.799181309E0
1.318027458E1,-5.479753232E-1,-3.206829411E-1,-3.984107389E0,4.034380521E0
1.319024158E1,3.053984655E-1,-8.673449796E-1,-3.415908301E0,3.537511139E0
1.320020858E1,1.661169116E0,-1.013723592E0,-2.171315001E0,2.915772142E0
1.321017558E1,2.919239371E0,-8.840305942E-1,-1.340127595E0,3.331577790E0
1.322014258E1,3.696655928E0,-1.345078286E0,-1.515928226E0,4.215748929E0
1.323010958E1,4.375308335E0,-1.763979832E0,-2.410960357E0,5.297893706E0
1.324007658E1,4.799746902E0,-2.081198298E0,-2.915871960E0,5.989262556E0
1.325004358E1,5.009210247E0,-2.607713170E0,-2.811399173E0,6.308432498E0
1.326001058E1,5.103151613E0,-2.977300469E0,-2.450544399E0,6.396220941E0
1.326997758E1,5.051890243E0,-2.599130627E0,-1.868702880E0,5.980729512E0
1.327994458E1,4.835309376E0,-1.721900929E0,-9.344126894E-1,5.217114781E0
1.328991158E1,4.539208714E0,-1.129341171E0,6.892814755E-2,4.678095587E0
1.329987858E1,4.334038687E0,-9.138823843E-1,8.083692317E-1,4.502502990E0
1.330984558E1,4.187457177E0,-1.098127565E0,1.195373047E0,4.491057613E0
1.331981258E1,4.030630760E0,-1.808405807E0,1.429687496E0,4.643309404E0
1.332977958E1,3.694435741E0,-2.990432146E0,1.332711132E0,4.936360889E0
1.333974658E1,3.292005216E0,-4.268864452E0,5.551122884E-1,5.419285166E0
1.334971358E1,3.025326867E0,-5.050091640E0,-1.384737026E0,6.047604886E0
1.335968058E1,2.916883821E0,-5.106172285E0,-4.499041266E0,7.404227099E0
1.336964758E1,3.423914309E0,-4.776717351E0,-7.307351940E0,9.377505543E0
1.337961458E1,4.444743144E0,-4.047216972E0,-7.272487332E0,9.435294316E0
1.338958158E1,5.450376821E0,-4.144628077E0,-5.260701916E0,8.634786276E0
1.339954858E1,5.813256193E0,-5.367521190E0,-5.560833648E0,9.670941120E0
1.340951558E1,4.982970867E0,-6.176748354E0,-8.203024340E0,1.141366844E1
1.341948258E1,2.780844548E0,-5.359534478E0,-8.208352323E0,1.018993396E1
1.342944958E1,5.110619970E-1,-4.005638006E0,-5.385539385E0,6.731296656E0
1.343941658E1,-1.308546637E0,-3.358668153E0,-2.961141104E0,4.664901145E0
1.344938358E1,-2.888253222E0,-2.544797714E0,-5.021588802E-3,3.849419085E0
1.345935058E1,-3.502613153E0,-1.783055788E0,4.669718567E0,6.103593887E0
1.346931758E1,-3.605947487E0,-2.203553624E0,5.889278183E0,7.248593200E0
1.347928458E1,-3.490379024E0,-3.922499371E0,5.624531461E0,7.694420134E0
1.348925158E1,-3.957345560E0,-5.602841799E0,4.884662215E0,8.420946803E0
1.349921858E1,-4.965584171E0,-6.451107314E0,3.791781356E0,8.980613431E0
1.350918558E1,-6.023746601E0,-6.542805689E0,2.755364428E0,9.310524289E0
1.351915258E1,-6.754947935E0,-6.285547496E0,2.169658484E0,9.478652165E0
1.352911958E1,-7.599608642E0,-5.467485774E0,1.382549583E0,9.463556178E0
1.353908658E1,-7.386129722E0,-3.569450921E0,4.605863464E-1,8.216327156E0
1.354905358E1,-5.860803412E0,-1.741475653E0,7.755970497E-1,6.163059700E0
1.355902058E1,-3.735659196E0,-1.030557725E0,2.638500515E0,4.688164227E0
1.356898758E1,-2.115090806E0,-4.770772487E-1,3.909209819E0,4.470249795E0
1.357895458E1,-1.601402678E0,8.481275207E-1,3.727875090E0,4.144980521E0
1.358892158E1,-1.268631496E0,2.141720488E0,4.232167034E0,4.909952172E0
1.359888858E1,-4.460514108E-1,2.662309207E0,5.355110475E0,5.997004283E0
1.360885558E1,6.785887454E-1,2.707937370E0,6.493759829E0,7.068403228E0
1.361882258E1,2.079257315E0,2.365160140E0,7.044395635E0,7.716268744E0
1.362878958E1,3.844351918E0,2.128035665E0,3.744470657E0,5.773096047E0
1.363875658E1,4.100852312E0,3.222140345E0,1.702565649E0,5.486156020E0
1.364872375E1,1.873007600E0,4.965359053E0,3.244789535E0,6.220257802E0
1.365869075E1,-5.550246533E-1,4.968449306E0,4.149014365E0,6.496757736E0
1.366865775E1,-1.935888849E0,4.720931990E0,5.061291397E0,7.186900242E0
1.367862475E1,-3.217137467E0,5.594038231E0,5.667365824E0,8.588496527E0
1.368859175E1,-4.300780309E0,6.854596769E0,5.924819899E0,1.002924219E1
1.369855875E1,-5.132949024E0,7.971373444E0,5.624007550E0,1.102358477E1
1.370852575E1,-5.620571142E0,8.969230615E0,4.890180524E0,1.165983633E1
1.371849275E1,-5.499927295E0,9.544625287E0,4.223170216E0,1.179763700E1
1.372845975E1,-4.974834466E0,9.699126266E0,3.403665108E0,1.141958688E1
1.373842675E1,-4.244790588E0,9.505494550E0,2.727958529E0,1.076171137E1
1.374839375E1,-3.805234922E0,8.870362385E0,2.235266875E0,9.907550639E0
1.375836075E1,-3.636097485E0,8.117015891E0,1.718753081E0,9.058767248E0
1.376832775E1,-3.409658797E0,7.486728728E0,1.268207281E0,8.323774977E0
1.377829475E1,-3.442646449E0,6.390808488E0,7.549869302E-1,7.298236291E0
1.378826175E1,-3.458684484E0,4.665258311E0,-3.202835763E-1,5.816331751E0
1.379822875E1,-3.532964588E0,1.746447541E0,-3.897366868E0,5.542687642E0
1.380819575E1,-3.243439413E0,-4.068609595E0,-1.340800697E1,1.438221590E1
1.381816275E1,1.879661731E0,-1.678412380E1,-2.505812106E1,3.021836148E1
1.382812975E1,1.138590180E1,-3.138582113E1,-2.240498204E1,4.020810550E1
1.383809675E1,1.459005903E1,-3.152822188E1,-8.842540163E0,3.584813962E1
1.384806375E1,1.271277887E1,-1.906383624E1,-4.110677388E0,2.327965351E1
1.385803075E1,9.177739402E0,-4.480258255E0,-1.218357136E0,1.028532978E1
1.386799775E1,6.972111771E0,1.138194441E0,-1.341118844E0,7.190579175E0
1.387796475E1,4.994839545E0,3.916293136E0,-3.473617980E0,7.235454089E0
1.388793175E1,2.532520023E0,6.964199318E0,-4.635957621E0,8.741043009E0
1.389789875E1,-4.600291067E-1,8.684786378E0,-3.426184198E0,9.347506586E0
1.390786575E1,-4.673442366E0,7.530321475E0,-1.477301373E0,8.984944319E0
1.391783275E1,-8.492808840E0,5.003417995E0,1.509291490E0,9.971958405E0
1.392779975E1,-1.042414008E1,2.132108250E0,4.442540206E0,1.153016676E1
1.393776675E1,-1.105016053E1,-1.540484632E0,5.514602637E0,1.244548042E1
1.394773375E1,-9.759793468E0,-5.838242515E0,7.697192824E0,1.373264074E1
1.395770075E1,-7.714927429E0,-9.541245596E0,8.608212411E0,1.498855542E1
1.396766775E1,-4.125616732E0,-1.063978773E1,-1.357684737E0,1.149213227E1
1.397763375E1,7.009962990E-1,-5.966426346E0,-2.601744040E0,6.546656491E0
1.398760075E1,1.722208493E0,-2.441539979E-1,-1.068224027E0,2.041253497E0
1.399756775E1,1.290148519E0,3.394629698E0,-1.157890933E0,3.811653893E0
1.400753475E1,2.513272159E-2,6.147545021E0,1.862389933E0,6.423506651E0
1.401750175E1,-1.547558008E0,6.623346407E0,4.178512399E0,7.982707516E0
1.402746875E1,-3.174403676E0,5.385904836E0,5.539523470E0,8.352911461E0
1.403743575E1,-3.715094246E0,4.171366809E0,5.732442995E0,8.003944590E0
1.404740275E1,-3.829690610E0,3.442923607E0,5.381938670E0,7.448860112E0
1.405736975E1,-4.002222355E0,1.135555007E0,5.888882911E0,7.210146385E0
1.406733675E1,-4.342366000E0,-2.243059167E0,6.647335778E0,8.250729050E0
1.407730375E1,-4.704602763E0,-4.497034501E0,6.816836035E0,9.424747211E0
1.408727075E1,-4.223921876E0,-5.271365483E0,6.835955261E0,9.610363905E0
1.409723775E1,-3.102571509E0,-3.853578824E0,6.567963334E0,8.222783111E0
1.410720475E1,-1.955188169E0,-1.708159388E0,6.759733297E0,7.241171419E0
1.411717175E1,-7.637630162E-1,-6.200457644E-1,6.347440274E0,6.423222612E0
1.412713875E1,6.870741516E-2,-2.447866666E-1,5.362869730E0,5.368893085E0
1.413710575E1,8.406392840E-1,-1.961565435E-2,4.677068517E0,4.752055249E0
1.414707275E1,1.406339564E0,-9.390569866E-2,4.171140522E0,4.402842548E0
1.415703975E1,1.641787643E0,-4.111364436E-1,2.879554904E0,3.340110220E0
1.416700675E1,1.665749240E0,-6.971629375E-1,1.276302312E0,2.211267574E0
1.417697375E1,1.766204113E0,-4.099553061E-1,5.224253297E-2,1.813910032E0
1.418694075E1,1.981405184E0,3.134633839E-1,-1.602987859E0,2.567838755E0
1.419690775E1,2.280066926E0,1.008409642E0,-4.391050209E0,5.049447211E0
1.420687475E1,2.290393401E0,9.462432146E-1,-6.770673437E0,7.209944309E0
1.421684175E1,2.030806116E0,8.845258534E-1,-7.119547559E0,7.456173074E0
1.422680875E1,1.817039221E0,1.449154047E0,-5.293567945E0,5.781309590E0
1.423677575E1,1.520749694E0,1.814987433E0,-3.401309558E0,4.144365539E0
1.424674275E1,1.015709745E0,1.966150237E0,-2.639576987E0,3.444528953E0
1.425670975E1,5.676316157E-1,1.928425171E0,-2.341497043E0,3.086039159E0
1.426667675E1,2.917363000E-1,1.670088751E0,-2.082994562E0,2.685735068E0
1.427664375E1,1.563161011E-1,1.260652093E0,-1.597363568E0,2.040894116E0
1.428661075E1,1.275347900E-1,1.036159358E0,-1.589644513E0,1.901804673E0
1.429657775E1,4.662277400E-2,9.660214216E-1,-2.407135547E0,2.594161254E0
1.430654475E1,6.171443760E-2,9.361292857E-1,-3.423773975E0,3.549982387E0
1.431651175E1,4.187158969E-1,6.028257143E-1,-3.436211880E0,3.513726502E0
1.432647875E1,1.225478314E0,-2.853909016E-1,-2.580206698E0,2.870663977E0
1.433644575E1,2.414209216E0,-9.256300253E-1,-1.896162281E0,3.206341916E0
1.434641275E1,3.313675875E0,-1.144674910E0,-1.840190102E0,3.959422693E0
1.435637975E1,3.847693017E0,-1.651916190E0,-2.086059965E0,4.678163617E0
1.436634675E1,4.224091737E0,-2.374004053E0,-2.113918732E0,5.286539384E0
1.437631375E1,4.409100564E0,-3.029444184E0,-2.033194996E0,5.722899767E0
1.438628075E1,4.412185555E0,-2.915551533E0,-2.220613461E0,5.735760303E0
1.439624775E1,4.102391591E0,-2.403197447E0,-2.173571149E0,5.227751551E0
1.440621475E1,3.854523442E0,-2.108463280E0,-1.581706917E0,4.669557274E0
1.441618175E1,3.900837775E0,-1.992190227E0,-9.228318402E-1,4.476268072E0
1.442614875E1,4.202710224E0,-2.601840227E0,-1.103050336E0,5.064490679E0
1.443611575E1,4.704996573E0,-3.985946923E0,-2.733788495E0,6.745247598E0
1.444608275E1,5.174587632E0,-5.165796343E0,-4.686393072E0,8.684704315E0
1.445604975E1,5.721104075E0,-5.436848702E0,-5.538602534E0,9.641912345E0
1.446601675E1,6.433507780E0,-5.102538825E0,-5.705602521E0,9.998991197E0
1.447598375E1,7.050076205E0,-4.775846701E0,-5.612686172E0,1.019875151E1
1.448595075E1,7.220475179E0,-4.421998352E0,-5.266683617E0,9.971323260E0
1.449591775E1,7.217937487E0,-4.801942824E0,-5.068989256E0,1.004250609E1
1.450588475E1,6.927063652E0,-5.934316362E0,-5.154101327E0,1.047688322E1
1.451585175E1,5.232037110E0,-7.308781584E0,-4.816543906E0,1.019762697E1
1.452581875E1,1.963946860E0,-7.794819106E0,-2.613290244E0,8.452548613E0
1.453578575E1,-5.983774450E-1,-7.270846603E0,-2.263702762E-1,7.298938922E0
1.454575275E1,-2.387891483E0,-6.227088203E0,1.968779730E0,6.953757750E0
1.455571975E1,-3.661840437E0,-4.908168606E0,4.261056665E0,7.460281386E0
1.456568675E1,-4.091199728E0,-5.096041399E0,4.769942182E0,8.090729360E0
1.457565375E1,-4.432450835E0,-6.074129720E0,4.654306476E0,8.843316178E0
1.458562075E1,-5.148221367E0,-7.194350404E0,4.186925665E0,9.787400447E0
1.459558775E1,-6.107678120E0,-7.643107249E0,3.547443756E0,1.040697735E1
1.460555475E1,-7.378089216E0,-6.751182913E0,3.221331675E0,1.050674302E1
1.461552175E1,-8.699947039E0,-5.329630063E0,3.346987755E0,1.073761436E1
1.462548875E1,-8.854597122E0,-3.042479966E0,2.817967935E0,9.777602867E0
1.463545575E1,-7.066588742E0,-1.358885901E0,1.586531016E0,7.368875627E0
1.464542308E1,-5.215370792E0,-1.066784150E0,1.313717476E0,5.483062513E0
1.465539008E1,-4.254799852E0,-8.507663691E-1,2.256694289E0,4.890786676E0
1.466535708E1,-3.426718633E0,3.367820799E-1,3.177113861E0,4.685069396E0
1.467532408E1,-2.443183339E0,1.525589435E0,3.424220410E0,4.474578569E0
1.468529108E1,-1.379658135E0,2.809056194E0,4.147671260E0,5.195905133E0
1.469525808E1,9.371186346E-2,3.518242761E0,8.046877370E0,8.782883891E0
1.470522508E1,2.320546177E0,3.195126209E0,1.062169644E1,1.133199900E1
1.471519208E1,4.861639095E0,2.478765693E0,4.524619911E0,7.088864464E0
1.472515908E1,4.851302095E0,3.159120224E0,5.913856369E-1,5.819356458E0
1.473512608E1,2.063343679E0,5.240954114E0,3.050483927E0,6.405500711E0
1.474509308E1,-1.914551628E-1,6.339135473E0,4.917959769E0,8.025435933E0
1.475506008E1,-1.542546360E0,6.288607344E0,4.882371568E0,8.109474935E0
1.476502608E1,-2.628470493E0,6.591306589E0,5.675740206E0,9.086704935E0
1.477499308E1,-3.925000225E0,7.320851991E0,5.815154200E0,1.013984808E1
1.478496008E1,-5.102381535E0,8.223308331E0,5.579642386E0,1.117092236E1
1.479492708E1,-5.729861450E0,9.017490025E0,5.568965371E0,1.204822866E1
1.480489408E1,-5.963724348E0,9.303804202E0,5.207471788E0,1.221656839E1
1.481486108E1,-5.673113637E0,9.064221557E0,4.699996619E0,1.168050936E1
1.482482808E1,-5.254399202E0,8.669157355E0,4.225237792E0,1.098251495E1
1.483479508E1,-5.094429322E0,8.351184014E0,3.617312720E0,1.042978599E1
1.484476208E1,-4.998509842E0,7.821791142E0,3.226283097E0,9.827228497E0
1.485472908E1,-4.797420588E0,7.115008950E0,2.688851473E0,8.992692528E0
1.486469608E1,-4.331841888E0,6.243406028E0,2.237544804E0,7.921589470E0
1.487466308E1,-4.163877110E0,5.049850150E0,1.862773657E0,6.805055828E0
1.488463008E1,-4.054165218E0,3.342224028E0,1.384629730E0,5.433591497E0
1.489459708E1,-4.025482872E0,9.658331412E-1,-5.019833176E-1,4.170051949E0
1.490456408E1,-3.956212954E0,-2.644777501E0,-4.756101823E0,6.728073537E0
1.491453108E1,-2.605018773E0,-1.194713627E1,-1.850178783E1,2.217738355E1
1.492449808E1,6.249849075E0,-3.095141277E1,-2.974094791E1,4.337712010E1
1.493446508E1,1.570975289E1,-3.374375528E1,-2.013969351E1,4.232073500E1
1.494443208E1,1.919207269E1,-2.493162941E1,-1.108358672E1,3.335817282E1
1.495439908E1,1.600039225E1,-1.128688505E1,-4.075449668E0,2.000039040E1
1.496436608E1,1.066460916E1,9.941348344E-1,-1.495791293E0,1.081478544E1
1.497433308E1,7.090417315E0,5.569847715E0,-1.681277837E0,9.171909095E0
1.498430008E1,3.863707956E0,7.168137336E0,-3.427504499E0,8.835056261E0
1.499426708E1,8.602332305E-1,7.906127288E0,-3.354131298E0,8.631167167E0
1.500423408E1,-2.705000314E0,7.017156966E0,-1.141925110E0,7.606675459E0
1.501420108E1,-6.854844106E0,3.907332863E0,3.303835888E0,8.554032347E0
1.502416808E1,-1.021424725E1,-3.253829330E-1,8.145035748E0,1.306821826E1
1.503413508E1,-1.088462117E1,-4.840581225E0,1.279598475E1,1.748266085E1
1.504410208E1,-1.158825639E1,-8.689222076E0,1.482849212E1,2.072859004E1
1.505406908E1,-1.378663874E1,-1.069831368E1,1.003035934E1,2.012792666E1
1.506403608E1,-1.197969357E1,-7.166444567E0,-2.799823733E-1,1.396242729E1
1.507400308E1,-3.768734263E0,9.947517157E-2,-6.040804099E0,7.120713968E0
1.508397008E1,-4.347896004E-1,3.909488146E0,-8.084002512E0,8.990230040E0
1.509393708E1,3.982349643E-1,5.492230605E0,-8.608614700E0,1.021916998E1
1.510390408E1,-9.472696933E-1,6.433459248E0,-9.101003321E-1,6.566201366E0
1.511387108E1,-2.724608366E0,5.100553696E0,4.552279580E0,7.359510046E0
1.512383808E1,-2.929500358E0,3.315291168E0,4.691173171E0,6.448273691E0
1.513380508E1,-3.146986959E0,1.994254879E0,4.454007765E0,5.806786083E0
1.514377208E1,-4.100697361E0,1.180430049E-1,4.916319040E0,6.403112204E0
1.515373908E1,-4.941222916E0,-2.340673170E0,5.653217901E0,7.864687370E0
1.516370608E1,-5.201488917E0,-3.845013823E0,6.289580905E0,9.022108746E0
1.517367308E1,-4.842202950E0,-3.716975588E0,6.793571134E0,9.133205663E0
1.518364008E1,-4.051172906E0,-2.290739118E0,6.757676246E0,8.205222475E0
1.519360708E1,-2.943067945E0,-8.789195430E-1,6.837123535E0,7.495359012E0
1.520357408E1,-1.677186686E0,1.163818109E-1,6.650811363E0,6.860013972E0
1.521354108E1,-5.167751287E-1,4.254931122E-1,5.604615844E0,5.644450344E0
1.522350808E1,5.896414490E-1,1.046891922E0,5.425139068E0,5.556599108E0
1.523347508E1,1.451269862E0,1.781608018E0,5.495593339E0,5.956664964E0
1.524344208E1,2.222634551E0,2.079972137E0,4.576402853E0,5.496348925E0
1.525340908E1,2.692730516E0,2.212448409E0,2.857405651E0,4.506716393E0
1.526337608E1,2.997126038E0,1.967804414E0,1.569087456E0,3.913700825E0
1.527334308E1,3.089475500E0,1.377510452E0,6.072438705E-1,3.436733774E0
1.528331008E1,2.843407416E0,1.350233191E-1,-4.270232555E-1,2.878462418E0
1.529327708E1,2.359093361E0,-1.260586604E0,-1.616787288E0,3.125444162E0
1.530324408E1,1.867558287E0,-1.951302402E0,-3.504694178E0,4.424730082E0
1.531321108E1,1.314523807E0,-1.632975304E0,-6.886215003E0,7.198231606E0
1.532317808E1,7.606594603E-1,-3.319125187E-1,-1.021971674E1,1.025335940E1
1.533314508E1,4.263623008E-1,9.195079905E-1,-1.018856394E1,1.023885321E1
1.534311208E1,3.188138786E-1,1.654764369E0,-7.521807345E0,7.708273032E0
1.535307908E1,2.087301037E-1,2.016272569E0,-5.014565712E0,5.408769972E0
1.536304608E1,-1.447916776E-3,2.042612522E0,-4.039297503E0,4.526388442E0
1.537301308E1,9.147340313E-2,1.562226918E0,-2.603185671E0,3.037350155E0
1.538298008E1,9.201807126E-1,7.595562369E-1,-5.029663807E-1,1.294848795E0
1.539294708E1,2.131185267E0,-1.538753271E-1,1.472972680E0,2.595241179E0
1.540291408E1,3.227505750E0,-1.096220203E0,1.913680686E0,3.909049228E0
1.541288108E1,4.021363216E0,-1.660222744E0,7.774738598E-1,4.419521159E0
1.542284808E1,4.715173652E0,-2.176251220E0,-9.144182816E-1,5.273053455E0
1.543281508E1,5.318823239E0,-2.873127059E0,-2.710281519E0,6.624980427E0
1.544278208E1,5.784459826E0,-3.253655668E0,-3.581340650E0,7.541369341E0
1.545274908E1,6.004189419E0,-2.790806449E0,-3.610264487E0,7.541412393E0
1.546271608E1,5.878304713E0,-1.969707098E0,-3.056968197E0,6.912254836E0
1.547268308E1,5.495909089E0,-1.577817934E0,-2.128386644E0,6.101192986E0
1.548265008E1,5.023788525E0,-1.949483918E0,-1.218055127E0,5.524725964E0
1.549261708E1,4.755902725E0,-2.583349577E0,-6.172332537E-1,5.447318850E0
1.550258408E1,4.604711855E0,-3.266158769E0,-5.729446882E-1,5.674454158E0
1.551255108E1,4.174506764E0,-3.676528643E0,-1.673108253E0,5.808843328E0
1.552251808E1,3.771084844E0,-3.493848762E0,-4.108796339E0,6.581053672E0
1.553248508E1,3.573871416E0,-3.078728026E0,-7.093743796E0,8.518939148E0
1.554245208E1,3.757191860E0,-3.299624138E0,-7.916981474E0,9.363899070E0
1.555241908E1,4.299392473E0,-4.759965663E0,-6.346487762E0,9.023300708E0
1.556238608E1,4.590301392E0,-6.044711208E0,-6.109104840E0,9.743231620E0
1.557235308E1,4.284046748E0,-6.935906981E0,-6.330979777E0,1.032187808E1
1.558231908E1,3.692472830E0,-7.959902961E0,-5.400895343E0,1.030359555E1
1.559228608E1,1.962208044E0,-7.915248359E0,-4.158788863E0,9.154066955E0
1.560225308E1,-3.558578901E-1,-6.082610521E0,-1.542750428E0,6.285289530E0
1.561222008E1,-1.844635740E0,-4.724061420E0,2.458139055E0,5.635768353E0
1.562218708E1,-2.883881258E0,-4.932916362E0,4.861428888E0,7.502261377E0
1.563215408E1,-3.492662069E0,-5.543821174E0,4.069921710E0,7.713423641E0
1.564212146E1,-3.753259900E0,-6.434420530E0,3.659938338E0,8.299631080E0
1.565208846E1,-4.486092314E0,-7.283560789E0,3.738018547E0,9.335312779E0
1.566205546E1,-5.957324570E0,-7.625489003E0,3.134098234E0,1.017154710E1
1.567202246E1,-6.921651469E0,-7.284891030E0,2.157993728E0,1.027792943E1
1.568198946E1,-7.778244588E0,-6.202678417E0,1.436304498E0,1.005173015E1
1.569195646E1,-8.886547478E0,-4.020929645E0,3.542993148E-1,9.760334486E0
1.570192346E1,-8.076453756E0,-1.111598380E0,4.083902988E-1,8.162814396E0
1.571189046E1,-6.191999062E0,3.417791104E-1,1.612431404E0,6.407620493E0
1.572185746E1,-5.018376342E0,7.364445323E-1,3.574276628E0,6.204990337E0
1.573182446E1,-4.197219688E0,1.319720081E0,4.740947594E0,6.467990282E0
1.574179146E1,-3.368639702E0,2.225921563E0,5.056087375E0,6.470431190E0
1.575175846E1,-2.462905997E0,2.790055667E0,5.318502227E0,6.491285120E0
1.576172546E1,-1.296776192E0,3.428840588E0,5.463451195E0,6.579352189E0
1.577169246E1,-5.100496978E-2,3.985284433E0,6.263459054E0,7.424015951E0
1.578165946E1,1.730665613E0,4.467858649E0,8.108048601E0,9.417930585E0
1.579162646E1,3.950909530E0,4.029561889E0,2.842944025E0,6.318970316E0
1.580159346E1,3.955587010E0,4.556022382E0,4.384929344E-1,6.049486308E0
1.581156046E1,1.264358643E0,6.340000861E0,3.017363836E0,7.134332360E0
1.582152746E1,-6.702063963E-1,7.005953701E0,5.306570399E0,8.814320919E0
1.583149446E1,-1.644457774E0,6.888124119E0,5.629958847E0,9.046929416E0
1.584146146E1,-2.677341229E0,7.228952472E0,5.296653521E0,9.353098333E0
1.585142846E1,-3.770179403E0,7.828690272E0,5.008731945E0,1.002945860E1
1.586139546E1,-4.902588024E0,8.415302827E0,4.667610061E0,1.079996642E1
1.587136246E1,-6.010974528E0,9.004692224E0,4.499975359E0,1.172459275E1
1.588132946E1,-6.658127400E0,9.523864163E0,4.179485668E0,1.234920036E1
1.589129646E1,-6.517115362E0,9.497965676E0,3.760608973E0,1.211719128E1
1.590126346E1,-5.803179102E0,8.845999961E0,3.399859448E0,1.111249960E1
1.591123046E1,-5.153220152E0,7.836492212E0,2.698873016E0,9.759621083E0
1.592119746E1,-4.439439135E0,6.750324542E0,2.049908677E0,8.335324039E0
1.593116446E1,-3.783859841E0,5.204590280E0,1.727449937E0,6.662539948E0
1.594113146E1,-3.410457526E0,3.394288806E0,1.214669005E0,4.962644237E0
1.595109846E1,-2.927721050E0,1.099632053E0,-4.220719063E-1,3.155770254E0
1.596106546E1,-2.899020284E0,-2.373599426E0,-5.020004207E0,6.264082940E0
1.597103246E1,-1.793814665E0,-1.081550124E1,-1.698895410E1,2.021923341E1
1.598099946E1,6.600709496E0,-2.759022271E1,-2.733334985E1,3.939418446E1
1.599096646E1,1.539765892E1,-3.282964369E1,-2.141995541E1,4.211517416E1
1.600093346E1,1.843506876E1,-2.556666042E1,-1.114113969E1,3.343098681E1
1.601090046E1,1.607389526E1,-1.384592249E1,-2.321429837E0,2.134171302E1
1.602086746E1,9.646429989E0,-8.074531192E-1,-2.496349440E0,9.996867139E0
1.603083446E1,5.383762416E0,4.587138340E0,-2.601398177E0,7.536179960E0
1.604080146E1,2.570916642E0,6.078939055E0,-2.131862229E0,6.935989401E0
1.605076846E1,-1.589365308E-1,7.414439017E0,-2.452397235E0,7.811108689E0
1.606073546E1,-2.662406856E0,8.013508480E0,-2.549642133E0,8.820737125E0
1.607070246E1,-5.735260769E0,7.493597453E0,-1.487600367E-1,9.437655875E0
1.608066946E1,-9.494048041E0,4.778218331E0,4.414183549E0,1.150883726E1
1.609063646E1,-1.131589309E1,1.160225580E0,8.398109089E0,1.413944115E1
1.610060346E1,-1.082162444E1,-2.265285603E0,1.095660274E1,1.556554586E1
1.611057046E1,-1.129132309E1,-5.987417266E0,1.107350846E1,1.691052135E1
1.612053746E1,-1.376570688E1,-9.882910101E0,6.056563514E0,1.799579283E1
1.613050446E1,-1.029082122E1,-1.013179801E1,-2.439866360E0,1.464606705E1
1.614047146E1,-2.811144235E0,-2.262717506E0,-2.120608531E0,4.185618588E0
1.615043846E1,-1.106121366E0,2.237815384E0,-1.513672224E0,2.919336530E0
1.616040546E1,-1.455141011E-1,3.507058207E0,-1.877577199E0,3.980694381E0
1.617037246E1,1.326621769E-1,4.238503370E0,3.274338439E-2,4.240705389E0
1.618033946E1,-3.076609726E-1,4.248620222E0,3.179842464E0,5.315715113E0
1.619030646E1,-8.150869516E-1,3.749500140E0,4.701484151E0,6.068531227E0
1.620027346E1,-9.550763840E-1,2.726925033E0,4.441571030E0,5.298664383E0
1.621024046E1,-1.457768750E0,9.035491848E-1,3.877916690E0,4.240251020E0
1.622020746E1,-2.448601369E0,-1.778748729E0,4.058928945E0,5.063052428E0
1.623017446E1,-3.334897467E0,-4.635172048E0,4.583732922E0,7.322360857E0
1.624014146E1,-3.583619602E0,-5.735008169E0,5.480422153E0,8.704462943E0
1.625010846E1,-3.146087658E0,-4.683251948E0,6.214512012E0,8.393502005E0
1.626007546E1,-2.270939569E0,-2.508770095E0,6.685798763E0,7.493397028E0
1.627004246E1,-1.245088267E0,-7.928555453E-1,6.966300223E0,7.120969281E0
1.628000946E1,-4.236196643E-1,1.250076234E-1,5.919886018E0,5.936339865E0
1.628997546E1,9.591659267E-2,6.388527489E-1,4.144155622E0,4.194205365E0
1.629994246E1,4.985955505E-1,1.318149519E0,2.840254598E0,3.170672146E0
1.630990946E1,7.860177382E-1,2.041710881E0,1.918443389E0,2.909782164E0
1.631987646E1,9.133445136E-1,2.498210608E0,1.225916709E0,2.928843837E0
1.632984346E1,1.066501803E0,2.520192046E0,8.006422824E-1,2.851284291E0
1.633981046E1,1.227529956E0,2.291670579E0,1.378918900E-1,2.603382033E0
1.634977746E1,1.282425078E0,1.737468556E0,-1.048151559E0,2.400423453E0
1.635974446E1,1.062278870E0,1.250421220E-1,-3.132096732E0,3.309698154E0
1.636971146E1,5.130696385E-1,-1.046587282E0,-5.515315998E0,5.637135438E0
1.637967846E1,-1.113575909E-1,-7.202623630E-1,-7.346130089E0,7.382195180E0
1.638964546E1,-6.161015251E-1,1.405565393E-1,-7.733453747E0,7.759229607E0
1.639961246E1,-7.244616871E-1,1.055228882E0,-6.519379989E0,6.643844382E0
1.640957946E1,-6.049497154E-1,1.425219639E0,-5.102921818E0,5.332637833E0
1.641954646E1,-3.430950263E-1,1.561039349E0,-3.638596001E0,3.974158892E0
1.642951346E1,3.306951284E-2,1.686839270E0,-2.191724122E0,2.765894962E0
1.643948046E1,3.726486084E-1,1.600271827E0,-1.547920536E0,2.257386739E0
1.644944746E1,6.165915218E-1,1.260573156E0,-1.545636029E0,2.087635150E0
1.645941446E1,9.905256405E-1,3.984240121E-1,-1.458058771E0,1.807157469E0
1.646938146E1,1.708750834E0,-9.855481982E-1,-1.006904276E0,2.214721401E0
1.647934846E1,2.785736621E0,-2.639665865E0,-7.890916926E-1,3.918013540E0
1.648931546E1,4.136635225E0,-3.827464575E0,-1.465579460E0,5.823157151E0
1.649928246E1,5.204410186E0,-4.396251308E0,-2.378819528E0,7.216071874E0
1.650924946E1,6.006390896E0,-4.155319710E0,-3.041560199E0,7.911668720E0
1.651921646E1,6.500292338E0,-3.226060903E0,-3.147610272E0,7.910039182E0
1.652918346E1,6.758167997E0,-2.194884542E0,-2.814973576E0,7.642933276E0
1.653915046E1,6.810919238E0,-1.144982473E0,-1.878099355E0,7.157294385E0
1.654911746E1,6.692314900E0,-3.769027501E-1,-5.958219194E-1,6.729349015E0
1.655908446E1,6.475524702E0,-1.888755906E-1,1.581090036E-1,6.480207760E0
1.656905146E1,6.372316668E0,-1.096520750E0,3.814745419E-1,6.477213930E0
1.657901846E1,6.276653881E0,-3.161556759E0,-2.848383397E-1,7.033701583E0
