"Time (s)","Linear Acceleration x (m/s^2)","Linear Acceleration y (m/s^2)","Linear Acceleration z (m/s^2)","Absolute acceleration (m/s^2)"
1.057404167E-2,8.484766579E0,-4.409834974E0,6.699675375E0,1.167576801E1
2.054104167E-2,7.127409725E0,-1.802282603E0,7.290376303E0,1.035363601E1
3.050804167E-2,5.970594242E0,-1.755240583E-1,7.726369261E0,9.766042507E0
4.047404167E-2,5.351185239E0,7.553784013E-1,7.893165765E0,9.565973332E0
5.044104167E-2,5.168839234E0,1.413942699E0,7.960848455E0,9.596418140E0
6.040704167E-2,5.052032331E0,1.849757316E0,7.427468952E0,9.171255521E0
7.037404167E-2,5.226420275E0,1.784870179E0,6.097430874E0,8.226779061E0
8.034104167E-2,5.769504402E0,7.596778589E-1,4.193756382E0,7.172996870E0
9.030804167E-2,6.324962992E0,-6.941831964E-1,2.320714577E0,6.772943474E0
1.002740417E-1,6.459744821E0,-1.779536349E0,1.011375423E0,6.776277224E0
1.102410417E-1,5.823338547E0,-2.546773489E0,-6.441339540E-1,6.388445475E0
1.202070417E-1,4.448314916E0,-3.379626912E0,-2.547347685E0,6.139899339E0
1.301740417E-1,2.776996495E0,-3.878859846E0,-3.845793257E0,6.127592432E0
1.401410417E-1,1.139490768E0,-3.909181167E0,-4.285831903E0,5.911724935E0
1.501080417E-1,-5.263148975E-1,-3.159361714E0,-4.263741707E0,5.332735429E0
1.600740417E-1,-2.017958906E0,-2.008504543E0,-4.011648359E0,4.919305968E0
1.700410417E-1,-2.985415819E0,-1.031025503E0,-3.562351817E0,4.760889798E0
1.800080417E-1,-3.451942352E0,-2.928221279E-1,-2.618176762E0,4.342407208E0
1.899740417E-1,-3.572362250E0,1.579034740E-1,-1.375501495E0,3.831280454E0
1.999410417E-1,-3.495381902E0,2.571383250E-1,-4.305989009E-1,3.531179714E0
2.099070417E-1,-3.355287877E0,2.736859453E-1,2.223953390E-1,3.373769468E0
2.198740417E-1,-3.000531456E0,4.264321750E-1,6.023170797E-1,3.089954577E0
2.298414167E-1,-2.577708768E0,8.524579686E-1,6.882066842E-1,2.800874063E0
2.398074167E-1,-2.383302881E0,1.458009655E0,5.709103688E-1,2.851642233E0
2.497744167E-1,-2.129751822E0,1.829830005E0,1.850947809E-1,2.813961754E0
2.597414167E-1,-1.939954126E0,1.871739923E0,-1.341309609E-1,2.699041212E0
2.697074167E-1,-1.990361218E0,1.835812292E0,-3.266862043E-1,2.727355573E0
2.796744167E-1,-2.007621614E0,1.750332431E0,-7.046795332E-1,2.755137275E0
2.896414167E-1,-2.061786126E0,1.599067593E0,-1.030065390E0,2.805176270E0
2.996074167E-1,-2.180714985E0,1.482047851E0,-1.170474579E0,2.884786719E0
3.095744167E-1,-2.150597731E0,1.352489632E0,-1.180379178E0,2.801355709E0
3.195414167E-1,-1.875202060E0,1.074206021E0,-1.232126452E0,2.487656916E0
3.295074167E-1,-1.510412402E0,6.487772280E-1,-1.248392236E0,2.064156169E0
3.394744167E-1,-1.233674210E0,1.998873594E-1,-1.136215743E0,1.689050984E0
3.494414167E-1,-1.029347937E0,-2.340388995E-1,-1.002319182E0,1.455669991E0
3.594074167E-1,-9.348639482E-1,-5.759820244E-1,-7.679931843E-1,1.339977397E0
3.693744167E-1,-9.613904268E-1,-7.627675277E-1,-5.825768065E-1,1.358485035E0
3.793414167E-1,-9.806944245E-1,-8.660851970E-1,-3.839656019E-1,1.363559572E0
3.893074167E-1,-8.977352983E-1,-1.105261168E0,-1.281709488E-1,1.429670839E0
3.992744167E-1,-6.324564797E-1,-1.379354664E0,1.159070170E-1,1.521859036E0
4.092414167E-1,-3.051749557E-1,-1.517831349E0,3.751269507E-1,1.593004704E0
4.192074167E-1,-1.936609519E-1,-1.648711623E0,5.925474787E-1,1.762630731E0
4.291744167E-1,-1.451951355E-1,-1.888483718E0,7.112646675E-1,2.023202859E0
4.391414167E-1,-5.408148229E-2,-2.098308128E0,7.956095839E-1,2.244730811E0
4.491074167E-1,5.430250704E-2,-2.353229773E0,7.810055780E-1,2.480042105E0
4.590744167E-1,1.306273824E-1,-2.692414182E0,7.629464525E-1,2.801471922E0
4.690414167E-1,1.675776923E-1,-2.912837255E0,6.146435219E-1,2.981692442E0
4.790074167E-1,2.339704871E-1,-3.035945995E0,2.462291747E-1,3.054887736E0
4.889744167E-1,4.206527871E-1,-3.141091504E0,-1.508886059E-1,3.172723117E0
4.989414167E-1,5.638721484E-1,-3.023508967E0,-4.963169636E-1,3.115427548E0
5.089074167E-1,6.881634879E-1,-2.729863844E0,-8.076145023E-1,2.928816617E0
5.188744167E-1,9.704881096E-1,-2.477764065E0,-9.373063302E-1,2.821294931E0
5.288414167E-1,1.300985017E0,-2.385186561E0,-9.349656167E-1,2.873297348E0
5.388074167E-1,1.723104286E0,-2.386912659E0,-9.285484437E-1,3.086849954E0
5.487744167E-1,2.118518736E0,-2.396542585E0,-9.752582681E-1,3.344049444E0
5.587414167E-1,2.142554301E0,-2.301304159E0,-9.493458203E-1,3.284478232E0
5.687074167E-1,1.804943671E0,-2.171529301E0,-7.543013442E-1,2.922726754E0
5.786744167E-1,1.366229419E0,-2.071683416E0,-4.248072338E-1,2.517720435E0
5.886414167E-1,8.668812954E-1,-1.908505754E0,-3.558388866E-2,2.096459779E0
5.986074167E-1,3.940193045E-1,-1.860076044E0,3.687253460E-1,1.936773730E0
6.085744167E-1,1.547822303E-1,-2.030355734E0,6.025905832E-1,2.123538876E0
6.185414167E-1,2.616044283E-3,-2.328807415E0,6.922810972E-1,2.429527514E0
6.285074167E-1,-1.337082803E-1,-2.753422568E0,6.790447551E-1,2.839069482E0
6.384744167E-1,-2.849815965E-1,-3.278444354E0,5.682033272E-1,3.339500998E0
6.484414167E-1,-4.456110424E-1,-3.837314794E0,4.492811935E-1,3.889139702E0
6.584074167E-1,-6.584005755E-1,-4.419144326E0,4.013428690E-1,4.485911724E0
6.683744167E-1,-9.489224088E-1,-4.842228386E0,4.276361167E-1,4.952827690E0
6.783414167E-1,-1.266930833E0,-4.983272583E0,5.376251668E-1,5.169831737E0
6.883074167E-1,-1.540069479E0,-4.914721581E0,6.398513802E-1,5.189962621E0
6.982744167E-1,-1.714749784E0,-4.746713533E0,7.089526054E-1,5.096495854E0
7.082414167E-1,-1.826728642E0,-4.514062763E0,7.861762708E-1,4.932724733E0
7.182074167E-1,-1.753130323E0,-4.266434934E0,8.858355566E-1,4.696875303E0
7.281744167E-1,-1.506383670E0,-3.928713499E0,1.023948033E0,4.330410037E0
7.381414167E-1,-1.394185542E0,-3.401587300E0,1.037679634E0,3.819859750E0
7.481074167E-1,-1.334828702E0,-2.874691190E0,9.996790912E-1,3.323398168E0
7.580744167E-1,-1.204684299E0,-2.359983600E0,8.793294328E-1,2.791774902E0
7.680414167E-1,-1.110349415E0,-1.770132857E0,7.226502927E-1,2.210988376E0
7.780074167E-1,-1.094833828E0,-1.162692228E0,5.746959293E-1,1.697288938E0
7.879744167E-1,-1.128600914E0,-6.345509523E-1,4.030123222E-1,1.356028711E0
7.979414167E-1,-1.356092686E0,-1.489110410E-1,2.703892851E-1,1.390781161E0
8.079074167E-1,-1.755798408E0,2.901674920E-1,1.852291207E-1,1.789227501E0
8.178744167E-1,-2.165073098E0,5.697219953E-1,7.252995931E-2,2.239952068E0
8.278414167E-1,-2.593898538E0,7.139093632E-1,-3.665385604E-2,2.690598393E0
8.378074167E-1,-3.001847080E0,7.980858797E-1,-1.304350090E-1,3.108864786E0
8.477744167E-1,-3.383591325E0,8.406600416E-1,-2.395522392E-1,3.494679504E0
8.577414167E-1,-3.764854928E0,8.229602274E-1,-3.979539690E-1,3.874243607E0
8.677074167E-1,-4.113707415E0,8.076177183E-1,-5.914342419E-1,4.233748876E0
8.776744167E-1,-4.418015814E0,6.987191740E-1,-8.187715014E-1,4.547247408E0
8.876414167E-1,-4.707541282E0,6.074970549E-1,-1.096579880E0,4.871599842E0
8.976074167E-1,-4.963535306E0,5.791848367E-1,-1.385797711E0,5.185804963E0
9.075744167E-1,-5.227948737E0,5.353962082E-1,-1.674649580E0,5.515663905E0
9.175414167E-1,-5.455155165E0,4.195190120E-1,-1.925232006E0,5.800106237E0
9.275074167E-1,-5.635485635E0,2.688412347E-1,-2.120980414E0,6.027398433E0
9.374744167E-1,-5.777223896E0,6.886002749E-2,-2.262995395E0,6.205014570E0
9.474414167E-1,-5.799421096E0,-2.717177725E-1,-2.374031682E0,6.272411181E0
9.574074167E-1,-5.734381932E0,-7.629572698E-1,-2.435601108E0,6.276734238E0
9.673744167E-1,-5.579975093E0,-1.268742593E0,-2.479608861E0,6.236528675E0
9.773414167E-1,-5.302402503E0,-1.752793816E0,-2.469168658E0,6.106107789E0
9.873074167E-1,-4.828935910E0,-2.394401773E0,-2.494670119E0,5.939289594E0
9.972744167E-1,-4.310881959E0,-3.044691091E0,-2.562474432E0,5.866866482E0
1.007241417E0,-3.754909984E0,-3.525375487E0,-2.559177187E0,5.751261530E0
1.017207417E0,-3.019851242E0,-4.156454947E0,-2.487169896E0,5.708032353E0
1.027174417E0,-2.293190855E0,-5.050666421E0,-2.305056756E0,6.006766372E0
1.037141417E0,-1.572359558E0,-5.684115758E0,-2.101467086E0,6.260802700E0
1.047107417E0,-7.845647782E-1,-6.100659707E0,-1.806221287E0,6.410618230E0
1.057074417E0,-2.460753930E-1,-6.119302969E0,-1.511873767E0,6.308104645E0
1.067041417E0,1.876289642E-1,-6.028779885E0,-1.273744740E0,6.164723610E0
1.077007417E0,9.241284603E-1,-6.316010905E0,-9.922982240E-1,6.459927471E0
1.086974417E0,2.002816957E0,-6.830159501E0,-5.607528050E-1,7.139803798E0
1.096941417E0,2.930464856E0,-7.070457845E0,-1.189675958E-1,7.654616365E0
1.106907417E0,3.733305691E0,-7.154944264E0,2.682795366E-1,8.074823386E0
1.116874417E0,4.451889904E0,-7.316826183E0,5.456679388E-1,8.582133919E0
1.126841417E0,5.066067402E0,-7.501936752E0,8.831377244E-1,9.095274938E0
1.136807417E0,5.264009101E0,-6.914506171E0,1.360448277E0,8.796079065E0
1.146774417E0,4.962371126E0,-5.123417478E0,2.062608830E0,7.424883099E0
1.156741417E0,4.619958762E0,-2.921142640E0,2.795471942E0,6.139361259E0
1.166707417E0,4.669356624E0,-1.489036735E0,3.545447516E0,6.048993286E0
1.176674417E0,5.054957108E0,-5.457013410E-1,4.060360343E0,6.506681753E0
1.186641417E0,5.677935836E0,1.124460500E-1,4.263070446E0,7.101082248E0
1.196607417E0,6.505190551E0,2.405983061E-1,4.263068107E0,7.781332876E0
1.206574417E0,7.250704114E0,2.195430672E-1,4.047440336E0,8.306785334E0
1.216541417E0,7.694928197E0,-6.462331045E-1,3.689497182E0,8.558149721E0
1.226507000E0,7.538660190E0,-1.789110580E0,3.115656116E0,8.351025515E0
1.236474000E0,6.840474574E0,-2.337764180E0,2.708102846E0,7.719524259E0
1.246441000E0,5.685938335E0,-1.773187442E0,2.377594829E0,6.413037161E0
1.256407000E0,4.362068485E0,-8.220682347E-1,2.022491083E0,4.877899941E0
1.266374000E0,3.215683265E0,-3.092364317E-1,1.701881232E0,3.651389565E0
1.276340000E0,2.140577942E0,2.259311503E-1,1.525006467E0,2.637946841E0
1.286307000E0,1.199084421E0,8.474194229E-1,1.480471734E0,2.085118625E0
1.296274000E0,4.963122493E-1,1.444116670E0,1.582167678E0,2.198875478E0
1.306241000E0,3.848520398E-2,1.949734764E0,1.756015924E0,2.624221539E0
1.316207000E0,-2.427670383E-1,2.494115219E0,2.118193631E0,3.281202648E0
1.326174000E0,-3.617110991E-1,3.151634034E0,2.574380533E0,4.085470246E0
1.336140000E0,-4.065522265E-1,3.807895698E0,2.917985144E0,4.814560381E0
1.346107000E0,-4.554887438E-1,4.296919978E0,3.077034087E0,5.304632887E0
1.356074000E0,-4.748295790E-1,4.629736476E0,3.113400260E0,5.599391409E0
1.366040000E0,-4.627299356E-1,4.924903922E0,3.090826499E0,5.832838596E0
1.376007000E0,-4.818322045E-1,5.150807590E0,2.958977634E0,5.959742423E0
1.385974000E0,-5.695714295E-1,5.238697089E0,2.778343109E0,5.957142707E0
1.395940000E0,-5.930070698E-1,5.181933489E0,2.499382975E0,5.783684580E0
1.405907000E0,-5.903237826E-1,5.136990620E0,2.219421798E0,5.626987464E0
1.415874000E0,-5.804735631E-1,5.060062312E0,1.907835370E0,5.438843255E0
1.425840000E0,-6.708107060E-1,4.886048005E0,1.611860424E0,5.188597704E0
1.435807000E0,-7.914680010E-1,4.740972152E0,1.333773864E0,4.988205215E0
1.445774000E0,-8.251146340E-1,4.526848869E0,1.065285509E0,4.723135406E0
1.455740000E0,-8.819267660E-1,4.238206331E0,8.537993199E-1,4.412387223E0
1.465707000E0,-9.112254095E-1,4.096759846E0,6.701891470E-1,4.250050173E0
1.475674000E0,-9.171310973E-1,4.094723260E0,5.555989595E-1,4.232797920E0
1.485640000E0,-9.080901325E-1,4.036731160E0,5.074371618E-1,4.168611114E0
1.495607000E0,-8.317611641E-1,3.960346643E0,5.352758286E-1,4.081996127E0
1.505574000E0,-6.710831863E-1,3.943537652E0,5.913990490E-1,4.043710511E0
1.515540000E0,-4.572937793E-1,3.871125734E0,6.531574503E-1,3.952384939E0
1.525507000E0,-1.611907786E-1,3.624846858E0,7.645878390E-1,3.708111618E0
1.535474000E0,1.368213379E-1,3.305540936E0,9.169632822E-1,3.433095195E0
1.545440000E0,5.433998770E-1,2.826611874E0,1.013692674E0,3.051653806E0
1.555407000E0,1.071214585E0,2.135545244E0,1.026020871E0,2.600148650E0
1.565374000E0,1.721127343E0,1.399635732E0,1.001635131E0,2.434036246E0
1.575340000E0,2.368479604E0,6.877764022E-1,9.846618334E-1,2.655614984E0
1.585307000E0,3.047193407E0,3.559258640E-2,9.597825155E-1,3.194970574E0
1.595274000E0,3.695057884E0,-4.597490251E-1,8.639395612E-1,3.822461707E0
1.605240000E0,4.139133448E0,-6.199299896E-1,8.035384083E-1,4.261738245E0
1.615207000E0,4.705065570E0,-6.313168573E-1,6.658885199E-1,4.793705302E0
1.625174000E0,5.539337529E0,-1.018710682E0,4.261146712E-1,5.648327666E0
1.635140000E0,6.335672168E0,-1.378540147E0,2.688057860E-1,6.489481590E0
1.645107000E0,6.935016450E0,-1.392552415E0,1.139487114E-1,7.074364968E0
1.655074000E0,7.346325971E0,-1.373540778E0,-7.037825704E-2,7.473959636E0
1.665040000E0,7.532168026E0,-1.261716287E0,-1.554032046E-1,7.638693168E0
1.675007000E0,7.711674623E0,-1.163984170E0,-1.178916351E-1,7.799915581E0
1.684974000E0,7.918770137E0,-1.008128976E0,1.850570664E-3,7.982684257E0
1.694940000E0,8.103953211E0,-6.712287819E-1,1.203730472E-1,8.132594629E0
1.704907000E0,8.312084852E0,-5.212026769E-1,1.198200468E-1,8.329271497E0
1.714874000E0,8.490755882E0,-6.623258114E-1,3.892498769E-2,8.516638192E0
1.724840000E0,8.539647961E0,-1.162075054E0,-1.256508172E-2,8.618362002E0
1.734807000E0,8.363639168E0,-2.035133348E0,-7.755286373E-2,8.608033592E0
1.744774000E0,7.863782337E0,-2.953111707E0,-1.939007608E-1,8.402234161E0
1.754740000E0,7.056773021E0,-3.721664470E0,-3.257512345E-1,7.984669421E0
1.764707000E0,5.843274044E0,-4.560480884E0,-9.457743410E-1,7.472370879E0
1.774674000E0,4.330804008E0,-4.427024619E0,1.172657857E0,6.303137059E0
1.784640000E0,3.957856899E0,-3.868675750E0,9.313619777E-1,5.612371908E0
1.794607000E0,3.075522582E0,-4.398306019E0,-4.148949607E-1,5.382942766E0
1.804574000E0,2.122949756E0,-3.663791068E0,3.059110836E-1,4.245451949E0
1.814540000E0,1.920163640E0,-3.030841668E0,4.474991814E-1,3.615699813E0
1.824507000E0,1.665249596E0,-2.995180085E0,6.556880522E-1,3.489138400E0
1.834474000E0,1.317992229E0,-2.368533399E0,8.635530603E-1,2.844780811E0
1.844440000E0,9.966415358E-1,-1.677483140E0,1.002234982E0,2.193563082E0
1.854407000E0,6.779361230E-1,-1.200780113E0,1.100525508E0,1.764263773E0
1.864374000E0,4.271297479E-1,-8.535642618E-1,1.174337835E0,1.513301398E0
1.874340000E0,1.033238089E-1,-5.270943314E-1,1.277484473E0,1.385810529E0
1.884307000E0,-2.550146163E-1,-3.287854278E-1,1.269849764E0,1.336282430E0
1.894274000E0,-5.826902425E-1,-2.794553930E-1,1.236013681E0,1.394759138E0
1.904240000E0,-8.844580257E-1,-3.413581109E-1,1.156241141E0,1.495220698E0
1.914207000E0,-1.188330222E0,-5.455563301E-1,9.971204958E-1,1.644387335E0
1.924173000E0,-1.624217929E0,-8.780635107E-1,8.207631361E-1,2.020577030E0
1.934140000E0,-2.185282245E0,-1.214556738E0,6.575918325E-1,2.585156393E0
1.944107000E0,-2.713723775E0,-1.524918759E0,5.005216599E-1,3.152807618E0
1.954073000E0,-3.193991849E0,-1.842319073E0,3.826663506E-1,3.707041547E0
1.964040000E0,-3.668572336E0,-2.151754895E0,2.859270912E-1,4.262654855E0
1.974007000E0,-4.127681091E0,-2.408655823E0,2.615553117E-1,4.786207815E0
1.983973000E0,-4.556249839E0,-2.680700747E0,2.666674592E-1,5.293078558E0
1.993940000E0,-4.970711594E0,-2.994063851E0,2.838729278E-1,5.809731142E0
2.003907000E0,-5.367194331E0,-3.307689788E0,3.410493779E-1,6.313786613E0
2.013873000E0,-5.754261296E0,-3.600857778E0,4.103084779E-1,6.800445048E0
2.023840000E0,-6.084683944E0,-3.906163419E0,4.583001216E-1,7.245103889E0
2.033807000E0,-6.393425117E0,-4.241236066E0,4.624621332E-1,7.686210985E0
2.043773000E0,-6.709467123E0,-4.526928391E0,4.783092205E-1,8.107947301E0
2.053740000E0,-6.965075231E0,-4.749779521E0,4.611394564E-1,8.443063903E0
2.063707000E0,-7.125669594E0,-5.011930372E0,3.719822816E-1,8.719689446E0
2.073673000E0,-7.187130262E0,-5.376700734E0,2.668043206E-1,8.979695804E0
2.083640000E0,-7.214037395E0,-5.689823810E0,1.764327522E-1,9.189535300E0
2.093607000E0,-7.168474721E0,-5.880015024E0,7.794689298E-2,9.271875874E0
2.103573000E0,-7.014208215E0,-6.184649112E0,-5.966970284E-2,9.351607455E0
2.113540000E0,-6.818032376E0,-6.496087021E0,-2.132456525E-1,9.419670151E0
2.123507000E0,-6.716529390E0,-6.583619839E0,-2.944290159E-1,9.409702741E0
2.133473000E0,-6.648852546E0,-6.642429380E0,-3.919184730E-1,9.406524775E0
2.143440000E0,-6.707660918E0,-6.500013426E0,-4.482230667E-1,9.351138617E0
2.153407000E0,-6.758212436E0,-6.192570920E0,-4.236354518E-1,9.176101401E0
2.163373000E0,-6.516710150E0,-6.069013406E0,-3.667303491E-1,8.912627337E0
2.173340000E0,-5.961063865E0,-6.210894924E0,-3.404231411E-1,8.615415607E0
2.183307000E0,-5.137625628E0,-6.426382363E0,-3.708460580E-1,8.235964677E0
2.193273000E0,-4.239444187E0,-6.604777404E0,-4.615195620E-1,7.861868218E0
2.203240000E0,-3.375598181E0,-6.967005397E0,-6.054373001E-1,7.765332035E0
2.213207000E0,-2.856760118E0,-7.191009305E0,-7.237287386E-1,7.771452662E0
2.223173000E0,-2.758188341E0,-7.034196922E0,-8.277714626E-1,7.600837773E0
2.233139500E0,-2.723704972E0,-6.784984497E0,-9.325374142E-1,7.370495874E0
2.243106500E0,-2.333841868E0,-6.665801870E0,-8.669129435E-1,7.115565367E0
2.253072500E0,-1.652165281E0,-6.625655472E0,-5.688960761E-1,6.852196969E0
2.263039500E0,-8.708421993E-1,-6.653816832E0,-2.119843715E-1,6.713909587E0
2.273005500E0,4.331231439E-1,-7.171532815E0,2.136280239E-2,7.184631858E0
2.282972500E0,1.905874214E0,-7.973103050E0,1.047908753E-1,8.198396788E0
2.292939500E0,3.121837208E0,-8.573538423E0,1.800440291E-1,9.125998273E0
2.302905500E0,3.989269311E0,-8.750157080E0,1.626495858E-1,9.618002570E0
2.312872500E0,4.375101929E0,-8.415813289E0,3.142582398E-2,9.485168305E0
2.322839500E0,4.214633866E0,-7.340106872E0,-3.309293825E-2,8.464124448E0
2.332805500E0,3.696931332E0,-5.681119060E0,1.241901827E-1,6.779221065E0
2.342772500E0,3.250006421E0,-4.201643107E0,3.261857557E-1,5.321911656E0
2.352739500E0,2.979633508E0,-2.949178285E0,5.027564657E-1,4.222396531E0
2.362705500E0,2.882089671E0,-1.888758829E0,6.020258152E-1,3.498040290E0
2.372672500E0,2.959253622E0,-1.054383960E0,6.593028009E-1,3.209920204E0
2.382639500E0,3.184237524E0,-3.779651892E-1,6.853819674E-1,3.279020392E0
2.392605500E0,3.406474403E0,2.870731455E-1,6.485649741E-1,3.479528039E0
2.402572500E0,3.577232981E0,9.998651057E-1,5.271989965E-1,3.751568313E0
2.412539500E0,3.567128407E0,1.808723896E0,4.734069514E-1,4.027406280E0
2.422505500E0,3.441278200E0,2.568209381E0,4.781812030E-1,4.320503714E0
2.432472500E0,3.255668280E0,3.217657285E0,5.064986837E-1,4.605348550E0
2.442439500E0,3.009455477E0,3.757147129E0,5.064179921E-1,4.840396264E0
2.452405500E0,2.730619889E0,4.143482022E0,4.247376885E-1,4.980474912E0
2.462372500E0,2.423260413E0,4.462066398E0,3.092218137E-1,5.087027197E0
2.472339500E0,2.096598694E0,4.595893376E0,2.076726713E-1,5.055797657E0
2.482305500E0,1.808888202E0,4.511315156E0,1.657819758E-1,4.863283318E0
2.492272500E0,1.562900518E0,4.400559536E0,1.274645869E-1,4.671598172E0
2.502239500E0,1.375676181E0,4.368677593E0,1.185943608E-1,4.581691117E0
2.512205500E0,1.247318687E0,4.305764476E0,8.704399109E-2,4.483635610E0
2.522172500E0,1.043271326E0,4.233485874E0,1.174769579E-1,4.361721970E0
2.532139500E0,8.506383151E-1,4.128662839E0,1.809000250E-1,4.219261452E0
2.542105500E0,7.588364446E-1,3.996736790E0,2.841255641E-1,4.078046720E0
2.552072500E0,6.815298218E-1,3.895586976E0,5.110899540E-1,3.987642628E0
2.562039500E0,7.189794838E-1,3.818872676E0,8.594722885E-1,3.979875956E0
2.572005500E0,1.023911780E0,3.615814664E0,1.215135028E0,3.949565059E0
2.581972500E0,1.280589345E0,3.390150731E0,1.622027562E0,3.970390971E0
2.591938500E0,1.548668395E0,3.122047123E0,2.044201210E0,4.040335459E0
2.601905500E0,1.957225047E0,2.700582157E0,2.414054557E0,4.117223977E0
2.611872500E0,2.348358750E0,2.293886089E0,2.864184912E0,4.356633726E0
2.621838500E0,2.879129811E0,1.937166173E0,3.289416654E0,4.781449903E0
2.631805500E0,3.642417741E0,1.479192363E0,3.655485098E0,5.368220222E0
2.641772500E0,4.476730630E0,1.057673603E0,3.994248215E0,6.092110421E0
2.651738500E0,5.345484788E0,6.963156760E-1,4.298022763E0,6.894350064E0
2.661705500E0,6.335124283E0,4.354661232E-1,4.537648677E0,7.804722029E0
2.671672500E0,7.463170881E0,1.616065156E-1,4.676484965E0,8.808776754E0
2.681638500E0,8.688021643E0,-1.806660998E-1,4.697386422E0,9.878248807E0
2.691605500E0,9.680504054E0,-2.303136384E-1,4.739947135E0,1.078110857E1
2.701572500E0,1.054003774E1,-6.475089669E-2,4.858824538E0,1.160623815E1
2.711538500E0,1.125412427E1,2.765358782E-1,4.987159227E0,1.231273903E1
2.721505500E0,1.167078049E1,3.208911020E-1,5.067408754E0,1.272747892E1
2.731472500E0,1.187910743E1,5.757168531E-3,5.053885313E0,1.290949198E1
2.741438500E0,1.199779889E1,-2.814995795E-1,4.810526537E0,1.292933044E1
2.751405500E0,1.183486505E1,-7.321257788E-1,4.174512026E0,1.257086272E1
2.761372500E0,1.138168947E1,-1.369255353E0,3.520144275E0,1.199204449E1
2.771338500E0,1.062564682E1,-2.075147014E0,3.235849142E0,1.129961615E1
2.781305500E0,9.593761779E0,-2.679829220E0,3.052606759E0,1.041826078E1
2.791272500E0,8.490932468E0,-3.052112669E0,2.808588417E0,9.449840994E0
2.801238500E0,7.415492100E0,-3.291889442E0,2.650613022E0,8.535327092E0
2.811205500E0,6.406767293E0,-3.403772405E0,2.777201732E0,7.768216217E0
2.821172500E0,5.489682389E0,-3.422220955E0,2.898247283E0,7.088585635E0
2.831138500E0,4.738232732E0,-3.413774067E0,2.876487454E0,6.509906518E0
2.841105500E0,4.198790250E0,-3.411202462E0,2.825354723E0,6.103177133E0
2.851072500E0,3.823786676E0,-3.347673633E0,2.743188479E0,5.775235608E0
2.861038500E0,3.510691667E0,-3.060564235E0,2.620214517E0,5.343924918E0
2.871005500E0,3.161926303E0,-2.524242997E0,2.428094891E0,4.718604185E0
2.880972500E0,2.822713535E0,-1.976922562E0,2.155060326E0,4.064507292E0
2.890938500E0,2.438783602E0,-1.511315796E0,1.880979109E0,3.430717607E0
2.900905500E0,2.030260279E0,-1.133552336E0,1.619283464E0,2.833544888E0
2.910871500E0,1.673972472E0,-9.509373593E-1,1.327498047E0,2.338528761E0
2.920838500E0,1.268019585E0,-9.055769992E-1,1.085977051E0,1.899286583E0
2.930805500E0,7.869937116E-1,-9.734315979E-1,8.331627417E-1,1.503691568E0
2.940771500E0,2.925525713E-1,-1.260028195E0,5.836409998E-1,1.419117640E0
2.950738500E0,-2.053705859E-1,-1.686895403E0,4.234647496E-1,1.751318239E0
2.960705500E0,-7.505199498E-1,-2.081329275E0,3.752345395E-1,2.244106216E0
2.970671500E0,-1.349091815E0,-2.524528049E0,2.773510166E-1,2.875798008E0
2.980638500E0,-1.955845689E0,-2.991223274E0,1.897175896E-1,3.578930259E0
2.990605500E0,-2.507519960E0,-3.462068268E0,1.370270868E-1,4.276955630E0
3.000571500E0,-3.036994109E0,-3.920043832E0,1.130020837E-1,4.960125637E0
3.010538500E0,-3.571447161E0,-4.333036475E0,1.404781135E-1,5.616954158E0
3.020505500E0,-4.038684715E0,-4.665426711E0,1.965027352E-1,6.173798988E0
3.030471500E0,-4.443828347E0,-4.997561424E0,2.579534086E-1,6.692516009E0
3.040438500E0,-4.820958554E0,-5.310143632E0,3.495640934E-1,7.180631019E0
3.050405500E0,-5.164187774E0,-5.590500666E0,4.971501553E-1,7.626905751E0
3.060371500E0,-5.450388515E0,-5.848091565E0,6.411746782E-1,8.019851301E0
3.070338500E0,-5.722576404E0,-6.057111399E0,7.560011297E-1,8.367079353E0
3.080305500E0,-6.002881982E0,-6.197359790E0,8.721543145E-1,8.671938284E0
3.090271500E0,-6.209527261E0,-6.345923506E0,9.361263621E-1,8.927782844E0
3.100238500E0,-6.318856745E0,-6.586451061E0,9.759365451E-1,9.179419387E0
3.110205500E0,-6.425658478E0,-6.804797203E0,9.625721490E-1,9.408554458E0
3.120171500E0,-6.557683344E0,-6.976034667E0,8.670321536E-1,9.613532924E0
3.130138500E0,-6.683951628E0,-7.119182693E0,7.432992232E-1,9.793388857E0
3.140104500E0,-6.751003988E0,-7.267616601E0,6.152779448E-1,9.938454249E0
3.150071500E0,-6.740640968E0,-7.445317578E0,4.951773047E-1,1.005555543E1
3.160038500E0,-6.587102441E0,-7.615862732E0,3.504049230E-1,1.007541897E1
3.170004500E0,-6.388837391E0,-7.838291400E0,2.087140238E-1,1.011432730E1
3.179971500E0,-6.281635124E0,-7.954367402E0,1.022163280E-1,1.013614072E1
3.189938500E0,-6.203564855E0,-7.948783895E0,2.049158553E-2,1.008304529E1
3.199904500E0,-6.023599836E0,-7.965757193E0,-6.339786926E-2,9.987044705E0
3.209871500E0,-5.729469101E0,-7.961754774E0,-9.376127243E-2,9.809441699E0
3.219838500E0,-5.367266251E0,-7.991774379E0,-1.070016710E-1,9.627432373E0
3.229809000E0,-4.982279141E0,-8.239912085E0,-1.963699669E-1,9.631086012E0
3.239776000E0,-4.485240667E0,-8.790919189E0,-3.862003347E-1,9.876578089E0
3.249743000E0,-4.068754022E0,-9.201123587E0,-5.314299687E-1,1.007461425E1
3.259709000E0,-4.064992508E0,-8.861674007E0,-5.056531763E-1,9.762638754E0
3.269676000E0,-4.357909945E0,-8.002195871E0,-3.175822357E-1,9.117421584E0
3.279643000E0,-4.541946380E0,-7.150241348E0,-1.241573652E-1,8.471755621E0
3.289609000E0,-4.372043835E0,-6.242195070E0,1.851369540E-1,7.623256671E0
3.299576000E0,-3.871952530E0,-5.464508956E0,4.483529480E-1,6.712219819E0
3.309543000E0,-3.051962981E0,-5.217846503E0,5.299132740E-1,6.068048141E0
3.319509000E0,-1.856913139E0,-5.361203858E0,5.119354248E-1,5.696728104E0
3.329476000E0,-4.780636740E-1,-5.768774085E0,3.571315598E-1,5.799555351E0
3.339443000E0,8.406676430E-1,-6.354666263E0,7.758845866E-2,6.410501179E0
3.349409000E0,1.799244974E0,-6.909490430E0,-1.974481934E-1,7.142641407E0
3.359376000E0,2.378770119E0,-7.183119072E0,-4.838553411E-1,7.582206992E0
3.369343000E0,2.406432127E0,-7.022403088E0,-6.859848154E-1,7.454906832E0
3.379309000E0,2.108104845E0,-6.444892309E0,-8.330112988E-1,6.831884860E0
3.389276000E0,1.677712351E0,-5.581260896E0,-8.630969775E-1,5.891530218E0
3.399242000E0,1.295658789E0,-4.572362134E0,-8.125513065E-1,4.821355287E0
3.409209000E0,1.135380176E0,-3.625967184E0,-7.486926949E-1,3.872630491E0
3.419176000E0,1.211751829E0,-2.927810220E0,-6.670386672E-1,3.238109906E0
3.429142000E0,1.436791279E0,-2.342909730E0,-5.803390040E-1,2.808983542E0
3.439109000E0,1.688266575E0,-1.803364338E0,-4.925864035E-1,2.518929997E0
3.449076000E0,1.994123316E0,-1.347235909E0,-3.248994048E-1,2.428401124E0
3.459042000E0,2.312659745E0,-8.111368650E-1,-9.628379781E-2,2.452673781E0
3.469009000E0,2.588961149E0,-2.305948895E-1,9.951025486E-2,2.601114401E0
3.478976000E0,2.742992013E0,4.289149028E-1,3.087084281E-1,2.793434099E0
3.488942000E0,2.832781856E0,1.165132563E0,5.530015898E-1,3.112554850E0
3.498909000E0,2.983824792E0,1.743889384E0,7.495627606E-1,3.536411303E0
3.508876000E0,3.125962418E0,2.259348925E0,9.260609651E-1,3.966596465E0
3.518842000E0,3.202477328E0,2.682311947E0,1.066926237E0,4.311495102E0
3.528809000E0,3.280952225E0,2.944686454E0,1.168594115E0,4.560859351E0
3.538776000E0,3.338149104E0,3.161060330E0,1.252339692E0,4.764860602E0
3.548742000E0,3.474557628E0,3.300833927E0,1.264584931E0,4.956534109E0
3.558709000E0,3.586329494E0,3.475795484E0,1.199113072E0,5.136222897E0
3.568676000E0,3.580178808E0,3.666156852E0,1.039196987E0,5.228605621E0
3.578642000E0,3.502876863E0,3.654033819E0,7.945360351E-1,5.123806884E0
3.588609000E0,3.386154744E0,3.594223235E0,5.536266571E-1,4.969002625E0
3.598576000E0,3.262577350E0,3.587664413E0,3.108251202E-1,4.859255001E0
3.608542000E0,3.055056158E0,3.646407881E0,1.100177014E-1,4.758336101E0
3.618509000E0,2.867810771E0,3.645116231E0,1.345617911E-2,4.638037518E0
3.628476000E0,2.713544265E0,3.532771922E0,1.033214517E-1,4.455836089E0
3.638442000E0,2.570966928E0,3.351248036E0,2.818971719E-1,4.233225763E0
3.648409000E0,2.582314035E0,2.911773646E0,6.395854050E-1,3.944089379E0
3.658376000E0,2.710945762E0,2.500369985E0,1.166416027E0,3.868023182E0
3.668342000E0,2.894113886E0,2.192488353E0,1.675902638E0,3.998943612E0
3.678309000E0,3.094950541E0,2.005546437E0,2.184881126E0,4.286565163E0
3.688275000E0,3.213525642E0,1.857970900E0,2.535999409E0,4.495564027E0
3.698242000E0,3.471291373E0,1.206409228E0,3.167957121E0,4.851931507E0
3.708209000E0,3.950148515E0,7.072376901E-1,3.980202034E0,5.652067468E0
3.718175000E0,4.550601429E0,5.747438765E-1,4.686937448E0,6.557872104E0
3.728142000E0,5.240547148E0,6.019954097E-1,5.185191557E0,7.396752285E0
3.738109000E0,6.166035671E0,5.929176074E-1,5.385097336E0,8.207972983E0
3.748075000E0,7.176000672E0,5.751461649E-1,5.392503419E0,8.994713552E0
3.758042000E0,8.077319729E0,5.698947805E-1,5.346269485E0,9.703116585E0
3.768009000E0,8.674565445E0,7.235268635E-1,5.268796216E0,1.017505727E1
3.777975000E0,9.106861793E0,9.932250077E-1,5.211611617E0,1.053955992E1
3.787942000E0,9.480684230E0,1.134722949E0,5.170112758E0,1.085822433E1
3.797909000E0,9.810871235E0,1.120044098E0,5.262042682E0,1.118913698E1
3.807875000E0,1.025673195E1,1.049010369E0,5.618023510E0,1.174151444E1
3.817842000E0,1.062319801E1,9.191805464E-1,5.562703003E0,1.202667425E1
3.827809000E0,1.060022313E1,5.086884660E-1,5.162392094E0,1.180143154E1
3.837775000E0,1.022311748E1,-1.723805952E-1,4.969165006E0,1.136813296E1
3.847742000E0,9.696245928E0,-1.016254851E0,4.653998913E0,1.080322475E1
3.857709000E0,9.070219631E0,-1.914012954E0,4.147994903E0,1.015569749E1
3.867675000E0,8.393458214E0,-2.745129170E0,3.843988806E0,9.631309614E0
3.877642000E0,7.681645077E0,-3.437406759E0,3.615299524E0,9.159357345E0
3.887609000E0,6.779971095E0,-3.670017183E0,3.473276503E0,8.455807699E0
3.897575000E0,5.830917708E0,-3.606452687E0,3.463949025E0,7.681474152E0
3.907542000E0,5.083678631E0,-3.536959113E0,3.408408662E0,7.069025237E0
3.917508000E0,4.529229271E0,-3.410856307E0,3.219002144E0,6.519956544E0
3.927475000E0,4.067115047E0,-3.013620449E0,3.062241801E0,5.916135382E0
3.937442000E0,3.723318062E0,-2.548282070E0,2.945755910E0,5.388350098E0
3.947408000E0,3.413199286E0,-2.081678939E0,2.706303073E0,4.827773078E0
3.957375000E0,3.084068288E0,-1.655532693E0,2.348281567E0,4.215055399E0
3.967342000E0,2.743714728E0,-1.288239841E0,1.942701148E0,3.600225014E0
3.977308000E0,2.383891110E0,-1.005929838E0,1.541288624E0,3.011710857E0
3.987275000E0,2.007501161E0,-9.183467335E-1,1.115953971E0,2.473615754E0
3.997242000E0,1.495710747E0,-9.464028436E-1,8.782038438E-1,1.975872206E0
4.007208000E0,9.495363665E-1,-1.088763249E0,7.060828650E-1,1.607973176E0
4.017175000E0,4.539988732E-1,-1.387604501E0,5.272796881E-1,1.552283832E0
4.027142000E0,-1.023473239E-1,-1.731494456E0,3.566023868E-1,1.770794536E0
4.037108000E0,-7.226778477E-1,-2.131127087E0,3.080745534E-1,2.271315888E0
4.047075000E0,-1.299472927E0,-2.606815622E0,3.333714356E-1,2.931766378E0
4.057042000E0,-1.870495051E0,-3.109196405E0,3.630009949E-1,3.646590701E0
4.067008000E0,-2.430296368E0,-3.536444266E0,3.535483496E-1,4.305551639E0
4.076975000E0,-2.947470313E0,-3.956999697E0,4.080590906E-1,4.950953451E0
4.086942000E0,-3.463431546E0,-4.326686691E0,5.479963366E-1,5.569189867E0
4.096908000E0,-3.946579374E0,-4.640064705E0,6.774981666E-1,6.129004241E0
4.106875000E0,-4.328355778E0,-4.908115396E0,7.237742007E-1,6.583928127E0
4.116841000E0,-4.608782394E0,-5.162887353E0,7.640585929E-1,6.962762850E0
4.126808000E0,-4.828084556E0,-5.352860466E0,7.946693516E-1,7.252242069E0
4.136775000E0,-5.024948612E0,-5.452698165E0,8.262431467E-1,7.460878204E0
4.146741000E0,-5.209784362E0,-5.542671611E0,8.001692426E-1,7.648747120E0
4.156708000E0,-5.353353971E0,-5.689779371E0,7.459725702E-1,7.847831746E0
4.166675000E0,-5.460260954E0,-5.900280889E0,6.703511149E-1,8.067040031E0
4.176641000E0,-5.519371626E0,-6.199240839E0,5.833042002E-1,8.320714748E0
4.186608000E0,-5.480732056E0,-6.588630903E0,4.449403667E-1,8.581751160E0
4.196575000E0,-5.373157321E0,-7.073404257E0,3.321849990E-1,8.888993995E0
4.206541000E0,-5.342954113E0,-7.536409596E0,2.468869865E-1,9.241514023E0
4.216508000E0,-5.366266962E0,-7.740182723E0,2.113633972E-1,9.420823965E0
4.226475000E0,-5.435022617E0,-7.837053545E0,2.092806190E-1,9.539532351E0
4.236436542E0,-5.480377130E0,-7.919364799E0,1.866811488E-1,9.632534566E0
4.246403542E0,-5.468572771E0,-7.894670838E0,1.749790978E-1,9.605297157E0
4.256370542E0,-5.452651972E0,-7.649366693E0,1.835557938E-1,9.395632872E0
4.266336542E0,-5.419628068E0,-7.352452099E0,1.632449055E-1,9.135511434E0
4.276303542E0,-5.309159546E0,-7.224156586E0,1.191662550E-1,8.966036697E0
4.286270542E0,-5.116884384E0,-7.195035113E0,7.451691628E-2,8.829302852E0
4.296236542E0,-5.046282179E0,-7.129202482E0,-7.577991486E-3,8.734446134E0
4.306203542E0,-4.943134371E0,-7.184189698E0,-1.583958461E-1,8.721940625E0
4.316170542E0,-4.884487383E0,-7.341678604E0,-2.857072359E-1,8.822703120E0
4.326136542E0,-4.946208837E0,-7.260527437E0,-2.464063454E-1,8.788683440E0
4.336103542E0,-5.168811167E0,-6.843512787E0,-1.249970254E-1,8.577056629E0
4.346069542E0,-5.292739980E0,-6.322990726E0,9.840038024E-2,8.246392596E0
4.356036542E0,-5.141285400E0,-5.676459998E0,4.333967205E-1,7.670909098E0
4.366003542E0,-4.903200227E0,-5.116471571E0,6.319541308E-1,7.114704479E0
4.375969542E0,-4.258307304E0,-5.044215188E0,6.837215044E-1,6.636622865E0
4.385936542E0,-3.220814781E0,-5.328357709E0,6.235761671E-1,6.257307006E0
4.395903542E0,-1.944319657E0,-5.922522528E0,3.123477352E-1,6.241331038E0
4.405869542E0,-6.937370539E-1,-6.733691552E0,-1.224635730E-1,6.770440927E0
4.415836542E0,1.045102090E-1,-7.412843311E0,-4.354702894E-1,7.426358644E0
4.425803542E0,3.934930551E-1,-7.723542132E0,-7.327602017E-1,7.768196532E0
4.435769542E0,3.419083339E-1,-7.631164895E0,-1.039551986E0,7.709231304E0
4.445736542E0,1.128804982E-1,-7.204650275E0,-1.216417395E0,7.307489231E0
4.455703542E0,-2.099068558E-1,-6.563956822E0,-1.232719944E0,6.682004827E0
4.465669542E0,-4.688396913E-1,-5.774216089E0,-1.140669055E0,5.904448153E0
4.475636542E0,-5.087522006E-1,-4.880374451E0,-1.002832495E0,5.008248855E0
4.485603542E0,-3.188568556E-1,-3.963895026E0,-8.162343945E-1,4.059602451E0
4.495569542E0,1.721888065E-2,-3.267503921E0,-4.795195576E-1,3.302547103E0
4.505536542E0,4.698962831E-1,-2.581141668E0,-1.965073764E-1,2.630914285E0
4.515502542E0,8.649236476E-1,-1.899366848E0,-1.107018987E-1,2.089962260E0
4.525469542E0,1.195933356E0,-1.270668958E0,2.066120960E-2,1.745073947E0
4.535436542E0,1.455160891E0,-6.223852354E-1,1.793422171E-1,1.592802634E0
4.545402542E0,1.641160821E0,2.507227600E-2,3.770677147E-1,1.684107337E0
4.555369542E0,1.785618623E0,5.647042072E-1,5.721564835E-1,1.958235877E0
4.565336542E0,1.902907337E0,1.033780126E0,7.786141399E-1,2.301303470E0
4.575302542E0,1.944106234E0,1.477741669E0,9.929601288E-1,2.636140987E0
4.585269542E0,1.986613737E0,1.803195353E0,1.168444426E0,2.926330467E0
4.595236542E0,2.141291887E0,2.043745127E0,1.266916800E0,3.219798638E0
4.605202542E0,2.343013226E0,2.438838565E0,1.228190106E0,3.598068296E0
4.615169542E0,2.649659341E0,2.818167910E0,1.047229380E0,4.007424905E0
4.625136542E0,2.950297442E0,3.084188740E0,7.703800908E-1,4.337045154E0
4.635102542E0,3.211800129E0,3.363461115E0,4.957759865E-1,4.676999526E0
4.645069542E0,3.333715160E0,3.645089918E0,2.185818581E-1,4.944503545E0
4.655036542E0,3.329106969E0,3.942291611E0,-8.998353258E-3,5.159912531E0
4.665002542E0,3.330976909E0,4.104281119E0,-1.957998999E-1,5.289505485E0
4.674969542E0,3.342232214E0,4.121167293E0,-2.815002008E-1,5.313546687E0
4.684936542E0,3.428338312E0,4.050066320E0,-3.084172734E-1,5.315229251E0
4.694902542E0,3.513847409E0,3.783545553E0,-3.337771227E-1,5.174335487E0
4.704869542E0,3.582510678E0,3.268733883E0,-2.556917238E-1,4.856375419E0
4.714835542E0,3.787775429E0,2.612877431E0,-9.505752705E-2,4.602543547E0
4.724802542E0,3.900876367E0,2.065431865E0,1.432082516E-1,4.416260163E0
4.734769542E0,4.053740711E0,1.593380883E0,3.818073581E-1,4.372350998E0
4.744735542E0,4.295368127E0,1.062835525E0,6.727443802E-1,4.475755992E0
4.754702542E0,4.293177175E0,8.332709152E-1,1.389185003E0,4.588632220E0
4.764669542E0,4.492866021E0,7.000485384E-1,2.026462512E0,4.978198806E0
4.774635542E0,4.971151305E0,6.334475827E-1,2.560310962E0,5.627503297E0
4.784602542E0,5.560608530E0,7.101665604E-1,3.149103359E0,6.429739943E0
4.794569542E0,6.209286355E0,6.967752671E-1,3.653863081E0,7.238193713E0
4.804535542E0,6.964771761E0,6.017843252E-1,4.203197297E0,8.157025044E0
4.814502542E0,7.856995474E0,3.777576131E-1,4.618489941E0,9.121706421E0
4.824469542E0,8.633354269E0,1.088412416E-1,5.058067242E0,1.000653270E1
4.834435542E0,9.079085180E0,1.045084548E-1,5.325019534E0,1.052599367E1
4.844402542E0,9.312782602E0,3.427029705E-1,5.438897567E0,1.079013308E1
4.854369542E0,9.520320166E0,4.769363308E-1,5.424743797E0,1.096776229E1
4.864335542E0,9.693455637E0,4.908462721E-1,5.542907839E0,1.117711231E1
4.874302542E0,9.691852330E0,7.816657287E-1,5.696081500E0,1.126891066E1
4.884268542E0,9.610529255E0,9.883437520E-1,5.589925300E0,1.116182605E1
4.894235542E0,9.558603056E0,1.031456442E0,5.091958873E0,1.087928490E1
4.904202542E0,9.430664808E0,9.622698480E-1,4.487030500E0,1.048793806E1
4.914168542E0,9.136431747E0,5.625869304E-1,3.852057964E0,9.931225487E0
4.924135542E0,8.705215380E0,-4.335710406E-2,3.151802434E0,9.258321297E0
4.934102542E0,8.165941883E0,-7.930034798E-1,2.585891361E0,8.602226194E0
4.944068542E0,7.454781881E0,-1.564787999E0,2.239982947E0,7.939764353E0
4.954035542E0,6.583947283E0,-2.145825233E0,1.886123489E0,7.177073887E0
4.964002542E0,5.651392985E0,-2.467175927E0,1.656013334E0,6.384949482E0
4.973968542E0,4.792787254E0,-2.580356387E0,1.507682921E0,5.648199406E0
4.983935542E0,4.046303637E0,-2.507251573E0,1.456735547E0,4.978048014E0
4.993902542E0,3.485241660E0,-2.433722836E0,1.420355340E0,4.481888616E0
5.003868542E0,3.060425656E0,-2.341982946E0,1.367847928E0,4.089266104E0
5.013835542E0,2.697397179E0,-2.139772196E0,1.380841611E0,3.709622642E0
5.023801542E0,2.486407419E0,-1.851945929E0,1.426200217E0,3.412619615E0
5.033768542E0,2.361148950E0,-1.453314925E0,1.486376252E0,3.145864428E0
5.043735542E0,2.143440154E0,-9.572201926E-1,1.491465669E0,2.781200466E0
5.053701542E0,1.900077869E0,-5.696749252E-1,1.398707194E0,2.427180925E0
5.063668542E0,1.649364465E0,-3.073431033E-1,1.294216281E0,2.118928668E0
5.073635542E0,1.379093294E0,-1.474509913E-1,1.164375933E0,1.810914526E0
5.083601542E0,1.099564226E0,-9.088678122E-2,1.001947299E0,1.490369177E0
5.093568542E0,6.578766650E-1,-1.139470303E-1,8.716713345E-1,1.097996606E0
5.103535542E0,1.616345823E-1,-2.443925643E-1,7.270825553E-1,7.839021022E-1
5.113501542E0,-3.102485847E-1,-5.862517816E-1,5.712244008E-1,8.753528727E-1
5.123468542E0,-7.528857332E-1,-1.020831467E0,4.773432970E-1,1.355282419E0
5.133435542E0,-1.247615141E0,-1.404051549E0,4.377225272E-1,1.928601904E0
5.143401542E0,-1.800733091E0,-1.786118560E0,4.552402371E-1,2.576839701E0
5.153368542E0,-2.290135685E0,-2.297117845E0,5.541102584E-1,3.290670149E0
5.163335542E0,-2.697018864E0,-2.884520359E0,6.224513090E-1,3.997726115E0
5.173301542E0,-3.111841393E0,-3.450591061E0,7.246290636E-1,4.702682511E0
5.183268542E0,-3.466489640E0,-4.011421195E0,8.387427396E-1,5.367638197E0
5.193234542E0,-3.789024979E0,-4.576374201E0,9.099793679E-1,6.010655003E0
5.203201542E0,-4.112543235E0,-5.090169625E0,9.655647540E-1,6.614767869E0
5.213168542E0,-4.433059530E0,-5.451804711E0,1.001459641E0,7.097683623E0
5.223134542E0,-4.753836612E0,-5.769604390E0,1.025027429E0,7.545725848E0
5.233105250E0,-5.029453307E0,-6.052889709E0,1.027876192E0,7.936586411E0
5.243072250E0,-5.138448331E0,-6.407380666E0,9.609173870E-1,8.269313180E0
5.253038250E0,-5.338786218E0,-6.729514886E0,8.913670957E-1,8.636176480E0
5.263005250E0,-5.569150727E0,-6.987574732E0,8.859841490E-1,8.979232059E0
5.272972250E0,-5.674964281E0,-7.296120023E0,8.133991528E-1,9.279019623E0
5.282938250E0,-5.743206550E0,-7.512297433E0,7.675686765E-1,9.487264931E0
5.292905250E0,-5.790488305E0,-7.581410937E0,7.246173692E-1,9.567267998E0
5.302872250E0,-5.769679234E0,-7.598305882E0,7.096824110E-1,9.566979663E0
5.312838250E0,-5.754441975E0,-7.531327196E0,7.110962677E-1,9.504743536E0
5.322805250E0,-5.756899559E0,-7.357526897E0,7.235888439E-1,9.370094738E0
5.332771250E0,-5.851568320E0,-7.102284824E0,7.576553071E-1,9.233490298E0
5.342738250E0,-5.825453485E0,-6.882442964E0,8.703200430E-1,9.058774003E0
5.352705250E0,-5.604300095E0,-6.779981035E0,9.820468855E-1,8.851030362E0
5.362671250E0,-5.286019190E0,-6.799938751E0,1.063867559E0,8.678305139E0
5.372638250E0,-5.040000515E0,-6.787454361E0,1.077833633E0,8.522491844E0
5.382605250E0,-4.860785694E0,-6.761944714E0,1.016957687E0,8.389596940E0
5.392571250E0,-4.690022439E0,-6.688550463E0,8.937726402E-1,8.217776299E0
5.402538250E0,-4.498931923E0,-6.560108185E0,6.884792376E-1,7.984322858E0
5.412505250E0,-4.338159220E0,-6.305015216E0,4.398883724E-1,7.665920954E0
5.422471250E0,-4.157560948E0,-5.764748277E0,2.720096216E-1,7.112778991E0
5.432438250E0,-3.732726817E0,-5.171358799E0,1.367430583E-1,6.379255441E0
5.442405250E0,-3.170135209E0,-4.621083474E0,-7.620325327E-2,5.604460425E0
5.452371250E0,-2.550216329E0,-4.186609331E0,-2.803658044E-1,4.910183907E0
5.462338250E0,-1.884680396E0,-4.102045729E0,-4.961782750E-1,4.541474676E0
5.472304250E0,-1.283187847E0,-4.431693328E0,-6.956619573E-1,4.665878520E0
5.482271250E0,-6.406846815E-1,-5.101749451E0,-9.315841719E-1,5.225530920E0
5.492238250E0,-1.183283490E-1,-5.774738245E0,-1.151025571E0,5.889521480E0
5.502204250E0,2.396066183E-1,-6.273262496E0,-1.287336008E0,6.408468434E0
5.512171250E0,5.192181319E-1,-6.567847559E0,-1.379403781E0,6.731193343E0
5.522138250E0,4.645799947E-1,-6.358217277E0,-1.336791612E0,6.513814038E0
5.532104250E0,2.962749088E-1,-5.821348740E0,-1.103328663E0,5.932386881E0
5.542071250E0,1.028396595E-1,-5.075039955E0,-9.827211425E-1,5.170333392E0
5.552038250E0,-2.578622103E-4,-4.096468070E0,-9.913538986E-1,4.214716273E0
5.562004250E0,8.478988945E-2,-3.212824853E0,-9.160563791E-1,3.341944367E0
5.571971250E0,2.411520374E-1,-2.449198662E0,-8.285025108E-1,2.596756593E0
5.581938250E0,4.796143556E-1,-1.695008123E0,-8.246913687E-1,1.945044555E0
5.591904250E0,6.393140942E-1,-9.824901044E-1,-8.213667150E-1,1.431311495E0
5.601871250E0,7.425718296E-1,-3.178920650E-1,-7.772235990E-1,1.120957095E0
5.611837250E0,8.165262437E-1,2.919660956E-1,-7.129153365E-1,1.122589678E0
5.621804250E0,8.439707351E-1,8.362413007E-1,-6.113229612E-1,1.336151892E0
5.631771250E0,8.045681030E-1,1.362789502E0,-4.768551276E-1,1.652850832E0
5.641737250E0,7.263808894E-1,1.858102462E0,-3.317996675E-1,2.022440352E0
5.651704250E0,6.657113492E-1,2.128122203E0,-1.744493401E-1,2.236628777E0
5.661671250E0,6.352426779E-1,2.259219117E0,-1.306509174E-2,2.346864925E0
5.671637250E0,6.321734744E-1,2.412937739E0,1.663866144E-1,2.499919267E0
5.681604250E0,6.887096179E-1,2.499622711E0,3.568356907E-1,2.617205828E0
5.691571250E0,8.775162113E-1,2.475640356E0,5.062940311E-1,2.674913740E0
5.701537250E0,1.113831432E0,2.503153844E0,6.010920149E-1,2.804944070E0
5.711504250E0,1.334649777E0,2.623936270E0,6.606803318E-1,3.017089670E0
5.721471250E0,1.539020489E0,2.691366361E0,6.578393159E-1,3.169351593E0
5.731437250E0,1.785960685E0,2.689757792E0,6.076572686E-1,3.285376676E0
5.741404250E0,2.015952142E0,2.777295873E0,5.639792255E-1,3.477859682E0
5.751370250E0,2.190216125E0,2.902968324E0,5.212073547E-1,3.673680562E0
5.761337250E0,2.402890468E0,3.001238385E0,4.506473223E-1,3.870968542E0
5.771304250E0,2.640865713E0,3.101684779E0,3.750580267E-1,4.090878721E0
5.781270250E0,2.893550214E0,3.245825661E0,3.994097795E-1,4.366640040E0
5.791237250E0,3.225459225E0,3.182937103E0,4.626907228E-1,4.555080517E0
5.801204250E0,3.683275745E0,2.882705383E0,5.612759116E-1,4.710789869E0
5.811170250E0,4.145499896E0,2.578548428E0,7.119979084E-1,4.933662170E0
5.821137250E0,4.542570863E0,2.256711831E0,9.092478812E-1,5.153099072E0
5.831104250E0,4.921690877E0,2.029953884E0,1.196559593E0,5.456693937E0
5.841070250E0,5.259559370E0,1.838401439E0,1.494085806E0,5.768446672E0
5.851037250E0,5.721624477E0,1.451946092E0,1.818342565E0,6.176690359E0
5.861004250E0,6.398178903E0,1.080758411E0,2.168633468E0,6.841615535E0
5.870970250E0,7.089255474E0,8.465008253E-1,2.425384122E0,7.540331223E0
5.880937250E0,7.778993032E0,5.998301858E-1,2.645909522E0,8.238529361E0
5.890903250E0,8.588848772E0,2.228783190E-1,2.879828553E0,9.061534664E0
5.900870250E0,9.315569385E0,-1.359793389E-1,3.087161465E0,9.814728180E0
5.910837250E0,9.846970775E0,-3.544137740E-1,3.232506874E0,1.037003102E1
5.920803250E0,1.029992651E1,-4.990276963E-1,3.400923057E0,1.085835127E1
5.930770250E0,1.052758551E1,-4.787635857E-1,3.591803073E0,1.113374692E1
5.940737250E0,1.048236431E1,-2.376355219E-1,3.744048196E0,1.113347785E1
5.950703250E0,1.035108964E1,2.326303053E-1,3.964577104E0,1.108679599E1
5.960670250E0,1.021403909E1,8.112245733E-1,3.943589108E0,1.097891502E1
5.970637250E0,9.995953152E0,1.164516851E0,3.670872631E0,1.071216527E1
5.980603250E0,9.554632797E0,1.035694504E0,3.327027115E0,1.017019078E1
5.990570250E0,8.831815785E0,6.028473490E-1,3.011058784E0,9.350447582E0
6.000536250E0,7.950716400E0,1.744575262E-2,2.618301308E0,8.370764444E0
6.010503250E0,7.138999491E0,-7.923924458E-1,2.234436278E0,7.522360335E0
6.020470250E0,6.338414512E0,-1.562595878E0,2.043532289E0,6.840557624E0
6.030436250E0,5.552182692E0,-2.232172236E0,2.015408351E0,6.314364288E0
6.040403250E0,4.789974743E0,-2.848141322E0,2.055736597E0,5.939850165E0
6.050370250E0,4.111795961E0,-3.297333784E0,2.106086386E0,5.675815005E0
6.060336250E0,3.390975189E0,-3.491461344E0,2.154134712E0,5.322528666E0
6.070303250E0,2.718229639E0,-3.511666397E0,2.220644451E0,4.965061433E0
6.080270250E0,2.342886926E0,-3.430759644E0,2.205098459E0,4.703370078E0
6.090236250E0,2.204806682E0,-2.964461153E0,2.168149903E0,4.283698920E0
6.100203250E0,2.217639567E0,-2.393919670E0,2.154242885E0,3.910184016E0
6.110170250E0,2.200281522E0,-1.910335640E0,2.083438951E0,3.582085830E0
6.120136250E0,2.124848347E0,-1.320671423E0,1.834651619E0,3.102434539E0
6.130103250E0,1.991209064E0,-7.524045074E-1,1.501239874E0,2.604754737E0
6.140069250E0,1.766670721E0,-3.186042559E-1,1.242708158E0,2.183336363E0
6.150036250E0,1.422742174E0,-6.470061064E-2,1.021969335E0,1.752941181E0
6.160003250E0,1.028457406E0,1.072379351E-2,7.801986623E-1,1.290949103E0
6.169969250E0,5.491166997E-1,-1.340421563E-1,5.765956897E-1,8.074398051E-1
6.179936250E0,-2.080380857E-2,-4.208510077E-1,4.420454103E-1,6.106983821E-1
6.189903250E0,-5.980321670E-1,-8.239101076E-1,4.001103491E-1,1.093873224E0
6.199869250E0,-1.167189029E0,-1.248833116E0,3.181054884E-1,1.738707993E0
6.209836250E0,-1.757001180E0,-1.686494577E0,3.223160684E-1,2.456665372E0
6.219803250E0,-2.352356492E0,-2.139808741E0,4.796658111E-1,3.215966698E0
6.229769250E0,-2.895005001E0,-2.558244849E0,6.165467906E-1,3.912262850E0
6.239732792E0,-3.454425080E0,-2.899413217E0,7.251097047E-1,4.567869714E0
6.249698792E0,-3.963843278E0,-3.206230656E0,8.147709095E-1,5.162927482E0
6.259665792E0,-4.403035247E0,-3.498813340E0,8.912501514E-1,5.694097032E0
6.269632792E0,-4.769167426E0,-3.766694755E0,9.664839363E-1,6.153619952E0
6.279598792E0,-5.049273614E0,-4.005074919E0,9.966321802E-1,6.521431196E0
6.289565792E0,-5.269970337E0,-4.269489520E0,9.991698718E-1,6.855615840E0
6.299532792E0,-5.455065703E0,-4.523579691E0,9.899417961E-1,7.155452453E0
6.309498792E0,-5.625581621E0,-4.738009661E0,9.665640432E-1,7.418230932E0
6.319465792E0,-5.712729108E0,-4.975865915E0,8.817612898E-1,7.627058308E0
6.329432792E0,-5.689077705E0,-5.358572026E0,7.774908167E-1,7.853941130E0
6.339398792E0,-5.714076891E0,-5.777011642E0,6.704078329E-1,8.153157971E0
6.349365792E0,-5.832875356E0,-6.134109873E0,5.588043666E-1,8.483041977E0
6.359331792E0,-6.036619247E0,-6.408867613E0,4.944487417E-1,8.818097049E0
6.369298792E0,-6.265599720E0,-6.578309982E0,4.471740031E-1,9.095705946E0
6.379265792E0,-6.497270497E0,-6.622838284E0,4.437691694E-1,9.288349795E0
6.389231792E0,-6.674000836E0,-6.635020958E0,4.605489242E-1,9.422202268E0
6.399198792E0,-6.775353549E0,-6.646693169E0,4.312631446E-1,9.501049084E0
6.409165792E0,-6.846463292E0,-6.632549340E0,5.389963023E-1,9.547527814E0
6.419131792E0,-6.802586955E0,-6.662478313E0,6.322231758E-1,9.542720403E0
6.429098792E0,-6.633990093E0,-6.715832402E0,7.783357394E-1,9.471960511E0
6.439065792E0,-6.247100299E0,-6.904824936E0,9.467566001E-1,9.359445369E0
6.449031792E0,-5.638888714E0,-7.304251746E0,1.036383964E0,9.285647593E0
6.458998792E0,-4.931628220E0,-7.765920997E0,1.077670423E0,9.262389506E0
6.468964792E0,-4.232890627E0,-8.249432521E0,9.964398068E-1,9.325416467E0
6.478931792E0,-3.832786710E0,-8.363575433E0,8.132530455E-1,9.235855592E0
6.488898792E0,-3.690660778E0,-7.838982541E0,6.236488187E-1,8.686746348E0
6.498864792E0,-3.521686771E0,-7.109116126E0,4.645813103E-1,7.947178468E0
6.508831792E0,-3.136303219E0,-6.434139279E0,3.115501019E-1,7.164608127E0
6.518798792E0,-2.517660787E0,-5.929297696E0,1.842252269E-1,6.444309578E0
6.528764792E0,-1.688787562E0,-5.667623101E0,3.593230963E-2,5.913987334E0
6.538731792E0,-6.661270863E-1,-5.832071364E0,-1.917372910E-1,5.873120540E0
6.548698792E0,5.581763756E-1,-6.475760930E0,-4.687478900E-1,6.516652904E0
6.558664792E0,1.812114111E0,-7.198059293E0,-8.445505596E-1,7.470547556E0
6.568631792E0,2.626857539E0,-7.547791786E0,-1.283731638E0,8.094288622E0
6.578597792E0,3.012093741E0,-7.429942324E0,-1.655597012E0,8.186437144E0
6.588564792E0,2.824299300E0,-6.644492862E0,-1.983589557E0,7.487361315E0
6.598531792E0,2.381713023E0,-5.819225031E0,-2.118903483E0,6.635185669E0
6.608497792E0,1.758041400E0,-4.859097603E0,-2.241126662E0,5.632422906E0
6.618464792E0,1.175386240E0,-3.504452688E0,-2.338820772E0,4.374106087E0
6.628431792E0,8.661942476E-1,-2.276018460E0,-2.468754090E0,3.467751327E0
6.638397792E0,7.729668260E-1,-1.388667232E0,-2.542073497E0,2.998001344E0
6.648364792E0,7.877696371E-1,-7.433381072E-1,-2.494697016E0,2.719677508E0
6.658331792E0,8.597172868E-1,-2.790630448E-1,-2.417783327E0,2.581214096E0
6.668297792E0,8.011913359E-1,1.902338988E-1,-2.281085511E0,2.425169603E0
6.678264792E0,6.308104885E-1,6.888593066E-1,-2.041208020E0,2.244767070E0
6.688230792E0,4.270028633E-1,1.061447981E0,-1.688858314E0,2.039913151E0
6.698197792E0,2.453275341E-1,1.401582270E0,-1.288939168E0,1.919891309E0
6.708164792E0,3.947572231E-2,1.755178603E0,-8.767741996E-1,1.962382037E0
6.718130792E0,-1.778255224E-1,2.061799575E0,-4.977641129E-1,2.128475632E0
6.728097792E0,-3.664508522E-1,2.270152826E0,-1.801554917E-1,2.306585372E0
6.738064792E0,-4.928126907E-1,2.437101942E0,1.294474143E-1,2.489796550E0
6.748030792E0,-5.427116597E-1,2.510741776E0,5.009637094E-1,2.617121482E0
6.757997792E0,-4.806966752E-1,2.455112536E0,7.371999925E-1,2.608085636E0
6.767964792E0,-3.459879363E-1,2.331683661E0,1.009382107E0,2.564236452E0
6.777930792E0,-1.610457677E-1,2.331050407E0,1.313179386E0,2.680330547E0
6.787897792E0,5.403470457E-2,2.389448304E0,1.490722488E0,2.816848679E0
6.797863792E0,2.051115543E-1,2.410961380E0,1.615538322E0,2.909427709E0
6.807830792E0,4.093980664E-1,2.416347250E0,1.687010009E0,2.975288823E0
6.817797792E0,6.157047915E-1,2.359785379E0,1.737631109E0,2.994501844E0
6.827763792E0,8.724753267E-1,2.297566327E0,1.768069375E0,3.027555703E0
6.837730792E0,1.222869140E0,2.297586792E0,1.865369967E0,3.202174123E0
6.847697792E0,1.628920260E0,2.226682870E0,1.976434904E0,3.393787375E0
6.857663792E0,2.139903173E0,2.001351644E0,2.067904068E0,3.586198716E0
6.867630792E0,2.592337332E0,1.670341351E0,2.234911657E0,3.808553949E0
6.877597792E0,3.113994922E0,1.229461876E0,2.458457143E0,4.153619193E0
6.887563792E0,3.653622760E0,7.253523642E-1,2.690402155E0,4.594927538E0
6.897530792E0,4.138848689E0,2.739636880E-1,3.109206637E0,5.183849003E0
6.907496792E0,4.711689881E0,-1.012117946E-1,3.586492631E0,5.922262638E0
6.917463792E0,5.289293631E0,-3.231177217E-1,3.910423701E0,6.585776013E0
6.927430792E0,5.843414378E0,-2.198868835E-1,4.293585895E0,7.254565574E0
6.937396792E0,6.499393036E0,-1.289311051E-2,4.671519510E0,8.004084620E0
6.947363792E0,7.305815291E0,2.455655158E-2,4.922442244E0,8.809425506E0
6.957330792E0,8.155455487E0,-1.037816459E-1,5.073067689E0,9.605115335E0
6.967296792E0,8.859208821E0,-1.074373251E-1,5.310780394E0,1.032964240E1
6.977263792E0,9.401982461E0,3.830627918E-2,5.517909822E0,1.090165448E1
6.987230792E0,9.744950895E0,2.035497630E-1,5.668205484E0,1.127537378E1
6.997196792E0,9.884456105E0,3.072986645E-1,5.674473699E0,1.140160325E1
7.007163792E0,9.863312573E0,3.183101410E-1,5.629652452E0,1.136130463E1
7.017129792E0,9.605916971E0,3.593891698E-1,5.440407318E0,1.104539873E1
7.027096792E0,9.191227759E0,5.106788582E-1,5.069408501E0,1.050896585E1
7.037063792E0,8.839534695E0,7.432559538E-1,4.628551830E0,1.000566315E1
7.047029792E0,8.642064282E0,8.612644601E-1,4.096152320E0,9.602370298E0
7.056996792E0,8.452161920E0,6.791008884E-1,3.502824823E0,9.174421011E0
7.066963792E0,8.078461690E0,3.309968448E-1,2.939293567E0,8.602938385E0
7.076929792E0,7.641893951E0,-2.200090903E-1,2.460188504E0,8.031156494E0
7.086896792E0,7.193768606E0,-8.996438295E-1,1.982139448E0,7.515886014E0
7.096862792E0,6.606084841E0,-1.457607366E0,1.576488862E0,6.946243107E0
7.106829792E0,5.915649710E0,-1.773252347E0,1.309933012E0,6.313102239E0
7.116796792E0,5.270403031E0,-1.921269933E0,1.084997642E0,5.713636858E0
7.126762792E0,4.685737014E0,-1.880892570E0,9.914562249E-1,5.145568353E0
7.136729792E0,4.217959762E0,-1.815914217E0,9.714207405E-1,4.693866983E0
7.146696792E0,3.852427508E0,-1.723342853E0,9.425525252E-1,4.324293416E0
7.156662792E0,3.539497390E0,-1.437496453E0,8.714304292E-1,3.918396205E0
7.166629792E0,3.280893753E0,-1.046297845E0,8.632964406E-1,3.550251222E0
7.176596792E0,3.028359525E0,-6.439024043E-1,8.753112262E-1,3.217412231E0
7.186562792E0,2.703330349E0,-1.895158607E-1,8.844907701E-1,2.850655216E0
7.196529792E0,2.377222946E0,2.072604060E-1,9.139525509E-1,2.555279843E0
7.206495792E0,2.033462799E0,5.211898130E-1,9.519910276E-1,2.304972167E0
7.216462792E0,1.670893328E0,7.203003699E-1,9.812809002E-1,2.067275826E0
7.226429792E0,1.303405180E0,7.594726217E-1,9.826643515E-1,1.800359118E0
7.236396542E0,8.941410148E-1,6.641986746E-1,9.487797368E-1,1.463157894E0
7.246363542E0,4.105634165E-1,4.502297580E-1,8.590109432E-1,1.053170905E0
7.256330542E0,-1.107749158E-1,5.961177886E-2,7.434687924E-1,7.540361341E-1
7.266296542E0,-6.582228202E-1,-3.986754423E-1,7.087281454E-1,1.046181138E0
7.276263542E0,-1.228790615E0,-8.059439528E-1,7.529377735E-1,1.651177556E0
7.286230542E0,-1.740207392E0,-1.194655155E0,8.314144242E-1,2.268649962E0
7.296196542E0,-2.229693017E0,-1.601336020E0,8.970880115E-1,2.888005350E0
7.306163542E0,-2.677096816E0,-2.058199444E0,9.229479074E-1,3.500694953E0
7.316129542E0,-3.049532293E0,-2.556823683E0,9.604040015E-1,4.093821002E0
7.326096542E0,-3.406027676E0,-3.080037802E0,1.011470075E0,4.702204706E0
7.336063542E0,-3.734966301E0,-3.587333169E0,1.075429258E0,5.289185251E0
7.346029542E0,-4.023744494E0,-4.118534584E0,1.134310720E0,5.868518355E0
7.355996542E0,-4.299479889E0,-4.618955672E0,1.181565578E0,6.419998133E0
7.365963542E0,-4.596251226E0,-5.005514807E0,1.263592658E0,6.912117636E0
7.375929542E0,-4.872459660E0,-5.323542527E0,1.313780479E0,7.335324623E0
7.385896542E0,-5.042981426E0,-5.693427449E0,1.342452886E0,7.723273757E0
7.395863542E0,-5.165242027E0,-6.083088824E0,1.331378260E0,8.090504490E0
7.405829542E0,-5.245188668E0,-6.511299722E0,1.334076165E0,8.466923139E0
7.415796542E0,-5.223343470E0,-7.005444993E0,1.254784412E0,8.828026987E0
7.425762542E0,-5.247903530E0,-7.344844871E0,1.194570955E0,9.105725529E0
7.435729542E0,-5.241663966E0,-7.588869061E0,1.179741247E0,9.298266729E0
7.445696542E0,-5.209296704E0,-7.787327068E0,1.162394897E0,9.440889625E0
7.455662542E0,-5.300733708E0,-7.806545112E0,1.174194578E0,9.508872559E0
7.465629542E0,-5.400055683E0,-7.701280028E0,1.188571712E0,9.480665491E0
7.475596542E0,-5.393258294E0,-7.630376106E0,1.249331299E0,9.427125927E0
7.485562542E0,-5.256331707E0,-7.606835216E0,1.284223389E0,9.334998378E0
7.495529542E0,-5.074406701E0,-7.671069803E0,1.303941954E0,9.289519897E0
7.505495542E0,-4.871452185E0,-7.883914300E0,1.281623717E0,9.355731422E0
7.515462542E0,-4.731238877E0,-8.174781119E0,1.195851495E0,9.520594963E0
7.525429542E0,-4.691818703E0,-8.252928572E0,1.052352710E0,9.551515010E0
7.535395542E0,-4.774601244E0,-8.163231699E0,9.429325942E-1,9.503909232E0
7.545362542E0,-4.942564268E0,-7.877077736E0,9.034695896E-1,9.343101867E0
7.555329542E0,-5.353866187E0,-7.082062814E0,8.572626257E-1,8.919327108E0
7.565295542E0,-5.728632950E0,-5.965256903E0,8.699253559E-1,8.316146675E0
7.575262542E0,-5.746306744E0,-5.130039450E0,9.278993297E-1,7.758759122E0
7.585229542E0,-5.193651894E0,-4.694589699E0,1.046528737E0,7.078729747E0
7.595195542E0,-4.012193905E0,-4.676820595E0,1.068840543E0,6.254020380E0
7.605162542E0,-2.482661693E0,-5.056185608E0,8.612662143E-1,5.698280572E0
7.615128542E0,-6.854965729E-1,-5.827047436E0,4.603675143E-1,5.885263429E0
7.625095542E0,8.500635338E-1,-6.494462664E0,-3.521777987E-2,6.549953710E0
7.635062542E0,1.598569118E0,-6.793429631E0,-5.976965368E-1,7.004523576E0
7.645028542E0,1.588509568E0,-6.780427762E0,-1.080789986E0,7.047387479E0
7.654995542E0,1.024574854E0,-6.528426801E0,-1.526992182E0,6.782463804E0
7.664962542E0,3.930387264E-1,-6.096208221E0,-2.101087602E0,6.460093128E0
7.674928542E0,4.243148983E-2,-5.302307194E0,-2.495779921E0,5.860476041E0
7.684895542E0,-3.157847285E-1,-4.035846769E0,-2.806927223E0,4.926116074E0
7.694861542E0,-6.106177139E-1,-2.794630528E0,-2.943095427E0,4.104220324E0
7.704828542E0,-5.689136177E-1,-1.908734380E0,-2.943280199E0,3.553846925E0
7.714795542E0,-2.924514145E-1,-1.189792026E0,-2.771871995E0,3.030578699E0
7.724761542E0,1.239609718E-2,-3.397641599E-1,-2.386539899E0,2.410636023E0
7.734728542E0,2.615857172E-1,4.506273687E-1,-2.056962758E0,2.121930230E0
7.744695542E0,4.050834060E-1,1.040176395E0,-1.726476960E0,2.055913956E0
7.754661542E0,5.661940777E-1,1.302818704E0,-1.373890441E0,1.976230567E0
7.764628542E0,8.220886999E-1,1.390512906E0,-1.069801971E0,1.937480898E0
7.774594542E0,1.142288661E0,1.699558718E0,-7.629294956E-1,2.185265347E0
7.784561542E0,1.507415704E0,2.173857955E0,-5.695416818E-1,2.705981936E0
7.794528542E0,1.744072986E0,2.651273172E0,-6.028761466E-1,3.230247617E0
7.804494542E0,1.918671430E0,2.992718992E0,-8.133266473E-1,3.646802333E0
7.814461542E0,1.904000766E0,3.265507389E0,-1.089217578E0,3.933847018E0
7.824428542E0,1.750911305E0,3.422227972E0,-1.344308792E0,4.072407251E0
7.834394542E0,1.735709129E0,3.388443929E0,-1.688708479E0,4.164849909E0
7.844361542E0,1.764508420E0,3.347266667E0,-1.991293849E0,4.275854920E0
7.854328542E0,1.877426925E0,3.408913862E0,-2.129547901E0,4.436259667E0
7.864294542E0,2.030208823E0,3.365140436E0,-2.220389366E0,4.513983491E0
7.874261542E0,2.221675315E0,3.152734480E0,-2.041729007E0,4.363969895E0
7.884227542E0,2.498264987E0,2.913634815E0,-1.577730226E0,4.149678114E0
7.894194542E0,2.695746510E0,3.067416587E0,-9.669628233E-1,4.196559408E0
7.904161542E0,2.823296503E0,3.271747538E0,-4.321876625E-1,4.343054371E0
7.914127542E0,3.130496349E0,3.051488187E0,5.145491302E-2,4.371982977E0
7.924094542E0,3.660918916E0,2.561419594E0,5.986993343E-1,4.507952810E0
7.934061542E0,4.160418482E0,2.097923089E0,1.218044602E0,4.816014523E0
7.944027542E0,4.615710175E0,1.677048107E0,1.906529687E0,5.268028685E0
7.953994542E0,5.109773000E0,1.300720139E0,2.439672963E0,5.809789769E0
7.963961542E0,5.738397800E0,1.047174928E0,2.862175809E0,6.497525298E0
7.973927542E0,6.363380368E0,8.666760582E-1,3.194800519E0,7.172899515E0
7.983894542E0,6.995847958E0,7.475752920E-1,3.444801732E0,7.833735791E0
7.993860542E0,7.452494450E0,8.977581024E-1,3.568713588E0,8.311519705E0
8.003827542E0,7.649216419E0,1.221867512E0,3.614549911E0,8.548008137E0
8.013794542E0,8.048730937E0,1.157658652E0,3.518319944E0,8.860068763E0
8.023760542E0,8.665063135E0,6.363682669E-1,3.408763003E0,9.333163929E0
8.033727542E0,9.152067786E0,1.999496323E-1,3.316909093E0,9.736642674E0
8.043694542E0,9.455873909E0,5.653614342E-2,3.157421608E0,9.969255686E0
8.053660542E0,9.668351786E0,1.025087070E-1,2.969014964E0,1.011447399E1
8.063627542E0,9.684937413E0,3.315833205E-1,2.806586330E0,1.008884964E1
8.073593542E0,9.524773990E0,7.530664122E-1,2.547104441E0,9.888183332E0
8.083560542E0,9.367513710E0,1.269648619E0,2.275769076E0,9.723242546E0
8.093527542E0,9.151314665E0,1.665397530E0,1.997712922E0,9.513725135E0
8.103493542E0,8.982801418E0,1.584560359E0,1.719051581E0,9.282062874E0
8.113460542E0,8.830950982E0,9.326952159E-1,1.470756585E0,9.001041081E0
8.123427542E0,8.614542022E0,-6.517189622E-2,1.288969574E0,8.710684485E0
8.133393542E0,8.336816236E0,-1.292062166E0,1.139271498E0,8.512923654E0
8.143360542E0,7.879770378E0,-2.400298982E0,1.116596507E0,8.312581078E0
8.153326542E0,7.367630886E0,-3.243586763E0,1.173547876E0,8.135112450E0
8.163293542E0,6.745929190E0,-3.740422338E0,1.395226931E0,7.838684717E0
8.173260542E0,6.110961331E0,-3.902837523E0,1.696708201E0,7.446798496E0
8.183226542E0,5.614630955E0,-3.981148698E0,1.904515321E0,7.141484743E0
8.193193542E0,5.198146064E0,-3.973971825E0,2.138931366E0,6.883908915E0
8.203160542E0,4.846053634E0,-3.788635554E0,2.284590186E0,6.561809774E0
8.213126542E0,4.481603699E0,-3.446365278E0,2.415340945E0,6.147851432E0
8.223093542E0,4.031514859E0,-2.955434221E0,2.560557715E0,5.616418726E0
8.233058542E0,3.543133773E0,-2.470103043E0,2.681750615E0,5.083993739E0
8.243025542E0,3.049663855E0,-2.041331981E0,2.706064507E0,4.559634964E0
8.252992542E0,2.508257294E0,-1.687749097E0,2.645563951E0,4.017320038E0
8.262958542E0,1.915013412E0,-1.419910952E0,2.557065758E0,3.495998966E0
8.272925542E0,1.263787955E0,-1.204375566E0,2.324851774E0,2.907338348E0
8.282892542E0,5.805665338E-1,-1.216406212E0,1.862613004E0,2.299136529E0
8.292858542E0,-5.768102825E-2,-1.456031542E0,1.445104265E0,2.052238117E0
8.302825542E0,-6.482363605E-1,-1.740658797E0,1.064727684E0,2.140969049E0
8.312792542E0,-1.262150150E0,-2.040496414E0,6.581222481E-1,2.487925544E0
8.322758542E0,-1.940376295E0,-2.361274080E0,3.163319548E-1,3.072578942E0
8.332725542E0,-2.607527813E0,-2.665158263E0,4.941591583E-2,3.728902224E0
8.342691542E0,-3.240146846E0,-2.968335225E0,-1.274090749E-1,4.396111766E0
8.352658542E0,-3.840626657E0,-3.275825094E0,-2.735584760E-1,5.055321691E0
8.362625542E0,-4.397000336E0,-3.563942844E0,-3.476519077E-1,5.670640387E0
8.372591542E0,-4.908139370E0,-3.826115914E0,-3.578052322E-1,6.233539897E0
8.382558542E0,-5.352640611E0,-4.064857145E0,-3.643968715E-1,6.731018511E0
8.392525542E0,-5.688565489E0,-4.283540964E0,-3.724939495E-1,7.130725927E0
8.402491542E0,-5.998556796E0,-4.465606302E0,-3.155906010E-1,7.484912873E0
8.412458542E0,-6.301400467E0,-4.597676777E0,-2.344463774E-1,7.803924955E0
8.422424542E0,-6.580566423E0,-4.685782915E0,-1.107456797E-1,8.079150981E0
8.432391542E0,-6.771530054E0,-4.807425174E0,-2.377017416E-2,8.304548217E0
8.442358542E0,-6.948728755E0,-4.962166473E0,5.442120552E-2,8.538787331E0
8.452324542E0,-7.061233862E0,-5.179591094E0,1.156134868E-1,8.757999431E0
8.462291542E0,-7.086625396E0,-5.462617382E0,1.371821111E-1,8.948701978E0
8.472258542E0,-7.052250200E0,-5.822506489E0,1.079898505E-1,9.145899436E0
8.482224542E0,-6.974803244E0,-6.242139521E0,5.325874250E-2,9.360289664E0
8.492191542E0,-6.951622542E0,-6.580224946E0,2.882911205E-2,9.572107784E0
8.502157542E0,-6.931033326E0,-6.787750815E0,5.818491206E-3,9.701176112E0
8.512124542E0,-6.894135057E0,-6.952763334E0,-2.239370305E-2,9.791349122E0
8.522091542E0,-6.913883443E0,-7.009783042E0,-3.335712276E-2,9.845809020E0
8.532057542E0,-6.893538641E0,-6.956513738E0,-8.421196528E-3,9.793570814E0
8.542024542E0,-6.852666603E0,-6.934076217E0,8.991848230E-3,9.748873444E0
8.551991542E0,-6.623760974E0,-7.045473277E0,1.364853423E-2,9.670216617E0
8.561957542E0,-6.302706735E0,-7.160596767E0,5.097003266E-2,9.539436891E0
8.571924542E0,-5.953769463E0,-7.316796362E0,1.097411281E-1,9.433712045E0
8.581890542E0,-5.405604106E0,-7.740824747E0,1.040020859E-1,9.442019908E0
8.591857542E0,-4.835358492E0,-8.312331020E0,2.198077999E-2,9.616445388E0
8.601824542E0,-4.597075683E0,-8.557263283E0,-4.859503984E-2,9.714021886E0
8.611790542E0,-4.594854911E0,-8.307324049E0,-1.343748629E-2,9.493392707E0
8.621757542E0,-4.534945509E0,-7.737906402E0,1.203771403E-1,8.969694360E0
8.631724542E0,-4.242312831E0,-7.073538158E0,2.737957998E-1,8.252704064E0
8.641690542E0,-3.749698945E0,-6.497511402E0,4.466150093E-1,7.515142152E0
8.651657542E0,-2.978679242E0,-6.279310856E0,6.147610509E-1,6.977120180E0
8.661623542E0,-1.711471251E0,-6.698449214E0,6.915735110E-1,6.948138574E0
8.671590542E0,-6.507366300E-2,-7.658455020E0,6.875705802E-1,7.689533223E0
8.681557542E0,1.430532419E0,-8.607099102E0,5.356551667E-1,8.741596216E0
8.691523542E0,2.386479088E0,-8.995195177E0,2.883239380E-1,9.310851164E0
8.701490542E0,2.823524544E0,-8.747473208E0,3.856311813E-3,9.191876481E0
8.711457542E0,2.879131565E0,-8.360667028E0,-1.235154140E-1,8.843382146E0
8.721423542E0,2.719814819E0,-7.788944408E0,-1.460038785E-1,8.251446223E0
8.731390542E0,2.416718549E0,-6.944873686E0,-1.483918448E-1,7.354850046E0
8.741356542E0,2.163941077E0,-5.717698656E0,-9.994762659E-2,6.114303594E0
8.751323542E0,2.026671842E0,-4.213653873E0,5.877621174E-3,4.675715160E0
8.761290542E0,2.042776244E0,-2.941671045E0,7.725816406E-2,3.582224468E0
8.771256542E0,2.262445026E0,-2.121458132E0,-3.955677934E-3,3.101492826E0
8.781223542E0,2.524294453E0,-1.446397085E0,-9.826896407E-2,2.910976434E0
8.791190542E0,2.820555913E0,-7.480342984E-1,-1.512137111E-1,2.921978192E0
8.801156542E0,3.056193441E0,4.097728729E-3,-1.885978478E-1,3.062009845E0
8.811123542E0,3.204039119E0,7.104875726E-1,-2.074252975E-1,3.288416720E0
8.821089542E0,3.272233441E0,1.345599273E0,-1.246931163E-1,3.540296241E0
8.831056542E0,3.263011213E0,1.871553982E0,1.406957030E-2,3.761669102E0
8.841023542E0,3.164401429E0,2.312781951E0,2.310363543E-1,3.926292724E0
8.850989542E0,3.078713992E0,2.708340828E0,4.597565534E-1,4.126132084E0
8.860956542E0,3.040474956E0,3.016647552E0,5.987664311E-1,4.324716367E0
8.870923542E0,2.963610967E0,3.274005148E0,7.084392929E-1,4.472581571E0
8.880889542E0,2.926115112E0,3.449510495E0,7.216094884E-1,4.580610501E0
8.890856542E0,2.946225441E0,3.623600231E0,6.193756004E-1,4.711087891E0
8.900822542E0,2.989393095E0,3.831363498E0,4.440035697E-1,4.879852098E0
8.910789542E0,3.066961673E0,3.837923489E0,2.234238642E-1,4.917908991E0
8.920756542E0,3.152807570E0,3.904861245E0,2.365732290E-2,5.018834186E0
8.930722542E0,3.243478004E0,4.038532687E0,-1.668597273E-1,5.182445176E0
8.940689542E0,3.208528027E0,4.097850351E0,-3.566276029E-1,5.216724341E0
8.950656542E0,3.087837403E0,4.159449599E0,-4.191325110E-1,5.197252433E0
8.960622542E0,3.036832725E0,4.178985731E0,-3.688248217E-1,5.179025631E0
8.970589542E0,3.111227435E0,3.880992326E0,-1.468522364E-1,4.976284072E0
8.980555542E0,3.379503536E0,3.356071989E0,2.318666589E-1,4.768440573E0
8.990522542E0,3.773021150E0,2.791638508E0,8.188066578E-1,4.764386476E0
9.000489542E0,4.115341420E0,2.291826115E0,1.403552781E0,4.915125874E0
9.010455542E0,4.442799530E0,1.899262767E0,1.865521410E0,5.179366453E0
9.020422542E0,4.860376681E0,1.552621112E0,2.249259555E0,5.576115346E0
9.030389542E0,5.373949034E0,1.321506990E0,2.668299680E0,6.143739263E0
9.040355542E0,6.215254608E0,1.098466119E0,3.085051205E0,7.025208794E0
9.050322542E0,6.980028316E0,9.972829753E-1,3.503417730E0,7.873328674E0
9.060288542E0,7.598233377E0,1.054205620E0,3.855713643E0,8.585512660E0
9.070255542E0,8.410568336E0,1.054554114E0,4.028257960E0,9.384913761E0
9.080222542E0,9.419831672E0,9.535697758E-1,4.016528445E0,1.028469858E1
9.090188542E0,1.022823847E1,9.486165994E-1,3.964524479E0,1.101063986E1
9.100155542E0,1.068724724E1,1.087526563E0,3.845678651E0,1.141004872E1
9.110122542E0,1.089295229E1,1.184744709E0,3.895108674E0,1.162892519E1
9.120088542E0,1.083656291E1,1.188777534E0,3.965223806E0,1.160031411E1
9.130055542E0,1.037140287E1,1.167244577E0,3.776537665E0,1.109913033E1
9.140021542E0,9.728917830E0,1.065080271E0,3.475497276E0,1.038582300E1
9.149988542E0,9.246248889E0,8.929744953E-1,3.220453423E0,9.831675453E0
9.159955542E0,8.793257491E0,5.908155334E-1,2.879511634E0,9.271570932E0
9.169921542E0,8.375669230E0,1.561440468E-2,2.435594530E0,8.722625727E0
9.179888542E0,7.971947055E0,-9.351756048E-1,2.005455220E0,8.273351431E0
9.189855542E0,7.594944903E0,-2.049051476E0,1.758679916E0,8.060691972E0
9.199821542E0,7.141312650E0,-2.956797207E0,1.574181551E0,7.887904896E0
9.209788542E0,6.590249412E0,-3.472412869E0,1.519163345E0,7.602426962E0
9.219754542E0,6.092819175E0,-3.734440636E0,1.564507917E0,7.315475199E0
9.229721542E0,5.577243274E0,-3.972675498E0,1.708903738E0,7.057488585E0
9.239688250E0,5.180913150E0,-4.254232965E0,1.903289745E0,6.968706554E0
9.249654250E0,4.811075006E0,-4.316740285E0,2.109934439E0,6.799449443E0
9.259621250E0,4.496279041E0,-4.219783509E0,2.196819971E0,6.545923622E0
9.269587250E0,4.252955348E0,-4.160554723E0,2.216133324E0,6.348944141E0
9.279554250E0,3.988654768E0,-3.875325204E0,2.283497926E0,6.011811298E0
9.289521250E0,3.562064719E0,-3.381578713E0,2.334697316E0,5.438215811E0
9.299487250E0,3.046495834E0,-2.938977817E0,2.239885883E0,4.789135230E0
9.309454250E0,2.477757633E0,-2.599769728E0,2.074482186E0,4.147476566E0
9.319421250E0,1.841847787E0,-2.347583994E0,1.888730178E0,3.531409855E0
9.329387250E0,1.168043307E0,-2.157951189E0,1.660003474E0,2.962547896E0
9.339354250E0,4.733701140E-1,-2.092964650E0,1.344611678E0,2.532303468E0
9.349320250E0,-1.335316944E-1,-2.256363922E0,1.044518538E0,2.489985509E0
9.359287250E0,-7.497469479E-1,-2.414450998E0,8.849094307E-1,2.678574025E0
9.369254250E0,-1.437898157E0,-2.590106619E0,7.502819681E-1,3.055998436E0
9.379220250E0,-2.083745930E0,-2.855753812E0,5.900530565E-1,3.584060483E0
9.389187250E0,-2.743152811E0,-3.078378070E0,5.264891080E-1,4.156740269E0
9.399154250E0,-3.333647332E0,-3.271032131E0,4.283132243E-1,4.690022170E0
9.409120250E0,-3.891361778E0,-3.456284202E0,3.042008096E-1,5.213553021E0
9.419087250E0,-4.498475255E0,-3.656077129E0,2.425015382E-1,5.801895086E0
9.429053250E0,-5.002495889E0,-3.836716332E0,1.973014283E-1,6.307478512E0
9.439020250E0,-5.422908356E0,-4.051376389E0,1.796311426E-1,6.771547314E0
9.448987250E0,-5.762222865E0,-4.234634267E0,1.735664836E-1,7.153003917E0
9.458953250E0,-6.019997951E0,-4.432803715E0,1.840399432E-1,7.478234739E0
9.468920250E0,-6.282295275E0,-4.561897957E0,2.155312926E-1,7.766891310E0
9.478886250E0,-6.526403080E0,-4.699476217E0,2.484890505E-1,8.046164346E0
9.488853250E0,-6.748250535E0,-4.869186974E0,2.594204202E-1,8.325573014E0
9.498820250E0,-6.913376489E0,-5.064253596E0,2.474436414E-1,8.573369660E0
9.508786250E0,-7.012016094E0,-5.345026367E0,1.950332934E-1,8.819054062E0
9.518753250E0,-7.009005362E0,-5.755022019E0,1.212805716E-1,9.069792918E0
9.528720250E0,-6.906389651E0,-6.299746875E0,5.044451416E-2,9.348132078E0
9.538686250E0,-6.779437244E0,-6.819939737E0,1.854853749E-2,9.616272220E0
9.548653250E0,-6.701847616E0,-7.189679064E0,-3.907986581E-2,9.828925360E0
9.558619250E0,-6.642339333E0,-7.498911402E0,-1.235522515E-1,1.001846341E1
9.568586250E0,-6.620270187E0,-7.765250906E0,-2.071264317E-1,1.020637058E1
9.578553250E0,-6.607036183E0,-7.993453115E0,-1.893709228E-1,1.037227464E1
9.588519250E0,-6.650232489E0,-7.977549857E0,-1.596536187E-1,1.038712584E1
9.598486250E0,-6.653035060E0,-7.879083331E0,-1.087050380E-1,1.031283891E1
9.608453250E0,-6.432997903E0,-8.006185427E0,-1.840765614E-2,1.027048226E1
9.618419250E0,-5.943608172E0,-8.346793925E0,1.314284144E-1,1.024757144E1
9.628386250E0,-5.391988279E0,-8.694655893E0,2.407251906E-1,1.023369568E1
9.638352250E0,-4.974286582E0,-8.975190682E0,2.986997491E-1,1.026580714E1
9.648319250E0,-4.661456451E0,-9.140491469E0,2.953650820E-1,1.026474554E1
9.658286250E0,-4.463935168E0,-9.027869418E0,2.890009725E-1,1.007534937E1
9.668252250E0,-4.541990819E0,-8.351083442E0,3.090254203E-1,9.511349640E0
9.678219250E0,-4.775050310E0,-7.345088115E0,3.886012745E-1,8.769403391E0
9.688185250E0,-4.666913073E0,-6.571625445E0,5.219492932E-1,8.077052042E0
9.698152250E0,-4.203038837E0,-5.978433019E0,6.627133356E-1,7.338009662E0
9.708119250E0,-3.464225598E0,-5.637361422E0,6.769404153E-1,6.651236811E0
9.718085250E0,-2.482050658E0,-5.675570637E0,5.528537283E-1,6.219190041E0
9.728052250E0,-1.314331287E0,-6.055141472E0,4.243365330E-1,6.210657491E0
9.738019250E0,-1.690020740E-1,-6.620392978E0,1.997555778E-1,6.625561650E0
9.747985250E0,8.309595108E-1,-7.243748267E0,-1.647792149E-1,7.293115579E0
9.757952250E0,1.389027128E0,-7.657788438E0,-5.889010819E-1,7.804993568E0
9.767918250E0,1.473422331E0,-7.776435460E0,-1.011511590E0,7.979165215E0
9.777885250E0,1.282875606E0,-7.554710212E0,-1.223637464E0,7.759942322E0
9.787852250E0,1.013266339E0,-7.004093701E0,-1.192243836E0,7.176732029E0
9.797818250E0,5.812489039E-1,-6.137425829E0,-1.228374878E0,6.286075957E0
9.807785250E0,2.212048459E-1,-5.228687825E0,-1.093747416E0,5.346437259E0
9.817751250E0,2.555005199E-1,-4.421062213E0,-9.471582308E-1,4.528595844E0
9.827718250E0,6.531182009E-1,-3.620214109E0,-6.856603680E-1,3.742010652E0
9.837685250E0,1.246062706E0,-2.938122954E0,-3.758426499E-1,3.213486651E0
9.847651250E0,1.878426214E0,-2.337608644E0,-1.383692421E-2,2.998848225E0
9.857618250E0,2.468341277E0,-1.689264695E0,3.070126625E-1,3.006755834E0
9.867585250E0,2.968117417E0,-1.071772410E0,6.128840582E-1,3.214660785E0
9.877551250E0,3.413143153E0,-4.617674839E-1,8.988795984E-1,3.559601090E0
9.887518250E0,3.882500322E0,1.670947123E-1,1.210520405E0,4.070268916E0
9.897484250E0,4.268272714E0,9.154839367E-1,1.609474175E0,4.652598190E0
9.907451250E0,4.634834079E0,1.597679756E0,1.957685223E0,5.278901303E0
9.917418250E0,5.056079189E0,2.075919431E0,2.168909456E0,5.880267551E0
9.927384250E0,5.319938303E0,2.530184938E0,2.364154419E0,6.347661419E0
9.937351250E0,5.587956542E0,2.946703159E0,2.510447661E0,6.797842693E0
9.947317250E0,5.865003467E0,3.232291696E0,2.507646260E0,7.150822683E0
9.957284250E0,6.057119000E0,3.344267045E0,2.387552637E0,7.319372941E0
9.967251250E0,6.209720219E0,3.381613212E0,2.118781276E0,7.381406858E0
9.977217250E0,6.306109815E0,3.492547172E0,1.742746838E0,7.416338266E0
9.987184250E0,6.184297110E0,3.638436372E0,1.329322963E0,7.297317967E0
9.997151250E0,5.946096747E0,3.695045021E0,1.018128299E0,7.074320424E0
1.000711725E1,5.681028428E0,3.703278485E0,8.370242429E-1,6.832932395E0
1.001708425E1,5.381846868E0,3.688525375E0,7.665582776E-1,6.569406880E0
1.002705025E1,5.130615985E0,3.513753269E0,7.521051300E-1,6.263812302E0
1.003701725E1,4.942760149E0,3.285517146E0,9.404357600E-1,6.009153038E0
1.004698425E1,4.788472886E0,3.132588483E0,1.127594608E0,5.832156787E0
1.005695025E1,4.691649719E0,2.932317839E0,1.413690684E0,5.710392836E0
1.006691725E1,4.579077954E0,2.779518984E0,1.809002223E0,5.653863257E0
1.007688325E1,4.517337204E0,2.643729095E0,2.247902416E0,5.696376410E0
1.008685025E1,4.618931699E0,2.443302915E0,2.680507497E0,5.872765925E0
1.009681725E1,4.875442325E0,2.120887443E0,3.122058817E0,6.165659143E0
1.010678325E1,5.317352080E0,1.842126700E0,3.579242084E0,6.669230676E0
1.011675025E1,5.888529155E0,1.746258091E0,3.966382724E0,7.311387340E0
1.012671725E1,6.377383865E0,1.822176585E0,4.268785515E0,7.887577717E0
1.013668325E1,7.027806500E0,1.792448756E0,4.392133698E0,8.479019705E0
1.014665025E1,7.722085590E0,1.530442039E0,4.441922740E0,9.039000848E0
1.015661625E1,8.282388014E0,1.165834814E0,4.555012568E0,9.523930991E0
1.016658325E1,8.812236968E0,7.764681387E-1,4.518738781E0,9.933651057E0
1.017655025E1,9.094581470E0,7.029376477E-1,4.564156444E0,1.019985576E1
1.018651625E1,9.318117601E0,8.904011357E-1,4.653134694E0,1.045331490E1
1.019648325E1,9.521078550E0,1.136981728E0,4.615726547E0,1.064183235E1
1.020644925E1,9.765146009E0,1.299563559E0,4.546655728E0,1.084983964E1
1.021641625E1,1.011588656E1,1.091154175E0,4.224049637E0,1.101654999E1
1.022638325E1,1.034819995E1,5.529635829E-1,3.730462775E0,1.101396220E1
1.023634963E1,1.029415881E1,-2.980945623E-1,3.191328442E0,1.078161135E1
1.024631663E1,9.891914814E0,-1.392073528E0,2.718244257E0,1.035261799E1
1.025628362E1,9.315433145E0,-2.268622609E0,2.356809146E0,9.873119698E0
1.026624963E1,8.556189149E0,-2.789051700E0,1.985454819E0,9.215704692E0
1.027621662E1,7.667816412E0,-3.103488645E0,1.850771808E0,8.476579888E0
1.028618263E1,6.905299730E0,-3.451851135E0,1.987058126E0,7.971627225E0
1.029614962E1,6.343468260E0,-3.936638523E0,2.144245316E0,7.767528590E0
1.030611663E1,5.808657943E0,-4.261788152E0,2.255928304E0,7.549341552E0
1.031608262E1,5.403558165E0,-4.241364412E0,2.348323667E0,7.259630636E0
1.032604963E1,5.017102234E0,-3.869918284E0,2.372304268E0,6.765752721E0
1.033601563E1,4.496342776E0,-3.195271220E0,2.423981960E0,6.025159339E0
1.034598263E1,3.991683041E0,-2.489095969E0,2.455765085E0,5.306591599E0
1.035594963E1,3.450822610E0,-1.890389618E0,2.466381290E0,4.643790075E0
1.036591562E1,2.881708433E0,-1.478146881E0,2.414944503E0,4.039940426E0
1.037588263E1,2.351864741E0,-1.326611025E0,2.348727125E0,3.578782429E0
1.038584862E1,1.853124728E0,-1.324083858E0,2.320252354E0,3.251282871E0
1.039581563E1,1.319922395E0,-1.411790339E0,2.203879899E0,2.931285332E0
1.040578262E1,6.378780180E-1,-1.627592357E0,1.958595049E0,2.625269475E0
1.041574863E1,-8.662065268E-3,-2.124624984E0,1.714971394E0,2.730427299E0
1.042571562E1,-6.108211970E-1,-2.709599733E0,1.501395410E0,3.157407390E0
1.043568263E1,-1.297028207E0,-3.116768841E0,1.286955793E0,3.612863877E0
1.044564863E1,-1.950401346E0,-3.422535535E0,1.033235750E0,4.072516546E0
1.045561563E1,-2.520936397E0,-3.748569848E0,7.854973360E-1,4.585182907E0
1.046558163E1,-3.085918931E0,-4.086921613E0,6.119216430E-1,5.157545154E0
1.047554862E1,-3.695982914E0,-4.325247106E0,5.416462970E-1,5.715018193E0
1.048551563E1,-4.231815324E0,-4.562872980E0,4.709627787E-1,6.240983633E0
1.049548162E1,-4.653293738E0,-4.872292137E0,3.986210632E-1,6.749168248E0
1.050544863E1,-4.964839236E0,-5.229737400E0,3.659158319E-1,7.220365386E0
1.051541462E1,-5.156798648E0,-5.670994021E0,4.313823913E-1,7.677163294E0
1.052538163E1,-5.263957061E0,-5.979485518E0,4.448900441E-1,7.978810572E0
1.053534862E1,-5.356258283E0,-6.100758525E0,4.637724942E-1,8.131656799E0
1.054531463E1,-5.513640186E0,-6.210662205E0,5.453878937E-1,8.322860150E0
1.055528163E1,-5.600418713E0,-6.393243268E0,5.965878681E-1,8.520221026E0
1.056524762E1,-5.657698038E0,-6.612378784E0,5.869090452E-1,8.722245267E0
1.057521463E1,-5.618557945E0,-6.987392299E0,4.968870306E-1,8.979907642E0
1.058518162E1,-5.516921058E0,-7.496659055E0,3.815998185E-1,9.315682120E0
1.059514763E1,-5.436554587E0,-7.985261165E0,3.208577728E-1,9.665581792E0
1.060511462E1,-5.377864915E0,-8.329265726E0,3.447892570E-1,9.920533162E0
1.061508163E1,-5.339953322E0,-8.470311677E0,4.036789048E-1,1.002118945E1
1.062504762E1,-5.313098230E0,-8.442555529E0,4.320379372E-1,9.984608828E0
1.063501463E1,-5.322775372E0,-8.264524185E0,4.380915231E-1,9.840031598E0
1.064498063E1,-5.355578252E0,-8.020664302E0,4.418389670E-1,9.654454720E0
1.065494763E1,-5.376324173E0,-7.916728290E0,3.680343147E-1,9.576789529E0
1.066491463E1,-5.373828582E0,-8.028655107E0,1.891866624E-1,9.662977183E0
1.067488062E1,-5.481081719E0,-8.135004265E0,1.960520245E-2,9.809227063E0
1.068484763E1,-5.701180272E0,-8.122384220E0,-9.592240334E-2,9.924000353E0
1.069481362E1,-5.862135408E0,-8.194835899E0,-1.576222229E-1,1.007694456E1
1.070478063E1,-5.987393292E0,-8.341199893E0,-1.137808963E-1,1.026827348E1
1.071474762E1,-6.187518926E0,-8.230888077E0,2.666681170E-2,1.029726275E1
1.072471363E1,-6.441309135E0,-7.793018748E0,1.560586043E-1,1.011167439E1
1.073468062E1,-6.636716065E0,-7.268272074E0,3.551680648E-1,9.848853914E0
1.074464663E1,-6.554746288E0,-6.785258147E0,6.476804365E-1,9.456421996E0
1.075461363E1,-5.907425601E0,-6.603508558E0,8.220354903E-1,8.898300111E0
1.076458063E1,-4.814128422E0,-7.021017298E0,8.393083115E-1,8.554236073E0
1.077454663E1,-3.542316332E0,-7.833158129E0,6.806941085E-1,8.623787784E0
1.078451362E1,-2.299335694E0,-8.476608544E0,4.337563974E-1,8.793633018E0
1.079447963E1,-1.566024685E0,-8.597369335E0,2.668201447E-2,8.738873195E0
1.080444662E1,-1.383602082E0,-8.466794577E0,-4.885911472E-1,8.593002179E0
1.081441363E1,-1.447490514E0,-8.296288599E0,-9.316226904E-1,8.472989682E0
1.082437962E1,-1.620102074E0,-7.899677809E0,-1.291678150E0,8.166888799E0
1.083434663E1,-1.845343253E0,-7.180443971E0,-1.533438298E0,7.570700123E0
1.084431362E1,-1.911613841E0,-6.398910390E0,-1.749158310E0,6.903613289E0
1.085427963E1,-1.763437795E0,-5.566421247E0,-1.905591355E0,6.142152454E0
1.086424663E1,-1.359499859E0,-4.803608404E0,-1.925794508E0,5.350848348E0
1.087421262E1,-8.381048083E-1,-4.173146117E0,-1.816402313E0,4.627838107E0
1.088417963E1,-1.136815667E-1,-3.728364502E0,-1.710270671E0,4.103492552E0
1.089414662E1,7.569021857E-1,-3.480511848E0,-1.395911201E0,3.825628278E0
1.090411263E1,1.514141171E0,-2.973134912E0,-1.186491272E0,3.541174414E0
1.091407962E1,2.091077753E0,-2.338931869E0,-1.119498553E0,3.331138765E0
1.092404563E1,2.585663320E0,-1.872833353E0,-1.186031681E0,3.405852422E0
1.093401262E1,3.061771100E0,-1.452296340E0,-1.025785813E0,3.540599309E0
1.094397963E1,3.578128189E0,-9.448252648E-1,-5.577899478E-1,3.742569404E0
1.095394563E1,4.218533959E0,-3.392466813E-1,3.942368209E-2,4.232336388E0
1.096391263E1,5.005757466E0,2.044923341E-1,5.461099883E-1,5.039609215E0
1.097387863E1,5.743767298E0,7.108500999E-1,1.056501748E0,5.883227565E0
1.098384562E1,6.481507573E0,1.196735010E0,1.532101479E0,6.766790232E0
1.099381263E1,7.137769822E0,1.659052716E0,1.912347667E0,7.573459417E0
1.100377862E1,7.687779976E0,2.044590050E0,2.294397136E0,8.279285455E0
1.101374563E1,8.095928493E0,2.390360470E0,2.471591159E0,8.795831069E0
1.102371162E1,8.231524839E0,2.715620027E0,2.537965828E0,9.031825056E0
1.103367863E1,8.154184302E0,3.094359972E0,2.416116870E0,9.050050055E0
1.104364562E1,7.858196492E0,3.513672577E0,2.010721223E0,8.839691562E0
1.105361163E1,7.399298821E0,3.702880874E0,1.403166865E0,8.392248034E0
1.106357862E1,6.989876196E0,3.561801594E0,8.904286176E-1,7.895420379E0
1.107354463E1,6.619259788E0,3.287851939E0,4.604073850E-1,7.405170185E0
1.108351163E1,6.430647322E0,2.970965011E0,9.033597350E-2,7.084350264E0
1.109347862E1,6.394690454E0,2.543099098E0,-2.678890888E-1,6.887030099E0
1.110344463E1,6.316833608E0,2.097412042E0,-3.883674590E-1,6.667259811E0
1.111341162E1,6.300813407E0,1.802935737E0,-3.709918729E-1,6.564180210E0
1.112337863E1,6.279883883E0,1.699509017E0,-1.880944756E-1,6.508506128E0
1.113334462E1,6.360090140E0,1.680250627E0,1.218477881E-1,6.579425176E0
1.114331163E1,6.581436489E0,1.582327307E0,5.194087511E-1,6.788877036E0
1.115327762E1,6.882325435E0,1.445939832E0,1.104983498E0,7.118857628E0
1.116324463E1,7.279098194E0,1.503392819E0,1.755764494E0,7.637288095E0
1.117321162E1,7.839087206E0,1.419852480E0,2.236435441E0,8.274594417E0
1.118317763E1,8.521782378E0,9.915345776E-1,2.554385394E0,8.951469179E0
1.119314463E1,8.853228289E0,7.216463989E-1,2.892661437E0,9.341729757E0
1.120311062E1,8.841952518E0,6.529544789E-1,3.242712604E0,9.440426840E0
1.121307763E1,8.752375513E0,5.807694322E-1,3.630700505E0,9.493332208E0
1.122304462E1,8.602268132E0,5.040527934E-1,3.894809296E0,9.456353720E0
1.123301063E1,8.431393780E0,4.819953418E-1,4.106698358E0,9.390723720E0
1.124297817E1,8.370607880E0,5.338431877E-1,4.272221339E0,9.412966588E0
1.125294417E1,8.364728504E0,5.482694381E-1,4.302374260E0,9.422298372E0
1.126291117E1,8.375516033E0,4.008757496E-1,4.090620854E0,9.329691804E0
1.127287817E1,8.162276264E0,-2.347540140E-2,3.705240226E0,8.963933848E0
1.128284417E1,7.811800590E0,-7.241361433E-1,3.225310705E0,8.482407132E0
1.129281117E1,7.419839505E0,-1.599161441E0,2.692673798E0,8.053684112E0
1.130277717E1,6.928154157E0,-2.372673812E0,2.385009683E0,7.701764229E0
1.131274417E1,6.314104128E0,-2.894402738E0,2.258813905E0,7.303952246E0
1.132271117E1,5.694700972E0,-3.234366288E0,2.172314290E0,6.899977813E0
1.133267717E1,5.071621088E0,-3.551889394E0,2.172869775E0,6.561906871E0
1.134264417E1,4.649063278E0,-3.981994790E0,2.184418611E0,6.499365856E0
1.135261017E1,4.211924266E0,-4.343891246E0,2.124584638E0,6.412765165E0
1.136257717E1,3.641487449E0,-4.369083974E0,2.138587550E0,6.076420190E0
1.137254417E1,3.120701094E0,-4.229982807E0,2.124416238E0,5.669627344E0
1.138251017E1,2.644107994E0,-3.915898449E0,2.121271605E0,5.179320513E0
1.139247717E1,2.190969831E0,-3.412381260E0,2.113683089E0,4.573002391E0
1.140244317E1,1.733391293E0,-2.881914255E0,2.093130126E0,3.961220629E0
1.141241017E1,1.345748377E0,-2.385905476E0,2.021128097E0,3.404194827E0
1.142237717E1,1.037918200E0,-1.885003163E0,1.887643765E0,2.862465737E0
1.143234317E1,6.916911131E-1,-1.376936256E0,1.659900563E0,2.264875256E0
1.144231017E1,3.415843982E-1,-1.038012925E0,1.315918221E0,1.710494519E0
1.145227617E1,-3.317710161E-2,-9.019698519E-1,9.532353882E-1,1.312748277E0
1.146224317E1,-4.512530208E-1,-8.488560838E-1,7.057051349E-1,1.192562651E0
1.147221017E1,-8.699616086E-1,-8.833909088E-1,4.722375083E-1,1.326733192E0
1.148217617E1,-1.334426413E0,-1.001613423E0,2.271819428E-1,1.683904670E0
1.149214317E1,-1.807024110E0,-1.233744961E0,1.200141013E-2,2.188060053E0
1.150210917E1,-2.235525615E0,-1.605269735E0,-1.778326122E-1,2.757914091E0
1.151207617E1,-2.612768088E0,-2.112490549E0,-3.064759612E-1,3.373885137E0
1.152204317E1,-3.060798708E0,-2.551233745E0,-3.939479685E-1,4.004057611E0
1.153200917E1,-3.560845574E0,-2.878279626E0,-4.315466615E-1,4.598950677E0
1.154197617E1,-4.065749722E0,-3.218303694E0,-4.194033102E-1,5.202278213E0
1.155194217E1,-4.538449745E0,-3.585880428E0,-3.896017331E-1,5.797228135E0
1.156190917E1,-4.896928504E0,-4.009807071E0,-4.208996127E-1,6.343155209E0
1.157187617E1,-5.192632724E0,-4.519625804E0,-3.234387338E-1,6.891666317E0
1.158184217E1,-5.393744783E0,-5.030147372E0,-2.672037951E-1,7.380126234E0
1.159180917E1,-5.532242517E0,-5.474822860E0,-2.798325384E-1,7.788305263E0
1.160177517E1,-5.719993104E0,-5.887989457E0,-2.848248911E-1,8.213882527E0
1.161174217E1,-5.868080857E0,-6.354984351E0,-3.039055252E-1,8.655204077E0
1.162170917E1,-5.969844044E0,-6.855413041E0,-3.756895260E-1,9.098179405E0
1.163167517E1,-6.062374477E0,-7.346718319E0,-4.800931694E-1,9.537145475E0
1.164164217E1,-6.184316990E0,-7.761563067E0,-5.551907873E-1,9.939611395E0
1.165160817E1,-6.365471333E0,-8.041104999E0,-5.861944789E-1,1.027240083E1
1.166157517E1,-6.612134956E0,-8.166293886E0,-6.391410166E-1,1.052697420E1
1.167154217E1,-6.958519918E0,-8.003070030E0,-6.631198633E-1,1.062590501E1
1.168150817E1,-7.370452167E0,-7.669895682E0,-5.799538187E-1,1.065303766E1
1.169147517E1,-7.725285771E0,-7.340795090E0,-5.098446067E-1,1.066898563E1
1.170144117E1,-7.865401431E0,-7.222017090E0,-3.676607142E-1,1.068443938E1
1.171140817E1,-7.635432193E0,-7.420996084E0,-1.857942541E-1,1.064920312E1
1.172137517E1,-7.169084585E0,-7.790046608E0,9.076282024E-2,1.058720161E1
1.173134117E1,-6.671897593E0,-8.196301796E0,3.626074773E-1,1.057473710E1
1.174130817E1,-6.214106215E0,-8.536841882E0,4.945178850E-1,1.057058813E1
1.175127417E1,-5.892282482E0,-8.590960786E0,5.393066798E-1,1.043141658E1
1.176124117E1,-5.781232747E0,-8.058956548E0,6.560833240E-1,9.939812777E0
1.177120817E1,-5.818197675E0,-7.174386840E0,8.125526221E-1,9.272728427E0
1.178117417E1,-5.779856313E0,-6.208289405E0,9.131314556E-1,8.531319089E0
1.179114117E1,-5.417407880E0,-5.460079690E0,9.862943029E-1,7.754582826E0
1.180110717E1,-4.663079638E0,-5.121990173E0,9.897921073E-1,6.997055342E0
1.181107417E1,-3.440989348E0,-5.287577473E0,8.837832570E-1,6.370239875E0
1.182104117E1,-1.703924249E0,-5.925264287E0,7.062220287E-1,6.205712229E0
1.183100717E1,2.501333606E-1,-6.735914079E0,3.733317094E-1,6.750887478E0
1.184097417E1,1.744384058E0,-7.378293868E0,-9.281643547E-2,7.582262923E0
1.185094017E1,2.429878292E0,-7.745296698E0,-5.731820121E-1,8.137718788E0
1.186090717E1,2.558639828E0,-7.964335735E0,-9.587292858E-1,8.420002572E0
1.187087417E1,2.326072673E0,-7.991472663E0,-1.294116293E0,8.423122128E0
1.188084017E1,1.843400223E0,-7.496605260E0,-1.489104563E0,7.862229150E0
1.189080717E1,1.277162876E0,-6.424195504E0,-1.461036758E0,6.710891245E0
1.190077317E1,9.320724875E-1,-5.163827001E0,-1.281222598E0,5.401425716E0
1.191074017E1,9.009378183E-1,-3.997506868E0,-1.138703148E0,4.253045376E0
1.192070717E1,1.383950576E0,-3.136646451E0,-9.122392436E-1,3.547682425E0
1.193067317E1,2.098718895E0,-2.533445345E0,-6.613580972E-1,3.355646115E0
1.194064017E1,2.737926570E0,-2.052793694E0,-4.701243246E-1,3.454159917E0
1.195060617E1,3.254885922E0,-1.453844098E0,-2.485464263E-1,3.573474549E0
1.196057317E1,3.640817358E0,-7.664056653E-1,6.224532824E-2,3.721129285E0
1.197054017E1,3.949111218E0,-9.727077127E-2,3.816191143E-1,3.968699304E0
1.198050617E1,4.045509585E0,6.037712091E-1,7.204992483E-1,4.153288654E0
1.199047317E1,4.140057893E0,1.283033481E0,1.112066742E0,4.474700739E0
1.200043917E1,4.305749273E0,1.836083018E0,1.433657171E0,4.895513307E0
1.201040617E1,4.490047663E0,2.373070253E0,1.722239483E0,5.362657856E0
1.202037317E1,4.606583256E0,2.902633864E0,1.869008104E0,5.756655621E0
1.203033917E1,4.699082115E0,3.425701802E0,1.931206691E0,6.127508861E0
1.204030617E1,4.825089612E0,3.856929279E0,1.854926255E0,6.449662366E0
1.205027217E1,4.912219557E0,4.166079172E0,1.584507149E0,6.633006826E0
1.206023917E1,4.887472971E0,4.412241104E0,1.151709110E0,6.684436960E0
1.207020617E1,4.770484804E0,4.576325085E0,6.862170229E-1,6.646139507E0
1.208017217E1,4.616160411E0,4.657085073E0,2.535954239E-1,6.562140577E0
1.209013917E1,4.400606314E0,4.710373088E0,-9.886640333E-2,6.446915939E0
1.210010517E1,4.135736216E0,4.744250101E0,-3.554546515E-1,6.303853669E0
1.211007217E1,3.874154007E0,4.724286538E0,-5.575646838E-1,6.135049383E0
1.212003917E1,3.585091639E0,4.654273732E0,-6.297153050E-1,5.908611291E0
1.213000517E1,3.399425000E0,4.442448404E0,-7.166394281E-1,5.639593090E0
1.213997217E1,3.350732019E0,4.065397135E0,-6.045314202E-1,5.302859339E0
1.214993817E1,3.375166072E0,3.681115783E0,-3.972370273E-1,5.010005657E0
1.215990517E1,3.567309086E0,3.195555979E0,-9.560833476E-2,4.790241443E0
1.216987217E1,3.869804848E0,2.628844423E0,3.694486465E-1,4.692835482E0
1.217983817E1,4.183309747E0,2.139443582E0,9.802781028E-1,4.799817126E0
1.218980517E1,4.660434358E0,1.704523004E0,1.640874308E0,5.226616073E0
1.219977117E1,5.249638399E0,1.466991563E0,2.419657359E0,5.963682528E0
1.220973817E1,5.799021147E0,1.388810781E0,3.051626181E0,6.698497145E0
1.221970517E1,6.471280793E0,1.300168746E0,3.456464004E0,7.450842723E0
1.222967117E1,7.038018662E0,1.150240290E0,3.754073832E0,8.059145720E0
1.223963825E1,7.724873543E0,5.078739488E-1,3.978831446E0,8.704177553E0
1.224960425E1,8.160495787E0,-1.993853760E-1,4.211127291E0,9.185153187E0
1.225957125E1,8.331480651E0,-5.410200602E-1,4.404329821E0,9.439512367E0
1.226953825E1,8.430304443E0,-6.352970570E-1,4.608493541E0,9.628699189E0
1.227950425E1,8.436984887E0,-5.369392884E-1,4.639144646E0,9.643271272E0
1.228947125E1,8.315072780E0,-1.912378657E-1,4.611018369E0,9.509915754E0
1.229943725E1,8.073426068E0,2.883554399E-1,4.531702058E0,9.262811716E0
1.230940425E1,7.991994234E0,6.477522111E-1,4.464673086E0,9.177410339E0
1.231937125E1,8.057907557E0,5.204144722E-1,4.198279788E0,9.100893286E0
1.232933725E1,8.065341707E0,-2.595397764E-1,3.808845870E0,8.923250788E0
1.233930425E1,7.839607608E0,-1.176543989E0,3.549824742E0,8.685905762E0
1.234927025E1,7.418075985E0,-1.942196533E0,3.227651930E0,8.319718485E0
1.235923725E1,6.865204203E0,-2.745465969E0,2.848962856E0,7.923711346E0
1.236920425E1,6.184219342E0,-3.489997201E0,2.541162500E0,7.542026000E0
1.237917025E1,5.407431945E0,-4.005301207E0,2.286812713E0,7.107198490E0
1.238913725E1,4.581511565E0,-4.276690950E0,2.064699794E0,6.598736163E0
1.239910325E1,3.844809170E0,-4.369669281E0,1.950301943E0,6.138423645E0
1.240907025E1,3.241241444E0,-4.393990189E0,1.883761799E0,5.775928878E0
1.241903725E1,2.759496948E0,-4.317753607E0,1.746844566E0,5.413805090E0
1.242900325E1,2.353371568E0,-4.038619811E0,1.604253781E0,4.941906303E0
1.243897025E1,2.024608360E0,-3.562152427E0,1.576975935E0,4.390310014E0
1.244893625E1,1.764120165E0,-2.970018931E0,1.628233797E0,3.818936724E0
1.245890325E1,1.429879870E0,-2.255085720E0,1.714986012E0,3.173506746E0
1.246887025E1,1.089988825E0,-1.566298335E0,1.707992742E0,2.560977415E0
1.247883625E1,7.907131255E-1,-1.001060861E0,1.621485525E0,2.063144543E0
1.248880325E1,4.729333270E-1,-5.735259014E-1,1.460955482E0,1.639203713E0
1.249876925E1,1.814081115E-1,-3.398553765E-1,1.228014105E0,1.287023396E0
1.250873625E1,-1.318120283E-1,-2.123153239E-1,9.493819269E-1,9.817220842E-1
1.251870225E1,-5.233374953E-1,-2.184665948E-1,6.097301066E-1,8.326947760E-1
1.252866925E1,-9.667868221E-1,-4.038975906E-1,2.571827638E-1,1.078866533E0
1.253863625E1,-1.434661138E0,-6.787377763E-1,1.770653844E-2,1.587214879E0
1.254860225E1,-1.922078018E0,-9.692461610E-1,-1.130324527E-1,2.155596986E0
1.255856925E1,-2.434888771E0,-1.345910052E0,-4.268245232E-1,2.814664522E0
1.256853525E1,-2.956561564E0,-1.756766122E0,-5.568899882E-1,3.483907282E0
1.257850225E1,-3.506883960E0,-2.192915785E0,-5.828042632E-1,4.176933750E0
1.258846925E1,-4.039099867E0,-2.576750117E0,-5.580151387E-1,4.823416818E0
1.259843525E1,-4.481447579E0,-2.963895434E0,-5.133796871E-1,5.397370401E0
1.260840225E1,-4.847866856E0,-3.401277106E0,-4.143616947E-1,5.936513675E0
1.261836825E1,-5.207404545E0,-3.806952834E0,-2.662167120E-1,6.456068720E0
1.262833525E1,-5.506729946E0,-4.160431931E0,-6.807438098E-2,6.902021637E0
1.263830225E1,-5.729010095E0,-4.492202947E0,8.057689749E-2,7.280654958E0
1.264826825E1,-5.943143903E0,-4.816709675E0,2.917655361E-1,7.655506428E0
1.265823525E1,-6.125382904E0,-5.099633344E0,5.595516407E-1,7.989973342E0
1.266820125E1,-6.184115261E0,-5.379744794E0,7.784607967E-1,8.233525176E0
1.267816825E1,-6.104700133E0,-5.742552246E0,9.040537264E-1,8.429803269E0
1.268813525E1,-5.972637843E0,-6.189021660E0,9.760054692E-1,8.656152644E0
1.269810125E1,-5.906223999E0,-6.592016441E0,9.779175087E-1,8.904745102E0
1.270806825E1,-5.910720508E0,-6.908519207E0,9.090315342E-1,9.137318692E0
1.271803425E1,-5.891933988E0,-7.129597753E0,8.780201682E-1,9.290692636E0
1.272800125E1,-5.809587650E0,-7.213761991E0,8.593185067E-1,9.302048109E0
1.273796825E1,-5.686901371E0,-7.261072397E0,8.590179598E-1,9.262933198E0
1.274793425E1,-5.635766301E0,-7.235307226E0,8.567802304E-1,9.211167397E0
1.275790125E1,-5.613200727E0,-7.018934519E0,8.556254053E-1,9.028042923E0
1.276786725E1,-5.486734807E0,-6.829759551E0,8.034856372E-1,8.797469156E0
1.277783425E1,-5.234764836E0,-6.899392873E0,7.096122444E-1,8.689530163E0
1.278780025E1,-4.971086401E0,-7.046631026E0,5.629892919E-1,8.641971173E0
1.279776725E1,-4.806035875E0,-7.229985090E0,3.376521456E-1,8.688191654E0
1.280773425E1,-4.667643975E0,-7.468311753E0,1.211993319E-1,8.807795979E0
1.281770025E1,-4.500320052E0,-7.514265021E0,-9.767305970E-2,8.759372090E0
1.282766725E1,-4.530381757E0,-7.091655171E0,-2.638075130E-1,8.419354270E0
1.283763325E1,-4.789897560E0,-6.230574313E0,-3.574907251E-1,7.867081703E0
1.284760025E1,-4.827664726E0,-5.382348559E0,-4.688579638E-1,7.245402025E0
1.285756725E1,-4.559683324E0,-4.675404400E0,-5.921497218E-1,6.557496444E0
1.286753325E1,-4.012817802E0,-4.243510340E0,-6.865625203E-1,5.880599869E0
1.287750025E1,-3.148651954E0,-4.341719005E0,-7.837158356E-1,5.420216191E0
1.288746625E1,-1.997864950E0,-4.817252881E0,-9.418743213E-1,5.299482703E0
1.289743325E1,-6.314080739E-1,-5.545710994E0,-1.240808982E0,5.717796211E0
1.290740025E1,4.419553632E-1,-6.417821454E0,-1.580116621E0,6.624237715E0
1.291736625E1,1.014200724E0,-7.180550390E0,-1.840771315E0,7.481800990E0
1.292733325E1,1.087777408E0,-7.582671597E0,-1.879395683E0,7.887477187E0
1.293729925E1,8.679794025E-1,-7.595813214E0,-2.103967209E0,7.929466858E0
1.294726625E1,5.173920465E-1,-7.218071973E0,-2.078384618E0,7.529139404E0
1.295723325E1,4.114919543E-2,-6.322041138E0,-1.848325918E0,6.586820637E0
1.296719925E1,-2.017295247E-1,-5.105739591E0,-1.633046640E0,5.364337135E0
1.297716625E1,-1.406530184E-1,-3.945795555E0,-1.466326004E0,4.211792704E0
1.298713225E1,2.837203521E-1,-3.047049858E0,-1.203155325E0,3.288250722E0
1.299709925E1,7.723078448E-1,-2.209924166E0,-1.053237979E0,2.567008856E0
1.300706525E1,1.221172278E0,-1.482405408E0,-9.859282672E-1,2.158898347E0
1.301703225E1,1.656182318E0,-8.110193360E-1,-8.581245053E-1,2.033978835E0
1.302699925E1,1.986962231E0,-1.364061856E-1,-7.140602213E-1,2.115775876E0
1.303696525E1,2.232700240E0,4.605717283E-1,-5.640973393E-1,2.348463857E0
1.304693225E1,2.376340601E0,1.002509217E0,-3.862180225E-1,2.607907924E0
1.305689825E1,2.401971286E0,1.512308069E0,-1.655365024E-1,2.843227759E0
1.306686525E1,2.461761405E0,2.059906831E0,1.186400056E-2,3.209926187E0
1.307683225E1,2.516377323E0,2.552939962E0,8.469165623E-2,3.585642196E0
1.308679825E1,2.645969163E0,2.800451431E0,8.648967505E-2,3.853720474E0
1.309676525E1,2.721740307E0,2.929317632E0,3.604216419E-2,3.998758698E0
1.310673125E1,2.681948835E0,3.066779240E0,-1.224991679E-2,4.074080820E0
1.311669825E1,2.647657254E0,3.098569967E0,5.980459079E-3,4.075691419E0
1.312666525E1,2.709168209E0,3.028132653E0,1.120618880E-1,4.064694037E0
1.313663125E1,2.886190909E0,2.958889925E0,2.578756589E-1,4.141452331E0
1.314659825E1,2.931692771E0,3.068377869E0,4.572679784E-1,4.268355568E0
1.315656425E1,2.918188627E0,3.190383532E0,6.883699677E-1,4.378153167E0
1.316653125E1,2.904665771E0,3.268450293E0,9.275011343E-1,4.469911511E0
1.317649825E1,2.935343773E0,3.358774572E0,1.145113524E0,4.605311572E0
1.318646425E1,3.095622970E0,3.349890897E0,1.305234774E0,4.744290085E0
1.319643125E1,3.445996318E0,3.118178020E0,1.426216589E0,4.861277461E0
1.320639725E1,3.853915624E0,2.746944146E0,1.603589537E0,4.996985809E0
1.321636425E1,4.228833829E0,2.399399680E0,1.872145135E0,5.210094221E0
1.322633025E1,4.635279052E0,1.997467924E0,2.169352675E0,5.493794774E0
1.323629725E1,5.058000584E0,1.580042215E0,2.528471119E0,5.871377139E0
1.324626450E1,5.699497443E0,1.114398027E0,2.955035441E0,6.516010169E0
1.325623050E1,6.385576399E0,7.266902071E-1,3.490156245E0,7.313334070E0
1.326619750E1,7.141439534E0,3.712560940E-1,3.914578732E0,8.152417823E0
1.327616350E1,7.914073069E0,1.299742484E-1,4.125782501E0,8.925890829E0
1.328613050E1,8.570342335E0,1.210461348E-1,4.323114334E0,9.599725905E0
1.329609750E1,9.208312154E0,4.778344631E-2,4.571036278E0,1.028054807E1
1.330606350E1,9.849439470E0,-1.652604407E-1,4.731544687E0,1.092823334E1
1.331603050E1,1.024036677E1,-1.878464806E-1,4.717034236E0,1.127611679E1
1.332599650E1,1.032612203E1,7.262885034E-2,4.719609350E0,1.135380040E1
1.333596350E1,1.022353380E1,3.106730926E-1,4.837109441E0,1.131436206E1
1.334593050E1,9.973600416E0,3.501482302E-1,4.841147236E0,1.109197979E1
1.335589650E1,9.563624060E0,2.999773657E-1,4.812798765E0,1.071055197E1
1.336586350E1,9.049829805E0,3.208221048E-1,4.649915217E0,1.017959026E1
1.337582950E1,8.495541244E0,3.881674111E-1,4.264168553E0,9.513570750E0
1.338579650E1,7.987270269E0,3.915237129E-1,3.776141224E0,8.843586360E0
1.339576250E1,7.500402442E0,1.667333543E-1,3.300724000E0,8.196256202E0
1.340572950E1,7.012322488E0,-2.532908571E-1,2.791305217E0,7.551702308E0
1.341569650E1,6.531071497E0,-7.796583796E-1,2.319270022E0,6.974365600E0
1.342566250E1,6.045000061E0,-1.389577936E0,1.960932181E0,6.505244622E0
1.343562950E1,5.565724844E0,-2.036627896E0,1.680742963E0,6.160360633E0
1.344559550E1,5.097370471E0,-2.596683567E0,1.504050046E0,5.915075470E0
1.345556250E1,4.675627763E0,-2.953929148E0,1.329799511E0,5.688194716E0
1.346552950E1,4.032933978E0,-2.995908063E0,1.160546007E0,5.156247534E0
1.347549550E1,3.492327316E0,-2.974586776E0,1.013291555E0,4.698007700E0
1.348546250E1,3.110209435E0,-2.948028722E0,8.608026031E-1,4.370956096E0
1.349542850E1,2.720869072E0,-2.760496822E0,7.261926822E-1,3.943453692E0
1.350539550E1,2.321444017E0,-2.490924978E0,6.669427729E-1,3.469671775E0
1.351536250E1,1.978817645E0,-2.213940618E0,7.313685644E-1,3.058128890E0
1.352532850E1,1.682175531E0,-1.832247244E0,7.866311842E-1,2.608760836E0
1.353529550E1,1.390811114E0,-1.402482741E0,7.366631451E-1,2.108076370E0
1.354526150E1,1.134264527E0,-1.103483614E0,7.296950912E-1,1.742609259E0
1.355522850E1,8.437462020E-1,-8.577046752E-1,7.885847390E-1,1.438551651E0
1.356519450E1,5.088381547E-1,-6.528129762E-1,7.863464248E-1,1.141674975E0
1.357516150E1,1.749615562E-1,-6.028783393E-1,6.783425776E-1,9.242415759E-1
1.358512850E1,-1.843878525E-1,-6.787173110E-1,5.387249915E-1,8.859349214E-1
1.359509450E1,-6.229565084E-1,-8.402203310E-1,3.708380181E-1,1.109759367E0
1.360506150E1,-1.098187206E0,-1.131033356E0,2.454321992E-1,1.595458729E0
1.361502750E1,-1.540072403E0,-1.495813658E0,1.707351156E-1,2.153701926E0
1.362499450E1,-2.008498111E0,-1.856551488E0,1.416581182E-1,2.738779859E0
1.363496150E1,-2.520421257E0,-2.162024360E0,1.927060284E-1,3.326260401E0
1.364492750E1,-3.020017887E0,-2.464458141E0,2.704418369E-1,3.907326548E0
1.365489450E1,-3.467766672E0,-2.827169114E0,3.599756090E-1,4.488638249E0
1.366486050E1,-3.884229929E0,-3.174950683E0,4.525516508E-1,5.037098071E0
1.367482750E1,-4.304239522E0,-3.486397363E0,5.590476108E-1,5.567223605E0
1.368479450E1,-4.642899143E0,-3.797316038E0,6.691044885E-1,6.035215188E0
1.369476050E1,-4.910142041E0,-4.096789959E0,7.729504538E-1,6.441322476E0
1.370472750E1,-5.143379872E0,-4.384034720E0,8.641284263E-1,6.813283707E0
1.371469350E1,-5.353893085E0,-4.673787645E0,9.500094062E-1,7.170145046E0
1.372466050E1,-5.508073636E0,-5.004552940E0,9.872818977E-1,7.507273197E0
1.373462650E1,-5.593604368E0,-5.369439662E0,9.944277799E-1,7.817172041E0
1.374459350E1,-5.601900398E0,-5.825601420E0,9.700185782E-1,8.140015725E0
1.375456050E1,-5.570323679E0,-6.324138535E0,9.195600307E-1,8.477548274E0
1.376452650E1,-5.532330810E0,-6.774808003E0,8.161929524E-1,8.784695704E0
1.377449350E1,-5.523659390E0,-7.122329664E0,7.300389075E-1,9.042751224E0
1.378445950E1,-5.553027615E0,-7.342079138E0,6.393684733E-1,9.227731780E0
1.379442650E1,-5.655584269E0,-7.391523778E0,5.958125274E-1,9.326052207E0
1.380439350E1,-5.754178265E0,-7.399083644E0,5.758267808E-1,9.390877635E0
1.381435950E1,-5.832861323E0,-7.379215389E0,5.612327152E-1,9.422848462E0
1.382432650E1,-5.953889916E0,-7.213183116E0,6.008283420E-1,9.372289501E0
1.383429250E1,-6.061423720E0,-6.932689258E0,6.285300744E-1,9.230281031E0
1.384425950E1,-6.121139579E0,-6.656652732E0,7.765020525E-1,9.076471274E0
1.385422550E1,-5.943556132E0,-6.387207772E0,9.344031876E-1,8.774701814E0
1.386419250E1,-5.604033462E0,-6.268225704E0,1.025374680E0,8.470374121E0
1.387415950E1,-5.137770054E0,-6.427075258E0,9.911626216E-1,8.287724708E0
1.388412550E1,-4.762870560E0,-6.413239576E0,8.012433761E-1,8.028484837E0
1.389409250E1,-4.592171624E0,-6.172649456E0,5.006357536E-1,7.709752116E0
1.390405850E1,-4.242429775E0,-6.099921788E0,1.639191625E-1,7.431966476E0
1.391402550E1,-3.903733317E0,-6.048493187E0,-1.093639096E-1,7.199678056E0
1.392399250E1,-3.740438125E0,-5.713962870E0,-3.219639198E-1,6.836951793E0
1.393395850E1,-3.572386224E0,-5.199158217E0,-5.688136303E-1,6.333777581E0
1.394392550E1,-3.336310739E0,-4.706419786E0,-7.688446120E-1,5.820006751E0
1.395389150E1,-2.998396053E0,-4.361574395E0,-9.220186387E-1,5.372506721E0
1.396385850E1,-2.568719843E0,-4.130833618E0,-1.054139546E0,4.977280200E0
1.397382450E1,-1.978477337E0,-4.015615110E0,-1.141199398E0,4.619726545E0
1.398379150E1,-1.263568100E0,-4.204451525E0,-1.283474361E0,4.573983319E0
1.399375850E1,-4.393527675E-1,-4.741991322E0,-1.467730651E0,4.983346849E0
1.400372450E1,3.483233142E-1,-5.457163099E0,-1.682769023E0,5.721334618E0
1.401369150E1,8.914466178E-1,-6.104903616E0,-1.748951464E0,6.412749524E0
1.402365750E1,1.088288455E0,-6.402778323E0,-1.943297564E0,6.779111109E0
1.403362450E1,1.109065951E0,-6.330689170E0,-1.852295008E0,6.688695646E0
1.404359150E1,9.416420406E-1,-5.820378102E0,-1.589082010E0,6.106445170E0
1.405355750E1,7.918375450E-1,-5.086481202E0,-1.178617485E0,5.280950377E0
1.406352450E1,7.729516232E-1,-4.169934241E0,-7.828801954E-1,4.312621846E0
1.407349050E1,7.888268137E-1,-3.123437591E0,-5.450085191E-1,3.267283950E0
1.408345750E1,9.106798643E-1,-2.200385018E0,-2.884426365E-1,2.398797865E0
1.409342350E1,1.122068405E0,-1.403445193E0,8.354552887E-2,1.798798424E0
1.410339050E1,1.426476206E0,-7.336431313E-1,3.513784113E-1,1.642112480E0
1.411335750E1,1.802783709E0,-1.566942698E-1,4.864449998E-1,1.873822546E0
1.412332350E1,2.071796560E0,3.885948426E-1,6.353059009E-1,2.201581369E0
1.413329050E1,2.281190615E0,9.251985008E-1,8.134329935E-1,2.592584834E0
1.414325650E1,2.466170205E0,1.403362162E0,9.368846729E-1,2.988172306E0
1.415322350E1,2.506038276E0,1.848954493E0,1.168052590E0,3.326140017E0
1.416318950E1,2.481378813E0,2.209769799E0,1.370765689E0,3.594345831E0
1.417315650E1,2.456090775E0,2.474310699E0,1.500138259E0,3.795393277E0
1.418312350E1,2.404520672E0,2.600935078E0,1.551422433E0,3.866974852E0
1.419308950E1,2.334644691E0,2.656236289E0,1.465605042E0,3.828074607E0
1.420305650E1,2.247155727E0,2.723007984E0,1.261233891E0,3.749025509E0
1.421302250E1,2.219925828E0,2.740103488E0,1.164283474E0,3.713730445E0
1.422298950E1,2.269647042E0,2.715011916E0,1.190280341E0,3.733544521E0
1.423295650E1,2.409870290E0,2.759470636E0,1.224910403E0,3.862972754E0
1.424292138E1,2.605301778E0,2.845241103E0,1.333738927E0,4.081893411E0
1.425288838E1,2.913254746E0,2.987885098E0,1.541126071E0,4.448548094E0
1.426285437E1,3.206767430E0,3.201914241E0,1.730082353E0,4.850649143E0
1.427282138E1,3.498773287E0,3.432129647E0,1.930164133E0,5.267491054E0
1.428278737E1,3.851596618E0,3.559683732E0,2.060316136E0,5.634806773E0
1.429275438E1,4.225517873E0,3.563420103E0,2.142619790E0,5.928219268E0
1.430272137E1,4.576858058E0,3.492606229E0,2.280840366E0,6.192589178E0
1.431268738E1,4.835752594E0,3.371815032E0,2.502866161E0,6.404527991E0
1.432265437E1,5.180906718E0,3.109278558E0,2.808418847E0,6.663079167E0
1.433262038E1,5.686975631E0,2.839425462E0,3.064657871E0,7.056639189E0
1.434258738E1,6.171733782E0,2.570479855E0,3.432310910E0,7.515212755E0
1.435255438E1,6.768313501E0,2.103185583E0,3.837888991E0,8.059953421E0
1.436252038E1,7.604280567E0,1.463713614E0,4.095102160E0,8.759988709E0
1.437248737E1,8.495164098E0,1.193793860E0,4.239375190E0,9.568973761E0
1.438245338E1,9.347040854E0,1.348568489E0,4.234807345E0,1.034985038E1
1.439242037E1,1.008736852E1,1.311396570E0,4.093446229E0,1.096499278E1
1.440238638E1,1.062327519E1,9.647128147E-1,3.854713769E0,1.134211025E1
1.441235337E1,1.081341495E1,6.394134969E-1,3.624039942E0,1.142245412E1
1.442232038E1,1.076031989E1,4.851200938E-1,3.454075416E0,1.131151903E1
1.443228638E1,1.045049231E1,3.114437556E-1,3.396281537E0,1.099293023E1
1.444225338E1,9.901139381E0,2.150196612E-2,3.457977848E0,1.048764197E1
1.445221938E1,9.185382882E0,-4.969490111E-2,3.522063332E0,9.837614466E0
1.446218637E1,8.536993909E0,1.104591662E-1,3.528466033E0,9.238102553E0
1.447215338E1,8.060193819E0,2.916532695E-1,3.469846526E0,8.780183423E0
1.448211937E1,7.690087872E0,1.382790488E-1,3.283974066E0,8.363077080E0
1.449208638E1,7.365579098E0,-4.447316211E-1,2.960895520E0,7.950876929E0
1.450205237E1,7.026538239E0,-1.151965218E0,2.643449598E0,7.595201726E0
1.451201938E1,6.704815078E0,-1.869423257E0,2.369746111E0,7.352889580E0
1.452198537E1,6.362313251E0,-2.584939435E0,2.108727574E0,7.183848117E0
1.453195238E1,5.898709742E0,-3.194565461E0,1.870364658E0,6.964071299E0
1.454191938E1,5.287511984E0,-3.561104021E0,1.711536739E0,6.600651698E0
1.455188537E1,4.568102730E0,-3.740091385E0,1.526386995E0,6.098008148E0
1.456185238E1,3.928936570E0,-3.863913193E0,1.302295963E0,5.662361920E0
1.457181837E1,3.331900769E0,-3.847332829E0,1.236637579E0,5.237633543E0
1.458178538E1,2.825053591E0,-3.674563978E0,1.248175889E0,4.800134506E0
1.459175137E1,2.396271420E0,-3.366366597E0,1.204050461E0,4.303984003E0
1.460171838E1,1.995623712E0,-2.834271142E0,1.212827132E0,3.672404738E0
1.461168537E1,1.732449891E0,-2.229850892E0,1.251819874E0,3.088797601E0
1.462165138E1,1.498534368E0,-1.725641393E0,1.314950507E0,2.636766638E0
1.463161837E1,1.312926201E0,-1.373502186E0,1.275324512E0,2.288391591E0
1.464158438E1,1.137316774E0,-1.122117521E0,1.236558641E0,2.020325332E0
1.465155138E1,8.782897979E-1,-9.035918695E-1,1.155332630E0,1.709580276E0
1.466151838E1,5.317183095E-1,-8.712181753E-1,9.766434735E-1,1.412649264E0
1.467148438E1,9.924537599E-2,-9.792495775E-1,7.440149224E-1,1.233830452E0
1.468145137E1,-3.507580948E-1,-1.245754557E0,5.065805447E-1,1.389805564E0
1.469141738E1,-7.943588644E-1,-1.613786497E0,3.292227995E-1,1.828578823E0
1.470138437E1,-1.231856310E0,-1.964899810E0,1.668982093E-1,2.325114243E0
1.471135038E1,-1.763045447E0,-2.349613270E0,6.832588434E-2,2.938312474E0
1.472131737E1,-2.318750789E0,-2.767315553E0,1.084991795E-1,3.611981819E0
1.473128438E1,-2.858534163E0,-3.216916735E0,2.831859531E-1,4.312767687E0
1.474125038E1,-3.374985393E0,-3.642000250E0,4.674538646E-1,4.987304416E0
1.475121738E1,-3.833103629E0,-4.063620751E0,6.278833723E-1,5.621381909E0
1.476118338E1,-4.209105908E0,-4.503475794E0,8.022719014E-1,6.216229322E0
1.477115037E1,-4.539922074E0,-4.877278643E0,9.197272611E-1,6.726413430E0
1.478111638E1,-4.832267069E0,-5.150681875E0,1.014917593E0,7.135151472E0
1.479108337E1,-5.109191787E0,-5.386373783E0,1.100067086E0,7.505132300E0
1.480105038E1,-5.344928133E0,-5.592257169E0,1.159666001E0,7.822175032E0
1.481101637E1,-5.532786309E0,-5.755278127E0,1.138086852E0,8.064129980E0
1.482098338E1,-5.661257823E0,-5.973080478E0,1.095936613E0,8.302325432E0
1.483094938E1,-5.690636573E0,-6.341410625E0,1.005553862E0,8.579508837E0
1.484091638E1,-5.611404462E0,-6.756091651E0,8.919389534E-1,8.827694463E0
1.485088238E1,-5.388046671E0,-7.218892338E0,7.882771754E-1,9.042390968E0
1.486084937E1,-5.035231526E0,-7.760737440E0,7.031066322E-1,9.277767030E0
1.487081638E1,-4.705594743E0,-8.219770181E0,6.414629459E-1,9.493087929E0
1.488078237E1,-4.559186311E0,-8.259673335E0,6.021556234E-1,9.453622312E0
1.489074938E1,-4.592874459E0,-8.031357105E0,5.687621748E-1,9.269341032E0
1.490071537E1,-4.681381423E0,-7.853605258E0,5.787503886E-1,9.161299012E0
1.491068238E1,-4.907872737E0,-7.576537868E0,7.199816966E-1,9.055910474E0
1.492064937E1,-5.092250649E0,-7.283391804E0,8.119431961E-1,8.924016170E0
1.493061538E1,-5.039697629E0,-7.482721632E0,8.235405636E-1,9.059133196E0
1.494058238E1,-5.003049620E0,-7.778493680E0,8.827254957E-1,9.290569075E0
1.495054837E1,-5.132433300E0,-8.029386594E0,9.848827851E-1,9.580340012E0
1.496051538E1,-5.414252722E0,-8.222120762E0,1.005012410E0,9.895830046E0
1.497048137E1,-5.718557028E0,-8.346365324E0,9.056834916E-1,1.015795113E1
1.498044838E1,-6.248823473E0,-7.986030659E0,8.013317422E-1,1.017185396E1
1.499041537E1,-6.989306093E0,-6.957159855E0,8.848182142E-1,9.901281543E0
1.500038138E1,-7.439661566E0,-5.673740458E0,1.080594616E0,9.418470137E0
1.501034837E1,-7.201521429E0,-4.608906355E0,1.250983576E0,8.641116166E0
1.502031438E1,-6.540814712E0,-3.889148607E0,1.353833176E0,7.729204244E0
1.503028138E1,-5.693321614E0,-3.654438154E0,1.299557712E0,6.888953438E0
1.504024738E1,-4.465289383E0,-3.953055165E0,1.076791660E0,6.060110122E0
1.505021438E1,-3.081355764E0,-4.681798330E0,7.112909069E-1,5.649772004E0
1.506018137E1,-1.834371538E0,-5.659626449E0,2.677151341E-1,5.955498457E0
1.507014738E1,-1.080065516E0,-6.503298976E0,-2.333016387E-1,6.596504283E0
1.508011437E1,-7.580827385E-1,-7.105705445E0,-6.646266907E-1,7.176870345E0
1.509008038E1,-6.420722258E-1,-7.351867377E0,-1.004468107E0,7.447896807E0
1.510004737E1,-7.615045291E-1,-7.140658931E0,-1.160834933E0,7.274368485E0
1.511001338E1,-1.005811139E0,-6.518202360E0,-1.270314032E0,6.716570240E0
1.511998037E1,-1.214987678E0,-5.677942268E0,-1.396163070E0,5.971975785E0
1.512994738E1,-1.143841681E0,-4.807360269E0,-1.530265453E0,5.173084081E0
1.513991338E1,-6.748587334E-1,-4.093427810E0,-1.590155559E0,4.442992263E0
1.514988038E1,2.613705397E-3,-3.616529778E0,-1.555585066E0,3.936894635E0
1.515984638E1,8.020959002E-1,-3.303877403E0,-1.393576116E0,3.674373160E0
1.516981337E1,1.633270004E0,-2.908557678E0,-1.133287457E0,3.523012792E0
1.517977938E1,2.395158695E0,-2.529249383E0,-8.792820704E-1,3.592634768E0
1.518974637E1,3.105257428E0,-2.145872011E0,-5.832151763E-1,3.819362554E0
1.519971338E1,3.729990320E0,-1.601805552E0,-3.010976192E-1,4.070536646E0
1.520967937E1,4.021827192E0,-8.617433470E-1,3.995512091E-2,4.113306696E0
1.521964638E1,4.227552704E0,-1.150930846E-1,4.305597246E-1,4.250979883E0
1.522961238E1,4.534366050E0,3.393367285E-1,7.801121966E-1,4.613480240E0
1.523957938E1,4.981659336E0,7.276520741E-1,1.185513691E0,5.172219059E0
1.524954954E1,5.796955326E0,1.292391949E0,9.728475342E-1,6.018421747E0
1.525951654E1,6.616878802E0,1.441519922E0,4.040654057E-1,6.784123644E0
1.526948354E1,6.328188316E0,1.603723438E0,9.365187833E-1,6.595071164E0
1.527944954E1,6.051784585E0,2.311440600E0,2.138213913E0,6.821936166E0
1.528941654E1,6.598006328E0,2.825901437E0,1.807772554E0,7.401854366E0
1.529938254E1,6.838794669E0,2.709268781E0,1.012391596E0,7.425239834E0
1.530934954E1,6.970092727E0,2.753584828E0,4.439767456E-1,7.507432143E0
1.531931554E1,6.945989335E0,2.972864186E0,8.493080735E-2,7.555918379E0
1.532928254E1,6.752476317E0,3.123011329E0,-3.569818711E-1,7.448259678E0
1.533924954E1,6.550551496E0,3.246180003E0,-8.362046094E-1,7.358440572E0
1.534921554E1,6.301078870E0,3.331624196E0,-1.196720538E0,7.227409962E0
1.535918254E1,6.072079686E0,3.269429702E0,-1.454008990E0,7.047940439E0
1.536914854E1,5.975050989E0,3.023087091E0,-1.575285505E0,6.879085281E0
1.537911554E1,5.937750431E0,2.719813650E0,-1.532530664E0,6.708421328E0
1.538908154E1,5.928745719E0,2.495520304E0,-1.329932828E0,6.568589553E0
1.539904854E1,5.885831834E0,2.260758689E0,-1.015772602E0,6.386379272E0
1.540901554E1,5.926568216E0,1.916716121E0,-5.709637977E-1,6.254918958E0
1.541898154E1,6.033510282E0,1.661710861E0,-6.269837782E-2,6.258471091E0
1.542894854E1,6.262617055E0,1.229337915E0,4.677350061E-1,6.399251528E0
1.543891454E1,6.723847765E0,7.460661256E-1,1.063330054E0,6.848168677E0
1.544888154E1,7.181737960E0,5.581477243E-1,1.641904002E0,7.388148466E0
1.545884754E1,7.779526298E0,4.074298936E-1,2.078730334E0,8.062763071E0
1.546881454E1,8.466822059E0,9.899336100E-2,2.274112560E0,8.767466191E0
1.547878154E1,8.991521956E0,-2.393037325E-1,2.363339317E0,9.300005703E0
1.548874754E1,9.436217324E0,-4.299767572E-1,2.471477138E0,9.763978525E0
1.549871454E1,9.796748455E0,-3.952062893E-1,2.589387411E0,1.014087745E1
1.550868054E1,9.960022012E0,-2.939640892E-1,2.602486344E0,1.029861100E1
1.551864754E1,9.960488620E0,-1.295216739E-1,2.626028988E0,1.030165703E1
1.552861454E1,9.845498446E0,3.690926242E-1,2.622728820E0,1.019552723E1
1.553858054E1,9.623853890E0,1.057523330E0,2.473022557E0,9.992635281E0
1.554854754E1,9.327794158E0,1.395367849E0,2.108040526E0,9.664296672E0
1.555851354E1,8.968773948E0,1.052252065E0,1.716070086E0,9.191900624E0
1.556848054E1,8.484279506E0,2.901973128E-1,1.380525277E0,8.600759458E0
1.557844654E1,7.982670264E0,-6.864777356E-1,1.023363823E0,8.077224136E0
1.558841354E1,7.410344796E0,-1.608538620E0,7.649092897E-1,7.621397032E0
1.559837954E1,6.688319498E0,-2.283187439E0,6.815795231E-1,7.100078396E0
1.560834654E1,5.918139455E0,-2.820239578E0,6.815051904E-1,6.591098179E0
1.561831354E1,5.154478472E0,-3.310055571E0,7.390377724E-1,6.170193922E0
1.562827954E1,4.418452016E0,-3.617530822E0,8.207034945E-1,5.769124863E0
1.563824654E1,3.790862759E0,-3.739019591E0,8.798205259E-1,5.396757555E0
1.564821254E1,3.297606849E0,-3.757717817E0,9.536550721E-1,5.089608248E0
1.565817954E1,2.938161546E0,-3.709735565E0,1.053210935E0,4.848111437E0
1.566814654E1,2.730450904E0,-3.578438092E0,1.196840259E0,4.657575327E0
1.567811254E1,2.522743186E0,-3.342805241E0,1.365789124E0,4.404992622E0
1.568807954E1,2.284308935E0,-2.991771743E0,1.551222458E0,4.071247547E0
1.569804554E1,2.036196372E0,-2.635690343E0,1.764905446E0,3.769330243E0
1.570801254E1,1.674608064E0,-2.283233632E0,1.891521639E0,3.405190464E0
1.571797854E1,1.254005563E0,-1.946722863E0,1.932912909E0,3.016357434E0
1.572794554E1,7.865610176E-1,-1.726628988E0,1.946838638E0,2.718475046E0
1.573791254E1,3.569748545E-1,-1.623942525E0,1.916826049E0,2.537487433E0
1.574787854E1,-6.419658065E-2,-1.632473028E0,1.678660769E0,2.342432788E0
1.575784554E1,-5.935409206E-1,-1.733008300E0,1.385479038E0,2.296771812E0
1.576781154E1,-1.148725276E0,-1.985123282E0,1.132071236E0,2.557707858E0
1.577777854E1,-1.640829284E0,-2.317681333E0,9.625838435E-1,2.998422112E0
1.578774454E1,-2.152132040E0,-2.569842508E0,8.093435240E-1,3.448303899E0
1.579771154E1,-2.681812010E0,-2.810384097E0,6.974862885E-1,3.946753292E0
1.580767854E1,-3.141156993E0,-3.137412728E0,6.876752454E-1,4.492563091E0
1.581764454E1,-3.599016198E0,-3.416285739E0,6.913203996E-1,5.010174621E0
1.582761154E1,-4.005987670E0,-3.701453277E0,6.870478392E-1,5.497338293E0
1.583757754E1,-4.365148214E0,-4.012402650E0,6.959473014E-1,5.969776930E0
1.584754454E1,-4.741955654E0,-4.273764711E0,7.544369996E-1,6.428093296E0
1.585751054E1,-5.044371893E0,-4.552975983E0,8.071765459E-1,6.843011916E0
1.586747754E1,-5.307915843E0,-4.893302060E0,8.692482483E-1,7.271448836E0
1.587744354E1,-5.520322384E0,-5.222550003E0,9.179461992E-1,7.654515855E0
1.588741054E1,-5.648809100E0,-5.611107423E0,9.661915755E-1,8.020417503E0
1.589737754E1,-5.719080938E0,-6.058738094E0,9.855400121E-1,8.389724857E0
1.590734354E1,-5.767618675E0,-6.494905298E0,9.971432269E-1,8.743198192E0
1.591731054E1,-5.746763411E0,-7.000413464E0,9.611378270E-1,9.107956098E0
1.592727654E1,-5.670032154E0,-7.535411476E0,9.374256134E-1,9.476837950E0
1.593724354E1,-5.643884575E0,-7.946188901E0,9.041379994E-1,9.788402151E0
1.594720954E1,-5.739492983E0,-8.168600028E0,8.675437850E-1,1.002099987E1
1.595717654E1,-5.841580691E0,-8.278276252E0,8.130237615E-1,1.016439523E1
1.596714354E1,-5.969717744E0,-8.302681360E0,7.656870425E-1,1.025467329E1
1.597710954E1,-6.172664659E0,-8.119209766E0,7.655151343E-1,1.022787220E1
1.598707654E1,-6.361375943E0,-7.846264079E0,7.386511984E-1,1.012800916E1
1.599704254E1,-6.444864242E0,-7.570818121E0,6.844277018E-1,9.966042515E0
1.600700954E1,-6.374473706E0,-7.410347720E0,6.613037181E-1,9.797167497E0
1.601697554E1,-6.130145461E0,-7.493726091E0,6.014364159E-1,9.700326792E0
1.602694254E1,-5.889520842E0,-7.634128264E0,5.317024489E-1,9.656556198E0
1.603690954E1,-5.721992267E0,-7.653832211E0,4.281605389E-1,9.565859317E0
1.604687554E1,-5.536400473E0,-7.674057146E0,2.565582081E-1,9.466187479E0
1.605684254E1,-5.387663094E0,-7.600461166E0,7.930103503E-2,9.316663147E0
1.606680854E1,-5.498445026E0,-7.100832376E0,-5.116847254E-2,8.980942954E0
1.607677554E1,-5.640311927E0,-6.305737932E0,-1.429486352E-1,8.461435091E0
1.608674154E1,-5.433735060E0,-5.614292986E0,-1.916308717E-1,7.815528442E0
1.609670854E1,-5.042148197E0,-5.068070074E0,-2.017825882E-1,7.151874505E0
1.610667554E1,-4.690522376E0,-4.574243476E0,-2.161903469E-1,6.555260620E0
1.611664154E1,-4.078175640E0,-4.409242067E0,-2.532758005E-1,6.011412545E0
1.612660854E1,-3.158044336E0,-4.630604203E0,-4.092811952E-1,5.619897722E0
1.613657454E1,-2.108356276E0,-5.102118410E0,-6.543234582E-1,5.559219158E0
1.614654154E1,-1.132965276E0,-5.802394406E0,-9.010098852E-1,5.980234942E0
1.615650754E1,-4.353199428E-1,-6.529024971E0,-1.167993094E0,6.646945042E0
1.616647454E1,-1.023391378E-1,-6.959827355E0,-1.415466483E0,7.103042692E0
1.617644054E1,-6.721549809E-2,-6.994975553E0,-1.605045494E0,7.177072659E0
1.618640754E1,-3.844134986E-2,-6.795140526E0,-1.639062256E0,6.990131443E0
1.619637454E1,-1.482403654E-1,-6.182366359E0,-1.525703601E0,6.369568312E0
1.620634054E1,-1.548079580E-1,-5.371503729E0,-1.310082846E0,5.531124196E0
1.621630754E1,9.626797378E-2,-4.626458527E0,-1.041536531E0,4.743225102E0
1.622627354E1,3.729541254E-1,-3.790579169E0,-6.814907916E-1,3.869368800E0
1.623624054E1,6.958116460E-1,-3.039121326E0,-3.900209054E-1,3.142058017E0
1.624620675E1,1.103691190E0,-2.544135225E0,-1.369108003E-1,2.776599152E0
1.625617375E1,1.576450270E0,-2.092248366E0,1.876255289E-1,2.626385733E0
1.626614075E1,2.196459782E0,-1.673951422E0,5.088218556E-1,2.808104097E0
1.627610675E1,2.855034020E0,-1.238788185E0,7.879678577E-1,3.210406324E0
1.628607375E1,3.408820891E0,-6.852755481E-1,1.094144441E0,3.645108298E0
1.629603975E1,3.911234710E0,-1.042248648E-1,1.393062876E0,4.153220913E0
1.630600675E1,4.281201493E0,4.381681216E-1,1.665127974E0,4.614469492E0
1.631597275E1,4.564563995E0,9.911241031E-1,1.889311976E0,5.038558444E0
1.632593975E1,4.802066200E0,1.422933962E0,2.028802568E0,5.403759868E0
1.633590675E1,4.961669460E0,1.742541600E0,2.044411125E0,5.642183257E0
1.634587275E1,5.095324531E0,1.918471456E0,1.990471730E0,5.796968389E0
1.635583975E1,5.229118180E0,2.069450072E0,1.947207597E0,5.951295487E0
1.636580575E1,5.361140708E0,2.296857060E0,1.915882308E0,6.139054249E0
1.637577275E1,5.434548408E0,2.571418918E0,1.869264797E0,6.296083110E0
1.638573875E1,5.429670660E0,2.838896289E0,1.816911167E0,6.390760660E0
1.639570575E1,5.432063341E0,3.167322114E0,1.782706125E0,6.535845977E0
1.640567275E1,5.425742501E0,3.528469541E0,1.723156326E0,6.697615002E0
1.641563875E1,5.395145191E0,3.755747890E0,1.647921957E0,6.777084965E0
1.642560575E1,5.419904641E0,3.797153778E0,1.568864678E0,6.801108697E0
1.643557175E1,5.487513072E0,3.696129094E0,1.554340194E0,6.796333087E0
1.644553875E1,5.535009420E0,3.364776739E0,1.539233912E0,6.657874497E0
1.645550475E1,5.554237989E0,3.032638518E0,1.716136159E0,6.556796423E0
1.646547175E1,5.541210977E0,2.922448323E0,1.971218019E0,6.567451847E0
1.647543775E1,5.735242642E0,2.531207031E0,2.187509449E0,6.639669780E0
1.648540475E1,6.084098053E0,2.198702774E0,2.519748827E0,6.942598732E0
1.649537175E1,6.528582337E0,2.057355691E0,2.882187320E0,7.427119463E0
1.650533775E1,7.100969201E0,1.962615595E0,3.156198370E0,8.014812020E0
1.651530475E1,7.598202971E0,2.019585017E0,3.216270325E0,8.494457419E0
1.652527075E1,7.972658662E0,2.117458636E0,2.986801025E0,8.773134991E0
