"Time (s)","Linear Acceleration x (m/s^2)","Linear Acceleration y (m/s^2)","Linear Acceleration z (m/s^2)","Absolute acceleration (m/s^2)"
1.995991667E-2,-5.451020014E-1,2.090438068E-1,-1.820424174E0,1.911747807E0
2.992891667E-2,-6.956335983E-1,2.973917270E-1,-1.087648770E0,1.324887840E0
3.989791667E-2,-8.532523128E-1,4.366080844E-1,-4.844020557E-1,1.073923405E0
4.986691667E-2,-9.241913179E-1,5.772102320E-1,5.847800374E-2,1.091201595E0
5.983591667E-2,-8.843428355E-1,7.145145500E-1,5.059186399E-1,1.244406269E0
6.980491667E-2,-7.654388282E-1,8.278458685E-1,8.054720825E-1,1.385644492E0
7.977391667E-2,-6.597951365E-1,8.827529776E-1,9.525704867E-1,1.456699342E0
8.974291667E-2,-4.855168274E-1,9.595777899E-1,1.105068794E0,1.541977031E0
9.971191667E-2,-2.221547261E-1,1.082693254E0,1.180580322E0,1.617203544E0
1.096809167E-1,8.276498040E-2,1.192904499E0,1.121310605E0,1.639270770E0
1.196499167E-1,2.712897563E-1,1.261970056E0,1.221871020E0,1.777395663E0
1.296189167E-1,3.014713293E-1,1.426470358E0,1.565270394E0,2.139105900E0
1.395879167E-1,1.178070606E-1,1.653593171E0,1.764824755E0,2.421333371E0
1.495569167E-1,-1.576312861E-1,1.863536280E0,1.830265623E0,2.616770402E0
1.595249167E-1,-3.845096853E-1,2.028573357E0,2.100280101E0,2.945188290E0
1.694939167E-1,-5.345974785E-1,2.077540864E0,2.622474466E0,3.388117889E0
1.794629167E-1,-6.076286173E-1,2.136628148E0,3.098434896E0,3.812439008E0
1.894319167E-1,-5.543870875E-1,2.175418577E0,3.428731830E0,4.098291471E0
1.994009167E-1,-4.179694998E-1,1.979986503E0,3.698015406E0,4.215490837E0
2.093699167E-1,-2.275572610E-1,1.525540903E0,4.095837740E0,4.376636167E0
2.193389167E-1,-7.986039430E-2,9.884226894E-1,4.440449241E0,4.549829289E0
2.293079167E-1,-4.763609648E-2,4.684467584E-1,4.477066260E0,4.501758974E0
2.392769167E-1,-7.916487713E-2,-1.124828875E-2,4.152651626E0,4.153421376E0
2.492459167E-1,-1.990626097E-1,-3.686651927E-1,3.385208080E0,3.411037040E0
2.592149167E-1,-4.831747252E-1,-5.151508087E-1,2.423873786E0,2.524678653E0
2.691839167E-1,-8.180842343E-1,-4.467185050E-1,1.603787758E0,1.854980973E0
2.791529167E-1,-1.154634472E0,-2.596140361E-1,9.057687879E-1,1.490301080E0
2.891219167E-1,-1.405982592E0,-1.257578212E-1,4.294581091E-1,1.475478345E0
2.990909167E-1,-1.513725726E0,-1.402764577E-1,3.395174074E-1,1.557663355E0
3.090599167E-1,-1.563676735E0,-2.815457726E-1,4.816544491E-1,1.660224070E0
3.190326667E-1,-1.459737799E0,-5.583529615E-1,6.389229155E-1,1.688435656E0
3.290016667E-1,-1.182843487E0,-1.011198764E0,7.801752734E-1,1.740780030E0
3.389696667E-1,-9.013620338E-1,-1.464469074E0,1.011887566E0,1.995254277E0
3.489386667E-1,-6.992451310E-1,-1.858363248E0,1.124371038E0,2.281812426E0
3.589076667E-1,-4.421082678E-1,-2.142176571E0,1.003710235E0,2.406618877E0
3.688766667E-1,-1.355209172E-1,-2.344937544E0,6.383376092E-1,2.434044558E0
3.788456667E-1,4.503026655E-2,-2.351411582E0,7.113313258E-2,2.352918204E0
3.888146667E-1,1.549921453E-1,-2.230123957E0,-6.032630861E-1,2.315470099E0
3.987836667E-1,1.663453916E-1,-2.098007873E0,-1.393471597E0,2.524098040E0
4.087526667E-1,5.513365220E-2,-2.007121677E0,-2.131466226E0,2.928263208E0
4.187216667E-1,-1.044739562E-1,-1.947463120E0,-2.746438361E0,3.368449359E0
4.286906667E-1,-2.721581044E-1,-1.870382200E0,-3.153871763E0,3.676860986E0
4.386596667E-1,-3.464448962E-1,-1.806942249E0,-3.360697721E0,3.831364448E0
4.486286667E-1,-2.513858342E-1,-1.751329966E0,-3.376822003E0,3.812253707E0
4.585976667E-1,-1.700639284E-1,-1.611210798E0,-3.238750530E0,3.621384676E0
4.685666667E-1,-1.377127460E-1,-1.448430161E0,-3.000574141E0,3.334720365E0
4.785356667E-1,-1.859411654E-1,-1.339975421E0,-2.829003385E0,3.135820212E0
4.885046667E-1,-2.352475190E-1,-1.305379200E0,-2.893405203E0,3.182946735E0
4.984736667E-1,-2.510025492E-1,-1.257701588E0,-3.015034890E0,3.276469282E0
5.084416667E-1,-3.424377993E-1,-1.163854362E0,-3.049329395E0,3.281802916E0
5.184106667E-1,-5.609789826E-1,-9.913562375E-1,-3.041758420E0,3.248042317E0
5.283796667E-1,-7.337653381E-1,-8.996800822E-1,-2.986809211E0,3.204506995E0
5.383486667E-1,-8.788642868E-1,-7.999119651E-1,-2.913022027E0,3.146102178E0
5.483176667E-1,-9.164203683E-1,-6.364571446E-1,-2.630553564E0,2.857396724E0
5.582866667E-1,-7.775826180E-1,-4.748523831E-1,-2.083945904E0,2.274412022E0
5.682556667E-1,-6.387846288E-1,-3.872505677E-1,-1.514944578E0,1.689102093E0
5.782246667E-1,-4.945066291E-1,-3.365493608E-1,-5.731312144E-1,8.284211896E-1
5.881936667E-1,-3.618302362E-1,-2.154008996E-1,6.386293852E-1,7.649615409E-1
5.981626667E-1,-2.306410825E-1,-1.459494263E-1,1.046158682E0,1.081177382E0
6.081316667E-1,-1.965886893E-1,-1.260630459E-1,1.001391229E0,1.028262320E0
6.181006667E-1,-3.017489259E-1,2.513133287E-3,1.032638165E0,1.075825408E0
6.280696667E-1,-3.688369547E-1,1.901970613E-1,9.729287374E-1,1.057736238E0
6.380386667E-1,-2.350259095E-1,3.788703382E-1,7.178445393E-1,8.450329543E-1
6.480076667E-1,-9.412445761E-2,5.524817723E-1,4.886050344E-1,7.435256565E-1
6.579766667E-1,-6.599021405E-2,7.594387078E-1,4.411806071E-1,8.807622763E-1
6.679456667E-1,-6.966738179E-2,9.302241826E-1,5.624354875E-1,1.089267759E0
6.779146667E-1,-1.420825895E-1,9.686713797E-1,7.470467037E-1,1.231499282E0
6.878836667E-1,-2.207262513E-1,9.732848328E-1,9.364426965E-1,1.368549731E0
6.978516667E-1,-2.658597395E-1,9.558572066E-1,1.233814543E0,1.583238051E0
7.078206667E-1,-3.492020045E-1,1.094035099E0,1.627011144E0,1.991486907E0
7.177896667E-1,-3.234819301E-1,1.373971717E0,1.684733688E0,2.197900461E0
7.277586667E-1,-1.737071823E-1,1.571559659E0,1.499021441E0,2.178770118E0
7.377276667E-1,1.847693834E-1,1.388894981E0,1.420233133E0,1.995051665E0
7.476966667E-1,5.406225957E-1,1.122836144E0,1.463879090E0,1.922492077E0
7.576656667E-1,7.175779793E-1,1.146936613E0,1.360016168E0,1.918339315E0
7.676346667E-1,1.011151840E0,9.976741540E-1,1.167883093E0,1.838948798E0
7.776036667E-1,1.312073239E0,6.082004750E-1,1.212676274E0,1.887333501E0
7.875726667E-1,1.457484867E0,1.497752595E-1,1.451917441E0,2.062706722E0
7.975416667E-1,1.466000752E0,-3.030588484E-1,1.899223006E0,2.418274364E0
8.075106667E-1,1.279977287E0,-7.141812587E-1,2.223610743E0,2.663238905E0
8.174796667E-1,1.103994880E0,-1.082258222E0,2.337964740E0,2.802885420E0
8.274486667E-1,9.044129647E-1,-1.366017165E0,2.506152297E0,2.994121748E0
8.374176667E-1,6.906437306E-1,-1.563769999E0,2.541216295E0,3.062702341E0
8.473866667E-1,4.803486197E-1,-1.508869321E0,2.250643591E0,2.751875360E0
8.573556667E-1,4.455968629E-1,-1.328289760E0,1.774896584E0,2.261231552E0
8.673246667E-1,5.963592786E-1,-1.025081223E0,1.199501912E0,1.686784142E0
8.772936667E-1,8.864756075E-1,-6.940247369E-1,7.106267363E-1,1.331352582E0
8.872616667E-1,1.158370404E0,-3.797328025E-1,4.445714074E-1,1.297560300E0
8.972306667E-1,1.373593987E0,-1.594301820E-1,4.565751565E-1,1.456241497E0
9.071996667E-1,1.584056767E0,-9.912141502E-2,2.887863797E-1,1.613213709E0
9.171686667E-1,1.699873006E0,-1.905905789E-1,-7.845209241E-3,1.710542181E0
9.271376667E-1,1.631525779E0,-2.306510228E-1,-2.550251412E-1,1.667367412E0
9.371066667E-1,1.441373449E0,-2.254510939E-1,-5.693673617E-1,1.566066668E0
9.470756667E-1,1.195860412E0,-2.838086450E-1,-9.308591902E-1,1.541793859E0
9.570446667E-1,8.840938903E-1,-2.605022281E-1,-1.401751839E0,1.677614865E0
9.670136667E-1,6.918584897E-1,-2.297827113E-1,-2.040336785E0,2.166666209E0
9.769826667E-1,5.715688384E-1,-1.904145777E-1,-2.605753183E0,2.674490288E0
9.869516667E-1,4.463590474E-1,-2.048279643E-1,-2.948808156E0,2.989424767E0
9.969206667E-1,3.344569346E-1,-2.632890111E-1,-3.152010010E0,3.180620953E0
1.006889667E0,2.320876837E-1,-3.345461047E-1,-3.336765068E0,3.361515567E0
1.016858667E0,1.724873069E-1,-4.107043344E-1,-3.291017037E0,3.321027410E0
1.026827667E0,6.481401008E-2,-4.171801257E-1,-3.036016454E0,3.065230175E0
1.036796667E0,-7.483705133E-3,-4.215351319E-1,-2.691830630E0,2.724646768E0
1.046765667E0,-1.000224710E-1,-4.344826216E-1,-2.468444772E0,2.508385783E0
1.056734667E0,-1.149059737E-1,-4.864754784E-1,-2.489494164E0,2.539181554E0
1.066703667E0,-1.351015256E-1,-5.649685013E-1,-2.497644598E0,2.564306995E0
1.076672667E0,-1.465322841E-1,-5.532056576E-1,-2.542116181E0,2.605736535E0
1.086640667E0,-1.048615170E-1,-4.936693078E-1,-2.525644575E0,2.575574856E0
1.096609667E0,-6.055668890E-2,-3.995414150E-1,-2.540877156E0,2.572811143E0
1.106578667E0,2.946280405E-2,-3.518515241E-1,-2.420680622E0,2.446295613E0
1.116547667E0,5.764185190E-2,-2.651992965E-1,-2.015720592E0,2.033908247E0
1.126516667E0,-2.967944339E-2,-1.352811813E-1,-1.589902375E0,1.595923378E0
1.136485667E0,-1.239184699E-1,-5.688229859E-2,-1.229309263E0,1.236847868E0
1.146454667E0,-2.345850295E-1,2.108973742E-2,-6.434129924E-1,6.851680026E-1
1.156423667E0,-3.862743750E-1,1.259086794E-1,-1.738599408E-1,4.419142081E-1
1.166392667E0,-5.296894719E-1,2.626475716E-1,2.370279962E-1,6.369748460E-1
1.176361667E0,-6.059323400E-1,4.803768325E-1,6.032303417E-1,9.807154261E-1
1.186330667E0,-5.440040405E-1,6.507559258E-1,7.886262542E-1,1.158168830E0
1.196299667E0,-4.611203434E-1,7.789432651E-1,9.119048560E-1,1.284894956E0
1.206268667E0,-3.481049207E-1,9.158014405E-1,1.179276978E0,1.533154756E0
1.216237667E0,-2.590311052E-1,1.108192962E0,1.237456189E0,1.681215802E0
1.226206667E0,-2.192197162E-1,1.201589368E0,1.314963371E0,1.794715287E0
1.236175667E0,-1.602394366E-1,1.219398233E0,1.562303517E0,1.988316123E0
1.246144667E0,-1.316763729E-1,1.246086094E0,1.715908703E0,2.124714545E0
1.256113667E0,-1.395613432E-1,1.316228124E0,1.720140917E0,2.170442033E0
1.266082667E0,-2.823392580E-1,1.519903602E0,1.772055421E0,2.351595806E0
1.276051667E0,-5.435396254E-1,1.709100789E0,1.760692527E0,2.513264612E0
1.286019667E0,-8.087441844E-1,1.845457858E0,1.776808038E0,2.686415580E0
1.295988667E0,-1.047495355E0,2.042411962E0,1.839786644E0,2.941684558E0
1.305957667E0,-1.223659391E0,2.251880862E0,1.944228441E0,3.216882645E0
1.315926667E0,-1.056750620E0,2.210643958E0,2.335000201E0,3.384655747E0
1.325896542E0,-5.959666380E-1,1.902518497E0,3.220242339E0,3.787441562E0
1.335865542E0,-2.548889011E-2,1.488492944E0,4.145319217E0,4.404535429E0
1.345834542E0,4.618461290E-1,9.159558070E-1,4.891862476E0,4.998259234E0
1.355803542E0,7.346973842E-1,3.821991581E-1,5.255812474E0,5.320659847E0
1.365772542E0,9.087255786E-1,-3.303501427E-2,4.728364971E0,4.815008700E0
1.375741542E0,9.527385941E-1,-4.266058373E-1,3.575102255E0,3.724387132E0
1.385710542E0,6.190819971E-1,-5.382677758E-1,2.288347022E0,2.430951832E0
1.395679542E0,1.946538091E-3,-3.935357398E-1,1.476664612E0,1.528205661E0
1.405648542E0,-5.794543934E-1,-2.404047632E-1,7.249588466E-1,9.587112044E-1
1.415617542E0,-9.840635902E-1,-1.782167011E-1,1.041599607E-1,1.005480800E0
1.425586542E0,-1.234298108E0,-2.397715098E-1,-4.891956031E-2,1.258322422E0
1.435555542E0,-1.354038559E0,-3.944379652E-1,2.148430753E-1,1.426590087E0
1.445524542E0,-1.333387655E0,-6.713375401E-1,5.319855273E-1,1.584810819E0
1.455493542E0,-1.271885472E0,-1.105323733E0,6.490830374E-1,1.805752474E0
1.465462542E0,-1.188783966E0,-1.502111109E0,6.413331378E-1,2.020112199E0
1.475431542E0,-1.057241786E0,-1.836311059E0,4.546455753E-1,2.167141227E0
1.485400542E0,-8.948397571E-1,-2.079021379E0,1.518065822E-1,2.268504645E0
1.495369542E0,-7.337238228E-1,-2.182298411E0,-2.299253833E-1,2.313794002E0
1.505337542E0,-5.150710307E-1,-2.246868628E0,-7.243004501E-1,2.416263219E0
1.515306542E0,-2.647987987E-1,-2.221164853E0,-1.284347935E0,2.579387781E0
1.525275542E0,-8.701826334E-2,-2.138591058E0,-1.873229794E0,2.844316043E0
1.535244542E0,-5.229311138E-2,-2.069449487E0,-2.350528067E0,3.132145901E0
1.545213542E0,-1.341830742E-1,-2.039336911E0,-2.681000417E0,3.371151639E0
1.555182542E0,-2.716446823E-1,-2.085312983E0,-2.915950897E0,3.595148218E0
1.565151542E0,-4.493588153E-1,-2.157233736E0,-3.043134270E0,3.757159422E0
1.575120542E0,-6.522738630E-1,-2.195279229E0,-3.089088707E0,3.845410398E0
1.585089542E0,-7.600161204E-1,-2.193195866E0,-3.088550763E0,3.863531859E0
1.595058542E0,-8.493457881E-1,-2.144103228E0,-2.909177483E0,3.712395527E0
1.605027542E0,-9.094884941E-1,-2.018116781E0,-2.720712951E0,3.507455435E0
1.614996542E0,-9.647642702E-1,-1.910595256E0,-2.630492168E0,3.391258376E0
1.624965542E0,-1.071484873E0,-1.760165693E0,-2.540594736E0,3.271220676E0
1.634934542E0,-1.151236070E0,-1.519105457E0,-2.641287882E0,3.257211623E0
1.644903542E0,-1.169754202E0,-1.280082391E0,-2.894323216E0,3.374024704E0
1.654872542E0,-1.189844943E0,-9.854505497E-1,-2.879331540E0,3.267628175E0
1.664841542E0,-1.147386702E0,-6.742886299E-1,-2.693752609E0,3.004573933E0
1.674810542E0,-1.023790450E0,-3.856683111E-1,-2.443116388E0,2.676883378E0
1.684779542E0,-9.420859905E-1,-1.880546415E-1,-2.043397218E0,2.257955436E0
1.694748542E0,-9.619710553E-1,-2.684456706E-2,-1.482303082E0,1.767294930E0
1.704717542E0,-1.003353701E0,1.699563396E-1,-8.888177097E-1,1.351147929E0
1.714685542E0,-1.054278564E0,2.851464880E-1,-2.368718755E-1,1.117550936E0
1.724654542E0,-1.107184463E0,3.942941236E-1,3.193953842E-1,1.217923932E0
1.734623542E0,-1.072002936E0,5.709431863E-1,5.885222554E-1,1.349638790E0
1.744592542E0,-1.013609352E0,7.396295106E-1,7.029031491E-1,1.438238008E0
1.754561542E0,-9.478111455E-1,9.274444163E-1,6.981435156E-1,1.498633872E0
1.764530542E0,-8.157228363E-1,1.109177048E0,6.491894567E-1,1.522210373E0
1.774499542E0,-6.645820326E-1,1.265941485E0,7.034937179E-1,1.593480634E0
1.784468542E0,-5.593347090E-1,1.385669657E0,8.558300579E-1,1.722028107E0
1.794437542E0,-5.367131473E-1,1.410639607E0,1.134062798E0,1.887872753E0
1.804406542E0,-3.854221433E-1,1.393440022E0,1.557683047E0,2.125229822E0
1.814375542E0,-2.058527619E-1,1.333340001E0,2.041210944E0,2.446776049E0
1.824344542E0,-5.013205357E-2,1.313869942E0,2.408279847E0,2.743825663E0
1.834313542E0,1.190501147E-1,1.348492475E0,2.552030720E0,2.888851966E0
1.844282542E0,1.480810288E-1,1.565307816E0,2.457665430E0,2.917573635E0
1.854251542E0,1.632487062E-1,1.803273121E0,2.143524354E0,2.805911750E0
1.864220542E0,3.255416849E-1,1.766984131E0,1.908513647E0,2.621189549E0
1.874189542E0,5.186021277E-1,1.820510713E0,1.668721672E0,2.523457834E0
1.884158542E0,7.744471948E-1,1.854560804E0,1.601994417E0,2.570126523E0
1.894127542E0,9.969031987E-1,1.535865916E0,1.919253813E0,2.652590300E0
1.904096542E0,1.320001917E0,9.157020378E-1,2.328161298E0,2.828648142E0
1.914065542E0,1.725389670E0,1.831078970E-1,2.863183284E0,3.347882396E0
1.924034542E0,1.879885095E0,-5.056508374E-1,3.387420666E0,3.906951434E0
1.934002542E0,1.889867900E0,-1.028315903E0,3.704704621E0,4.284141758E0
1.943971542E0,2.042924763E0,-1.426922348E0,3.571435466E0,4.354859385E0
1.953940542E0,2.243360007E0,-1.674518017E0,2.981457839E0,4.089714606E0
1.963909542E0,2.171664518E0,-1.636419314E0,2.118680120E0,3.447143803E0
1.973878542E0,1.769760828E0,-1.388472812E0,1.386421024E0,2.642361329E0
1.983847542E0,1.402457305E0,-1.176442248E0,6.575369418E-1,1.945059815E0
1.993816542E0,1.307934726E0,-1.025101104E0,-2.125024348E-1,1.675315733E0
2.003785542E0,1.428410318E0,-9.232876307E-1,-9.146781904E-1,1.931178987E0
2.013754542E0,1.578090999E0,-7.840028608E-1,-1.179908477E0,2.120663977E0
2.023723542E0,1.589183021E0,-6.891446507E-1,-1.223970755E0,2.120973228E0
2.033692542E0,1.543656454E0,-7.231046945E-1,-1.169478214E0,2.067228807E0
2.043661542E0,1.454854936E0,-7.391523778E-1,-1.047540379E0,1.939146711E0
2.053630542E0,1.302728657E0,-6.717877758E-1,-8.834248227E-1,1.711385458E0
2.063599542E0,1.147424855E0,-6.489760333E-1,-8.509827161E-1,1.569052349E0
2.073568542E0,9.347278543E-1,-6.350543976E-1,-8.902888691E-1,1.438618963E0
2.083537542E0,6.874925199E-1,-6.024023759E-1,-1.076388786E0,1.412142842E0
2.093506542E0,4.578886604E-1,-6.116567641E-1,-1.350004565E0,1.551224790E0
2.103475542E0,2.812941230E-1,-6.390603250E-1,-1.601659371E0,1.747237026E0
2.113444542E0,1.594789697E-1,-6.903205258E-1,-1.769122458E0,1.905720400E0
2.123413542E0,3.066535704E-3,-7.661507267E-1,-1.940658715E0,2.086421000E0
2.133382542E0,-6.415214181E-2,-8.650242198E-1,-2.151143276E0,2.319439543E0
2.143350542E0,-4.421649858E-2,-9.123094833E-1,-2.356199282E0,2.527041501E0
2.153319542E0,-3.381707937E-2,-9.476290047E-1,-2.519079906E0,2.691636658E0
2.163288542E0,9.881648272E-3,-1.024098891E0,-2.652815668E0,2.843643289E0
2.173257542E0,5.695374426E-2,-1.058605065E0,-2.762587786E0,2.959016676E0
2.183226542E0,9.640275210E-2,-1.060455709E0,-2.850988916E0,3.043353019E0
2.193195542E0,2.020322278E-1,-1.045966893E0,-2.912896312E0,3.101584867E0
2.203164542E0,3.668814630E-1,-1.015109966E0,-2.994739789E0,3.183318498E0
2.213133542E0,5.295336070E-1,-8.557271469E-1,-3.072345205E0,3.232952188E0
2.223102542E0,6.540483467E-1,-6.929482645E-1,-3.033589860E0,3.179720738E0
2.233071542E0,7.347510324E-1,-5.270224106E-1,-2.888160836E0,3.026397977E0
2.243040542E0,8.646754333E-1,-3.402027011E-1,-2.566932349E0,2.729934645E0
2.253009542E0,8.897086792E-1,-1.824261117E-1,-2.307209555E0,2.479531559E0
2.262978542E0,8.737070426E-1,-6.205533028E-2,-2.071888946E0,2.249430742E0
2.272947542E0,8.572969781E-1,5.811313748E-2,-1.793988912E0,1.989153454E0
2.282916542E0,6.315560085E-1,2.510934734E-1,-1.355137836E0,1.516017638E0
2.292885542E0,2.064599222E-1,4.689864564E-1,-8.953695148E-1,1.031630052E0
2.302854542E0,-2.582219968E-1,5.822183722E-1,-3.953203100E-1,7.496232254E-1
2.312823542E0,-6.251553538E-1,7.183614331E-1,-5.611572862E-2,9.539451452E-1
2.322788583E0,-8.604663152E-1,8.425364131E-1,3.099778587E-1,1.243525697E0
2.332757583E0,-9.976952040E-1,9.545082539E-1,8.962910360E-1,1.646152893E0
2.342726583E0,-9.477763546E-1,1.047426943E0,1.361208415E0,1.961701192E0
2.352695583E0,-7.365328252E-1,1.062481184E0,1.681814758E0,2.121284457E0
2.362663583E0,-4.918616411E-1,1.094922706E0,2.202931480E0,2.508722925E0
2.372632583E0,-2.593503267E-1,1.160384039E0,2.535119988E0,2.800104831E0
2.382601583E0,-5.633646101E-2,1.173379476E0,2.612963970E0,2.864886368E0
2.392570583E0,3.297157198E-2,1.319529462E0,2.723309700E0,3.026327948E0
2.402539583E0,-1.004605736E-1,1.624667580E0,2.663485082E0,3.121504422E0
2.412508583E0,-3.178499651E-1,1.873412812E0,2.211724523E0,2.915892579E0
2.422477583E0,-5.915052125E-1,1.931955720E0,2.018141924E0,2.855736008E0
2.432446583E0,-8.978575051E-1,2.053204168E0,2.284636964E0,3.200212729E0
2.442415583E0,-1.044522338E0,2.249147288E0,2.466266685E0,3.497450757E0
2.452384583E0,-9.404609030E-1,2.217622025E0,2.528900889E0,3.492513975E0
2.462353583E0,-6.362080532E-1,1.948259511E0,2.866902698E0,3.524146264E0
2.472322583E0,-3.678000972E-1,1.620809587E0,3.466052268E0,3.843932746E0
2.482291583E0,-1.402437133E-1,1.091368768E0,3.806885884E0,3.962718034E0
2.492260583E0,1.399282560E-2,4.618668866E-1,3.860241727E0,3.887799250E0
2.502229583E0,6.055142641E-2,-8.423264980E-2,3.610031183E0,3.611521391E0
2.512198583E0,1.263831809E-2,-4.909404123E-1,2.976435665E0,3.016678884E0
2.522167583E0,-1.787307080E-1,-7.567928427E-1,1.986381603E0,2.133164772E0
2.532136583E0,-5.480051805E-1,-8.445794302E-1,1.124284499E0,1.509185120E0
2.542105583E0,-8.976680553E-1,-7.740766275E-1,4.303720289E-1,1.261040303E0
2.552074583E0,-1.213067452E0,-7.034767610E-1,-2.126135319E-1,1.418314743E0
2.562043583E0,-1.417528211E0,-7.359551203E-1,-4.488860679E-1,1.659070484E0
2.572012583E0,-1.478382524E0,-7.572518492E-1,-2.991780514E-1,1.687765610E0
2.581980583E0,-1.363729150E0,-8.249281079E-1,3.489092052E-2,1.594202294E0
2.591949583E0,-9.767215338E-1,-1.033409997E0,3.223950058E-1,1.458032824E0
2.601918583E0,-5.813950843E-1,-1.292497784E0,3.757654667E-1,1.466209552E0
2.611887583E0,-2.725083160E-1,-1.522599753E0,4.523177987E-1,1.611571339E0
2.621856583E0,2.360151853E-2,-1.658635810E0,5.965639311E-1,1.762815449E0
2.631825583E0,2.190963399E-1,-1.734115178E0,5.104782987E-1,1.820919205E0
2.641794583E0,3.487788854E-1,-1.830263284E0,1.149007112E-1,1.866738485E0
2.651763583E0,3.690006767E-1,-1.862407182E0,-4.110721242E-1,1.942601942E0
2.661732583E0,2.199001859E-1,-1.785353744E0,-1.046362165E0,2.081037689E0
2.671701583E0,-1.366827589E-1,-1.726848258E0,-1.595652527E0,2.355163279E0
2.681670583E0,-5.392666995E-1,-1.723142293E0,-2.009039564E0,2.701160473E0
2.691639583E0,-8.650941671E-1,-1.764738216E0,-2.406153215E0,3.106809003E0
2.701608583E0,-1.092014739E0,-1.745958713E0,-2.763994042E0,3.446814628E0
2.711577583E0,-1.281450055E0,-1.683782346E0,-2.892532799E0,3.583850335E0
2.721546583E0,-1.404795461E0,-1.597521297E0,-2.936889777E0,3.626409538E0
2.731515583E0,-1.387208206E0,-1.504937069E0,-2.836444552E0,3.497799291E0
2.741484583E0,-1.264144197E0,-1.359669428E0,-2.784929997E0,3.347028024E0
2.751453583E0,-1.127115136E0,-1.188623752E0,-2.873106009E0,3.307257640E0
2.761422583E0,-9.806521784E-1,-1.056971353E0,-2.865378329E0,3.207687657E0
2.771391583E0,-8.625057509E-1,-8.865846580E-1,-2.789334120E0,3.051283887E0
2.781360583E0,-7.524175175E-1,-6.735945654E-1,-2.751426036E0,2.930905490E0
2.791329583E0,-6.512481152E-1,-4.901288188E-1,-2.747725918E0,2.866068403E0
2.801298583E0,-6.343559477E-1,-3.144293439E-1,-2.543059337E0,2.639777277E0
2.811266583E0,-5.294452044E-1,-1.797837549E-1,-2.250554713E0,2.318971957E0
2.821235583E0,-4.554853816E-1,1.306034088E-2,-1.757233899E0,1.815353542E0
2.831204583E0,-5.512569268E-1,2.061131823E-1,-1.239105688E0,1.371768840E0
2.841173583E0,-7.282031742E-1,2.908808523E-1,-8.601757085E-1,1.163956091E0
2.851142583E0,-7.293762718E-1,3.938310242E-1,-5.258272398E-1,9.816246266E-1
2.861111583E0,-5.858758056E-1,4.832560015E-1,-3.095632911E-1,8.201318514E-1
2.871080583E0,-5.431675963E-1,5.897525096E-1,-1.209730446E-1,8.108474195E-1
2.881049583E0,-7.010997216E-1,8.051370370E-1,2.314795732E-1,1.092414418E0
2.891018583E0,-9.765008014E-1,1.008724222E0,4.117071319E-1,1.463072498E0
2.900987583E0,-1.185933448E0,1.083414216E0,4.713306051E-1,1.674030181E0
2.910956583E0,-1.320634586E0,1.138004406E0,6.281956136E-1,1.853040600E0
2.920925583E0,-1.353528097E0,1.130245736E0,9.717300582E-1,2.013393414E0
2.930894583E0,-1.278651870E0,1.080781800E0,1.271502771E0,2.102322335E0
2.940863583E0,-1.020470986E0,9.863738251E-1,1.614216267E0,2.149415854E0
2.950832583E0,-7.868478236E-1,8.644348204E-1,1.846396337E0,2.185304667E0
2.960801583E0,-5.985440907E-1,8.158245778E-1,1.946344548E0,2.193645794E0
2.970770583E0,-3.879072100E-1,8.615006876E-1,1.991406115E0,2.204167361E0
2.980739583E0,-3.039052328E-1,1.060797186E0,2.040136226E0,2.319440639E0
2.990708583E0,-3.873173721E-1,1.420745350E0,1.923450944E0,2.422435888E0
3.000677583E0,-2.305926968E-1,1.501465577E0,1.767743685E0,2.330770174E0
3.010646583E0,2.074058555E-1,1.306578464E0,1.910371308E0,2.323721800E0
3.020615583E0,5.572870872E-1,1.231532959E0,2.089411882E0,2.488550650E0
3.030583583E0,7.932958406E-1,1.158746234E0,2.254811486E0,2.656348238E0
3.040552583E0,1.126825407E0,7.839847344E-1,2.475953182E0,2.831026620E0
3.050521583E0,1.536699144E0,2.625686342E-1,2.660197778E0,3.083348628E0
3.060490583E0,1.747110322E0,-1.824255270E-1,2.800949029E0,3.306204624E0
3.070459583E0,1.880530335E0,-5.502001888E-1,2.793082770E0,3.411806845E0
3.080428583E0,2.041815839E0,-8.825144112E-1,2.552273380E0,3.385549144E0
3.090397583E0,2.123741908E0,-1.131025169E0,2.093012012E0,3.189074616E0
3.100366583E0,2.083797970E0,-1.250458058E0,1.559771672E0,2.887688869E0
3.110335583E0,1.908788028E0,-1.186080213E0,1.029578902E0,2.471900225E0
3.120304583E0,1.655217820E0,-1.065940397E0,5.014583838E-1,2.031609084E0
3.130273583E0,1.447091149E0,-9.946651769E-1,-3.807356000E-2,1.756382989E0
3.140242583E0,1.324793125E0,-9.876327306E-1,-5.241192681E-1,1.733550185E0
3.150211583E0,1.242644716E0,-1.000362119E0,-8.486192715E-1,1.806943532E0
3.160180583E0,1.211513993E0,-9.767446303E-1,-9.102413231E-1,1.802868685E0
3.170149583E0,1.198858060E0,-9.307083321E-1,-7.712822431E-1,1.702455564E0
3.180118583E0,1.197856871E0,-9.393663043E-1,-7.344599873E-1,1.690177982E0
3.190087583E0,1.079660450E0,-9.760207450E-1,-5.795766002E-1,1.566586166E0
3.200056583E0,9.482866703E-1,-9.658179384E-1,-4.733075488E-1,1.433900950E0
3.210025583E0,8.168253288E-1,-9.588404560E-1,-5.507767242E-1,1.374748573E0
3.219994583E0,6.713270152E-1,-9.606723887E-1,-7.138310105E-1,1.372270422E0
3.229963583E0,4.900803600E-1,-9.207452613E-1,-8.705276191E-1,1.358590789E0
3.239931583E0,3.166479237E-1,-8.712456572E-1,-1.135421691E0,1.465782153E0
3.249900583E0,2.963422249E-1,-8.671391577E-1,-1.446074903E0,1.711981793E0
3.259869583E0,3.568497241E-1,-8.284072012E-1,-1.665899806E0,1.894418745E0
3.269838583E0,3.330286791E-1,-7.888847011E-1,-1.867360359E0,2.054332466E0
3.279807583E0,2.775116323E-1,-8.311355120E-1,-1.992222387E0,2.176407357E0
3.289776583E0,2.319165064E-1,-9.055389923E-1,-2.079941146E0,2.280337980E0
3.299745583E0,1.930064292E-1,-9.704653054E-1,-2.120319094E0,2.339830646E0
3.309714583E0,1.354377405E-1,-1.031706703E0,-2.167636517E0,2.404456316E0
3.319689792E0,8.227032423E-2,-1.090328549E0,-2.328493420E0,2.572443655E0
3.329658792E0,2.345478997E-2,-1.082886797E0,-2.504052562E0,2.728272929E0
3.339627792E0,-2.148076996E-2,-1.006378319E0,-2.624853113E0,2.811247519E0
3.349596792E0,-3.223643079E-2,-8.914501262E-1,-2.716581894E0,2.859290069E0
3.359565792E0,-1.253118979E-1,-7.835438544E-1,-2.759239671E0,2.871070811E0
3.369534792E0,-2.331395978E-1,-6.329143167E-1,-2.674312372E0,2.758057517E0
3.379503792E0,-2.783366744E-1,-4.956357265E-1,-2.426941820E0,2.492623653E0
3.389472792E0,-2.772773051E-1,-3.662187177E-1,-2.220949675E0,2.267954213E0
3.399441792E0,-2.234048608E-1,-2.874725103E-1,-2.010086800E0,2.042791991E0
3.409410792E0,-1.757309036E-1,-1.885598409E-1,-1.707115075E0,1.726464029E0
3.419379792E0,-8.031896219E-2,1.576877117E-2,-1.369962866E0,1.372405933E0
3.429348792E0,-7.054534122E-2,2.830145931E-1,-1.030208062E0,1.070701899E0
3.439317792E0,-1.212281294E-1,5.647778821E-1,-7.272392607E-1,9.287342234E-1
3.449285792E0,-8.412973881E-2,8.261618704E-1,-3.845316124E-1,9.151425080E-1
3.459254792E0,-8.746557534E-2,1.025098765E0,3.172453630E-1,1.076625434E0
3.469223792E0,-1.264206031E-1,1.134860943E0,1.109381701E0,1.592048770E0
3.479192792E0,-6.573205948E-2,1.177652621E0,1.592403814E0,1.981649895E0
3.489161792E0,1.809252776E-1,1.125068611E0,1.920844256E0,2.233418006E0
3.499130792E0,4.230381587E-1,1.082839435E0,2.202025162E0,2.490063722E0
3.509099792E0,6.419175670E-1,1.116745099E0,2.253016391E0,2.595238069E0
3.519068792E0,8.436489920E-1,1.133689746E0,2.165945503E0,2.586177871E0
3.529037792E0,9.154712190E-1,1.265345653E0,1.989724456E0,2.529464486E0
3.539006792E0,8.948770331E-1,1.519553354E0,1.562726271E0,2.356259896E0
3.548975792E0,6.648750512E-1,1.863735670E0,1.191425153E0,2.309775612E0
3.558944792E0,3.329898682E-1,2.159094905E0,9.778766513E-1,2.393494476E0
3.568913792E0,9.121364057E-3,2.219201943E0,9.102804995E-1,2.398656092E0
3.578882792E0,-4.107444244E-1,2.170071883E0,1.138762205E0,2.484894830E0
3.588851792E0,-8.274456266E-1,2.080248125E0,1.379313149E0,2.629563327E0
3.598820792E0,-1.125536973E0,1.826154445E0,1.702536120E0,2.738668066E0
3.608789792E0,-1.266884933E0,1.401385803E0,2.328044938E0,2.998111545E0
3.618758792E0,-1.143967981E0,7.854693425E-1,3.099533588E0,3.395987823E0
3.628727792E0,-8.004183340E-1,5.322778881E-2,3.820264898E0,3.903578691E0
3.638696792E0,-5.193397540E-1,-5.094737470E-1,4.147411936E0,4.210736639E0
3.648665792E0,-2.868399878E-1,-9.628539848E-1,3.821520295E0,3.951377271E0
3.658633792E0,-6.850071609E-2,-1.315914713E0,3.135789249E0,3.401396492E0
3.668602792E0,-1.401960585E-1,-1.285620289E0,2.147734934E0,2.507038055E0
3.678571792E0,-4.916979191E-1,-1.003327827E0,1.231241768E0,1.662645441E0
3.688540792E0,-7.643924689E-1,-6.936481762E-1,3.648452067E-1,1.094785670E0
3.698509792E0,-9.252031785E-1,-4.228712207E-1,-3.534285182E-1,1.076908867E0
3.708478792E0,-9.966196087E-1,-3.131131357E-1,-6.490017611E-1,1.229834853E0
3.718447792E0,-1.009801864E0,-2.499936122E-1,-5.230042040E-1,1.164358196E0
3.728416792E0,-8.898152447E-1,-2.906048638E-1,-1.891702902E-1,9.549909713E-1
3.738385792E0,-5.385007873E-1,-4.746477306E-1,-7.842811882E-2,7.220973175E-1
3.748354792E0,-1.796884453E-1,-7.088912827E-1,-8.200544536E-2,7.358937974E-1
3.758323792E0,1.077814338E-1,-9.088947093E-1,-4.880495489E-2,9.165633387E-1
3.768292792E0,4.076817624E-1,-1.035000440E0,-9.773387074E-2,1.116683590E0
3.778261792E0,5.743184915E-1,-1.114039593E0,-3.207852674E-1,1.293765486E0
3.788230792E0,6.376669335E-1,-1.136615108E0,-6.265893835E-1,1.446073054E0
3.798199792E0,6.083465092E-1,-1.114817272E0,-1.029548496E0,1.634892391E0
3.808168792E0,5.011060891E-1,-1.097471507E0,-1.537767431E0,1.954553579E0
3.818137792E0,2.761349054E-1,-1.091093364E0,-2.004570537E0,2.298921106E0
3.828106792E0,-1.531020328E-2,-1.031866332E0,-2.336322842E0,2.554092197E0
3.838075792E0,-2.595659427E-1,-9.805043900E-1,-2.486736617E0,2.685632577E0
3.848044792E0,-4.827028549E-1,-9.575113839E-1,-2.536130971E0,2.753505112E0
3.858013792E0,-6.084622841E-1,-9.309854901E-1,-2.635235429E0,2.860319231E0
3.867982792E0,-6.147563732E-1,-9.216217589E-1,-2.714183366E0,2.931570127E0
3.877950792E0,-5.945247146E-1,-8.555037832E-1,-2.444554803E0,2.657290828E0
3.887919792E0,-5.352601142E-1,-7.205547237E-1,-2.117931091E0,2.300290114E0
3.897888792E0,-5.182274674E-1,-6.955882823E-1,-1.687449719E0,1.897337430E0
3.907857792E0,-5.945557414E-1,-6.372652298E-1,-1.309947630E0,1.573393242E0
3.917826792E0,-7.408350603E-1,-5.841514617E-1,-1.209468491E0,1.533911193E0
3.927795792E0,-7.512640080E-1,-5.426368153E-1,-1.276245448E0,1.577230093E0
3.937764792E0,-6.936680567E-1,-3.608223224E-1,-1.403695453E0,1.606775979E0
3.947733792E0,-5.818067282E-1,-1.592652905E-1,-1.548571916E0,1.661908385E0
3.957702792E0,-4.787723565E-1,-5.515678525E-2,-1.667791965E0,1.736028594E0
3.967671792E0,-4.011236715E-1,-7.705402315E-2,-1.765937480E0,1.812559711E0
3.977640792E0,-4.017060542E-1,-1.200573707E-1,-1.755721225E0,1.805086852E0
3.987609792E0,-4.073294677E-1,-1.342818922E-1,-1.503944212E0,1.563904445E0
3.997578792E0,-4.204418488E-1,-1.492121726E-1,-1.199891337E0,1.280146414E0
4.007547792E0,-4.915034992E-1,-1.622175497E-1,-1.042909384E0,1.164280982E0
4.017516792E0,-5.948186834E-1,-5.942525268E-2,-9.081047505E-1,1.087195872E0
4.027485792E0,-7.038738600E-1,1.437590593E-1,-5.397067755E-1,8.985479851E-1
4.037454792E0,-7.240976248E-1,2.575493842E-1,-1.287551039E-1,7.792476707E-1
4.047423792E0,-5.336953993E-1,2.977174169E-1,-4.435346961E-2,6.127264233E-1
4.057392792E0,-4.112943184E-1,3.296367824E-1,1.247444987E-2,5.272371730E-1
4.067361792E0,-3.360524205E-1,4.259854478E-1,2.821521288E-1,6.115591998E-1
4.077330792E0,-3.210175480E-1,5.776382482E-1,7.024342024E-1,9.644335232E-1
4.087298792E0,-2.775326823E-1,6.627117276E-1,8.803304762E-1,1.136306724E0
4.097267792E0,-1.784644769E-1,6.757381546E-1,1.134379717E0,1.332399702E0
4.107236792E0,-2.160803461E-1,7.790420830E-1,1.569240069E0,1.765251165E0
4.117205792E0,-3.169408692E-1,1.004206663E0,1.726611446E0,2.022392055E0
4.127174792E0,-2.568842635E-1,1.079138732E0,1.686487852E0,2.018606253E0
4.137143792E0,-7.395580284E-2,9.565787530E-1,1.731971589E0,1.979959079E0
4.147112792E0,1.911592937E-1,9.407117486E-1,1.760162185E0,2.004906827E0
4.157081792E0,6.047761993E-1,8.553248584E-1,1.816166232E0,2.096615045E0
4.167050792E0,1.107521555E0,4.941037560E-1,2.156623287E0,2.474220386E0
4.177019792E0,1.499101986E0,1.662433577E-1,2.808983104E0,3.188311418E0
4.186988792E0,1.822816124E0,-4.610997319E-2,3.284289815E0,3.756506934E0
4.196957792E0,1.864837285E0,-2.947253966E-1,3.682549521E0,4.138315132E0
4.206926792E0,1.831524674E0,-6.921144515E-1,3.954500012E0,4.412660807E0
4.216895792E0,1.826266566E0,-1.078315444E0,3.839322728E0,4.386161508E0
4.226864792E0,1.767056929E0,-1.315290815E0,3.274856502E0,3.946791764E0
4.236833792E0,1.612970371E0,-1.369713775E0,2.664379122E0,3.402455782E0
4.246802792E0,1.440260870E0,-1.194445825E0,2.144936457E0,2.846366913E0
4.256771792E0,1.410849668E0,-9.366947114E-1,1.360205033E0,2.172107617E0
4.266740792E0,1.441936975E0,-7.706770563E-1,5.309961784E-1,1.719035283E0
4.276709792E0,1.435610434E0,-6.565417457E-1,3.695440292E-2,1.579047184E0
4.286678792E0,1.446088352E0,-5.638084137E-1,-1.205608159E-1,1.556787191E0
4.296646792E0,1.391319091E0,-4.736443484E-1,-2.131953299E-1,1.485112800E0
4.306615792E0,1.330510825E0,-4.768632406E-1,-3.467346257E-1,1.455294646E0
4.316584792E0,1.231034192E0,-5.323384067E-1,-4.574586707E-1,1.417073674E0
4.326547167E0,1.023877720E0,-5.467757669E-1,-4.417308301E-1,1.241940196E0
4.336516167E0,8.680369976E-1,-5.312683663E-1,-4.725778162E-1,1.122080255E0
4.346485167E0,7.557479453E-1,-5.646515822E-1,-7.171083748E-1,1.185002442E0
4.356454167E0,5.959556380E-1,-6.141929939E-1,-1.083516542E0,1.380725988E0
4.366423167E0,3.922714256E-1,-6.310519785E-1,-1.449753971E0,1.629076440E0
4.376392167E0,2.162179019E-1,-6.031999362E-1,-1.864613337E0,1.971644806E0
4.386361167E0,1.012193960E-1,-5.688522220E-1,-2.244058456E0,2.317247629E0
4.396330167E0,-1.279107660E-2,-5.346629673E-1,-2.537278780E0,2.593031374E0
4.406299167E0,-2.452515934E-2,-5.013867554E-1,-2.802824231E0,2.847422314E0
4.416268167E0,-3.777008951E-3,-4.938225049E-1,-2.853522515E0,2.895939515E0
4.426237167E0,9.907083660E-3,-4.280132622E-1,-2.796460122E0,2.829042721E0
4.436206167E0,1.205654937E-1,-4.253820151E-1,-2.790768442E0,2.825575056E0
4.446175167E0,2.449917212E-1,-4.906752411E-1,-2.864752677E0,2.916777509E0
4.456144167E0,3.235602097E-1,-5.277860570E-1,-2.904871593E0,2.970105773E0
4.466113167E0,3.535302597E-1,-5.452896971E-1,-2.864611759E0,2.937401067E0
4.476082167E0,3.516234827E-1,-5.913692647E-1,-2.929946208E0,3.009641418E0
4.486051167E0,2.868550078E-1,-6.747949988E-1,-3.094447680E0,3.180132156E0
4.496019167E0,2.422668090E-1,-6.946211529E-1,-3.106815126E0,3.192724852E0
4.505988167E0,1.163066742E-1,-6.148335564E-1,-3.002929984E0,3.067431505E0
4.515957167E0,-6.793265909E-2,-5.211319256E-1,-2.762038148E0,2.811591731E0
4.525926167E0,-1.830345145E-1,-4.262129045E-1,-2.341937338E0,2.387431584E0
4.535895167E0,-2.204441597E-1,-3.436180598E-1,-1.884742962E0,1.928451459E0
4.545864167E0,-2.223438835E-1,-2.659149957E-1,-1.465521573E0,1.505955201E0
4.555833167E0,-2.163424841E-1,-1.526824951E-1,-1.033599447E0,1.066978834E0
4.565802167E0,-1.976831053E-1,-6.872232556E-3,-6.819677782E-1,7.100745653E-1
4.575771167E0,-1.464973104E-1,1.643599695E-1,-3.719051349E-1,4.321910352E-1
4.585740167E0,-1.115720375E-1,4.055090833E-1,-5.377450347E-2,4.240019262E-1
4.595709167E0,-7.509462118E-2,6.919875669E-1,2.714417839E-1,7.471055059E-1
4.605678167E0,-3.205852926E-2,8.752743888E-1,5.885304415E-1,1.055225609E0
4.615647167E0,8.439395986E-3,1.029311684E0,8.964758080E-1,1.364999136E0
4.625616167E0,5.649287403E-3,1.171312485E0,1.193989157E0,1.672607234E0
4.635585167E0,-1.888767600E-2,1.248315053E0,1.443878689E0,1.908777851E0
4.645554167E0,9.454216808E-3,1.239048386E0,1.718624150E0,2.118725856E0
4.655523167E0,1.155538452E-1,1.253667594E0,2.041435477E0,2.398435727E0
4.665492167E0,1.999510941E-1,1.343145781E0,2.174376018E0,2.563577987E0
4.675461167E0,1.742395712E-1,1.508019721E0,2.111060613E0,2.600203803E0
4.685429167E0,1.086471140E-1,1.674394641E0,1.878108126E0,2.518470119E0
4.695398167E0,-7.366351515E-2,1.834431764E0,1.744682851E0,2.532683253E0
4.705367167E0,-3.835051337E-1,2.060506171E0,1.792923549E0,2.758140084E0
4.715336167E0,-5.416030276E-1,2.305989826E0,1.793116508E0,2.970890393E0
4.725305167E0,-4.804980160E-1,2.299293594E0,2.073117446E0,3.132961111E0
4.735274167E0,-2.281077946E-1,2.030913997E0,2.790552680E0,3.458876854E0
4.745243167E0,1.649245182E-1,1.568948000E0,3.813387403E0,4.126829462E0
4.755212167E0,4.215868432E-1,8.365789774E-1,4.846386926E0,4.936098265E0
4.765181167E0,5.043065625E-1,9.620190024E-2,5.550039103E0,5.573734292E0
4.775150167E0,5.769044226E-1,-4.663747975E-1,5.527074748E0,5.576636929E0
4.785119167E0,7.041820814E-1,-9.443680125E-1,4.726327801E0,4.870921661E0
4.795088167E0,5.449064121E-1,-1.155245506E0,3.531615343E0,3.755505573E0
4.805057167E0,-6.951900870E-2,-1.029229823E0,2.549588923E0,2.750372810E0
4.815026167E0,-6.407916856E-1,-7.215241921E-1,1.929698110E0,2.157532372E0
4.824995167E0,-9.018263027E-1,-4.376658458E-1,1.144985982E0,1.521786769E0
4.834964167E0,-9.875647567E-1,-2.930606943E-1,5.427976137E-1,1.164387379E0
4.844933167E0,-1.048626937E0,-2.018792135E-1,3.500675386E-1,1.123797558E0
4.854902167E0,-1.041204920E0,-2.066759768E-1,3.650457662E-1,1.122533321E0
4.864871167E0,-9.563327314E-1,-3.973083633E-1,3.326457596E-1,1.087694548E0
4.874840167E0,-8.191554442E-1,-7.293793416E-1,1.387099886E-1,1.105554307E0
4.884808167E0,-7.394637421E-1,-1.080596735E0,7.928824425E-3,1.309411622E0
4.894777167E0,-7.307740487E-1,-1.344825394E0,-1.454161602E-1,1.537443303E0
4.904746167E0,-6.704834081E-1,-1.562744397E0,-3.528467202E-1,1.736726478E0
4.914715167E0,-5.521853185E-1,-1.697671822E0,-5.695743531E-1,1.873876512E0
4.924684167E0,-3.908968914E-1,-1.698340158E0,-9.171685195E-1,1.969354657E0
4.934653167E0,-2.122612372E-1,-1.669499937E0,-1.353440974E0,2.159649819E0
4.944622167E0,-1.432996143E-1,-1.642595143E0,-1.744472351E0,2.400382754E0
4.954591167E0,-2.548456317E-1,-1.552245136E0,-2.165198813E0,2.676284208E0
4.964560167E0,-4.789935274E-1,-1.479615117E0,-2.576836363E0,3.009780945E0
4.974529167E0,-6.807625209E-1,-1.468396064E0,-2.967560177E0,3.380242301E0
4.984498167E0,-9.232819296E-1,-1.431458033E0,-3.128512974E0,3.562178414E0
4.994467167E0,-1.086545254E0,-1.446621618E0,-3.124832736E0,3.610799679E0
5.004436167E0,-1.174632388E0,-1.510272653E0,-3.125194094E0,3.664358451E0
5.014405167E0,-1.255691900E0,-1.564616675E0,-3.045210031E0,3.646654854E0
5.024374167E0,-1.259001278E0,-1.600510393E0,-2.738134146E0,3.412344698E0
5.034343167E0,-1.252250229E0,-1.528404284E0,-2.579434281E0,3.249250914E0
5.044312167E0,-1.115746395E0,-1.449508973E0,-2.515844057E0,3.110536545E0
5.054281167E0,-9.436637154E-1,-1.342287995E0,-2.458150749E0,2.955459926E0
5.064250167E0,-8.187926245E-1,-1.140673660E0,-2.513006988E0,2.878673632E0
5.074218167E0,-6.317087670E-1,-9.480616987E-1,-2.512445655E0,2.758669991E0
5.084187167E0,-3.894862506E-1,-7.935326529E-1,-2.406503463E0,2.563718496E0
5.094156167E0,-2.976171371E-1,-6.218069458E-1,-2.250075241E0,2.353307976E0
5.104125167E0,-3.122097409E-1,-5.194526052E-1,-1.962234356E0,2.053696570E0
5.114094167E0,-4.260742158E-1,-4.110183299E-1,-1.657722475E0,1.760261091E0
5.124063167E0,-5.104668966E-1,-2.714020228E-1,-1.377373043E0,1.493784459E0
5.134032167E0,-6.722359648E-1,-5.789328218E-2,-1.071206984E0,1.265992586E0
5.144001167E0,-8.831681299E-1,1.455664337E-1,-8.509388620E-1,1.235019222E0
5.153970167E0,-1.037544783E0,3.094902009E-1,-4.913736910E-1,1.189004401E0
5.163939167E0,-1.042908214E0,4.934500372E-1,-1.848065132E-1,1.168462207E0
5.173908167E0,-8.898747401E-1,6.450467044E-1,-9.029270411E-3,1.099110473E0
5.183877167E0,-7.501998147E-1,7.508643508E-1,9.287892759E-2,1.065468691E0
5.193846167E0,-6.746831708E-1,8.886376154E-1,3.317686772E-1,1.164020897E0
5.203815167E0,-5.535006496E-1,9.976390707E-1,7.126598132E-1,1.345187977E0
5.213784167E0,-4.107484809E-1,1.040987989E0,1.156443601E0,1.609264462E0
5.223753167E0,-2.029881379E-1,1.046492558E0,1.692112874E0,1.999899206E0
5.233722167E0,6.446716055E-2,1.060720003E0,2.161907415E0,2.408967956E0
5.243691167E0,1.974635424E-1,1.144834539E0,2.601271877E0,2.848903886E0
5.253660167E0,2.405067971E-1,1.362590697E0,2.676453622E0,3.012955512E0
5.263628167E0,3.018528602E-1,1.539494698E0,2.351900994E0,2.827118207E0
5.273597167E0,4.558319753E-1,1.526412722E0,1.949277511E0,2.517419593E0
5.283566167E0,6.495997851E-1,1.532565163E0,1.914006522E0,2.536563980E0
5.293535167E0,9.063483931E-1,1.615755254E0,1.980333828E0,2.711799130E0
5.303504167E0,1.009924509E0,1.684772279E0,2.156805135E0,2.917227029E0
5.313473167E0,1.035689973E0,1.424606558E0,2.529454036E0,3.082254903E0
5.323441833E0,1.087773608E0,8.331180105E-1,3.120371895E0,3.407940405E0
5.333410833E0,1.031761521E0,3.244742757E-1,3.660878570E0,3.817308908E0
5.343379833E0,9.545632178E-1,-8.270360291E-2,4.192687511E0,4.300774278E0
5.353348833E0,9.657761309E-1,-5.119810331E-1,4.385600604E0,4.519772204E0
5.363317833E0,1.063927931E0,-8.601549509E-1,4.180961505E0,4.399119036E0
5.373286833E0,1.191931960E0,-1.034806897E0,3.544001500E0,3.879622887E0
5.383255833E0,1.257663581E0,-1.072724921E0,2.706020068E0,3.170962164E0
5.393224833E0,1.162940734E0,-8.925131500E-1,1.971585224E0,2.456859615E0
5.403193833E0,1.161808567E0,-7.224214473E-1,9.565571183E-1,1.669339215E0
5.413162833E0,1.305116368E0,-6.278506279E-1,-3.016870916E-2,1.448597700E0
5.423131833E0,1.491362173E0,-5.260880256E-1,-7.053648269E-1,1.731608871E0
5.433100833E0,1.613607279E0,-4.575574887E-1,-1.169715611E0,2.044828090E0
5.443069833E0,1.611994471E0,-5.407008022E-1,-1.359465360E0,2.176931234E0
5.453037833E0,1.559167363E0,-7.224270022E-1,-1.524619381E0,2.297252249E0
5.463006833E0,1.453235842E0,-9.005694437E-1,-1.771015202E0,2.461587817E0
5.472975833E0,1.286161302E0,-1.054343029E0,-1.947366056E0,2.560875764E0
5.482944833E0,1.098696353E0,-1.092932314E0,-2.095831540E0,2.606557991E0
5.492913833E0,8.218335421E-1,-1.057298797E0,-2.284501893E0,2.648063446E0
5.502882833E0,5.546559864E-1,-9.955171162E-1,-2.594169849E0,2.833445746E0
5.512851833E0,3.674020480E-1,-9.518857777E-1,-2.967211098E0,3.137740031E0
5.522820833E0,1.969814394E-1,-9.538001561E-1,-3.168550614E0,3.314852850E0
5.532789833E0,6.104361579E-2,-9.697390813E-1,-3.243861582E0,3.386260204E0
5.542758833E0,2.095642090E-3,-1.028658550E0,-3.276672648E0,3.434345126E0
5.552727833E0,-8.466132380E-2,-1.065735744E0,-3.221714668E0,3.394466912E0
5.562696833E0,-1.800960694E-1,-1.060865598E0,-3.061048384E0,3.244670649E0
5.572665833E0,-2.470808948E-1,-1.027572137E0,-2.727087586E0,2.924715399E0
5.582634833E0,-3.137867349E-1,-1.068764602E0,-2.400198995E0,2.646067857E0
5.592603833E0,-3.428539748E-1,-1.140383638E0,-2.237759251E0,2.534874781E0
5.602572833E0,-3.455102187E-1,-1.225094590E0,-2.243874854E0,2.579769064E0
5.612541833E0,-2.800260812E-1,-1.272245368E0,-2.305633146E0,2.648200726E0
5.622510833E0,-1.706882648E-1,-1.196183617E0,-2.250903792E0,2.554712823E0
5.632478833E0,-1.411998061E-1,-9.915211290E-1,-2.107708404E0,2.333556567E0
5.642447833E0,-1.219218285E-1,-7.691029859E-1,-1.959628837E0,2.108679567E0
5.652416833E0,-1.316409972E-1,-5.785878360E-1,-1.742877231E0,1.841117671E0
5.662385833E0,-8.910250336E-2,-4.728315854E-1,-1.586361886E0,1.657725248E0
5.672354833E0,-3.271283269E-2,-4.215707999E-1,-1.392274087E0,1.455066735E0
5.682323833E0,3.492030278E-2,-3.348981071E-1,-1.110378651E0,1.160308975E0
5.692292833E0,5.233608842E-2,-2.330220687E-1,-8.043733907E-1,8.390797950E-1
5.702261833E0,-7.753188685E-2,-1.062614501E-1,-6.215525919E-1,6.353190645E-1
5.712230833E0,-1.941244168E-1,3.649715066E-2,-5.234561938E-1,5.594843322E-1
5.722199833E0,-3.247982115E-1,2.113698292E-1,-3.388069707E-1,5.147438647E-1
5.732168833E0,-3.904010475E-1,4.942008197E-1,-1.103825676E-1,6.393995146E-1
5.742137833E0,-3.860784933E-1,7.005268407E-1,2.185437781E-1,8.291898700E-1
5.752106833E0,-3.105900621E-1,8.369950068E-1,4.663663191E-1,1.007236006E0
5.762075833E0,-2.075215207E-1,9.929057497E-1,6.618703133E-1,1.211197474E0
5.772044833E0,-1.336037613E-1,1.128214998E0,9.579013932E-1,1.486033016E0
5.782013833E0,-9.669832885E-4,1.170980948E0,1.264463308E0,1.723387587E0
5.791982833E0,1.395882404E-1,1.174140784E0,1.503170625E0,1.912488793E0
5.801951833E0,1.337797260E-1,1.161344737E0,1.559207416E0,1.948780742E0
5.811920833E0,-7.331385165E-3,1.247671859E0,1.579733482E0,2.013031717E0
5.821888833E0,-2.312521531E-1,1.451135668E0,1.450309457E0,2.064623405E0
5.831857833E0,-5.056539072E-1,1.680193325E0,1.321037459E0,2.196332272E0
5.841826833E0,-7.277880219E-1,1.896789980E0,1.467481560E0,2.506190288E0
5.851795833E0,-8.484429780E-1,2.054325664E0,1.684069444E0,2.788583747E0
5.861764833E0,-9.377330308E-1,2.117052255E0,1.942639167E0,3.022432864E0
5.871733833E0,-9.650857209E-1,1.986312606E0,2.543030101E0,3.368060319E0
5.881702833E0,-7.404677090E-1,1.586099930E0,3.217567822E0,3.662887947E0
5.891671833E0,-3.418932773E-1,9.766692013E-1,3.878650516E0,4.014312340E0
5.901640833E0,-1.170226840E-1,3.490852064E-1,4.531915482E0,4.546846459E0
5.911609833E0,-1.076484096E-1,-1.644611263E-1,4.543176634E0,4.547426698E0
5.921578833E0,-1.777331364E-1,-6.584964699E-1,3.953676724E0,4.012077555E0
5.931547833E0,-2.878193964E-1,-9.772141618E-1,2.967019894E0,3.137035954E0
5.941516833E0,-6.473683414E-1,-9.361134982E-1,2.139625431E0,2.423508043E0
5.951485833E0,-1.148885051E0,-6.509301728E-1,1.430721284E0,1.946948983E0
5.961454833E0,-1.488776827E0,-4.220496869E-1,8.429422098E-1,1.762139026E0
5.971423833E0,-1.629315239E0,-3.377386844E-1,7.123212594E-1,1.810010261E0
5.981392833E0,-1.637448716E0,-2.280519354E-1,8.989228678E-1,1.881836419E0
5.991360833E0,-1.447803048E0,-2.449790400E-1,1.327355375E0,1.979399072E0
6.001329833E0,-1.068504547E0,-4.326635528E-1,1.678057337E0,2.035872330E0
6.011298833E0,-6.595271878E-1,-7.026897258E-1,1.873668920E0,2.106984619E0
6.021267833E0,-4.256989342E-1,-9.630434346E-1,2.018472877E0,2.276599436E0
6.031236833E0,-1.183080299E-1,-1.178941348E0,1.908314257E0,2.246233023E0
6.041205833E0,2.771843344E-1,-1.350474097E0,1.576224568E0,2.094061921E0
6.051174833E0,6.763040189E-1,-1.498526182E0,8.867156357E-1,1.867948731E0
6.061143833E0,9.447188455E-1,-1.551337649E0,9.984354615E-2,1.819096185E0
6.071112833E0,1.011642568E0,-1.480056581E0,-7.565028208E-1,1.945837785E0
6.081081833E0,7.820110068E-1,-1.391123355E0,-1.575546876E0,2.242568474E0
6.091050833E0,4.684068511E-1,-1.346359996E0,-2.160251484E0,2.588199507E0
6.101019833E0,2.279330908E-1,-1.357983676E0,-2.779573948E0,3.101951722E0
6.110988833E0,2.005594969E-2,-1.349407564E0,-3.218756561E0,3.490228763E0
6.120957833E0,-2.018277945E-1,-1.328518971E0,-3.381246591E0,3.638478477E0
6.130926833E0,-3.440924151E-1,-1.294587579E0,-3.435528048E0,3.687439431E0
6.140895833E0,-4.217772067E-1,-1.237985947E0,-3.328158551E0,3.575911710E0
6.150864833E0,-4.595570903E-1,-1.220640181E0,-3.116836669E0,3.378731418E0
6.160833833E0,-4.768455528E-1,-1.310571527E0,-2.782217474E0,3.112187893E0
6.170801833E0,-3.797997897E-1,-1.370596120E0,-2.625682248E0,2.986132762E0
6.180770833E0,-2.956467716E-1,-1.421633542E0,-2.416181774E0,2.818933008E0
6.190739833E0,-2.846233083E-1,-1.370360477E0,-2.247566201E0,2.647725834E0
6.200708833E0,-1.979797053E-1,-1.297307119E0,-2.380155324E0,2.717966352E0
6.210677833E0,-1.460703540E-1,-1.221714315E0,-2.410886536E0,2.706713192E0
6.220646833E0,-1.417343147E-1,-1.065931041E0,-2.369887614E0,2.602434418E0
6.230615833E0,-1.378441621E-1,-9.472056663E-1,-2.307663884E0,2.498301861E0
6.240584833E0,-2.402793404E-1,-7.553117430E-1,-2.247055154E0,2.382747754E0
6.250553833E0,-4.220068561E-1,-5.284158021E-1,-2.065050627E0,2.172958154E0
6.260522833E0,-6.796525732E-1,-3.614356953E-1,-1.723965581E0,1.888020314E0
6.270491833E0,-9.081762327E-1,-2.210902405E-1,-1.336098717E0,1.630590306E0
6.280460833E0,-1.059014443E0,-8.345146179E-3,-8.885680336E-1,1.382437840E0
6.290429833E0,-1.036424968E0,2.444112754E-1,-5.058467191E-1,1.178895453E0
6.300398833E0,-8.882688023E-1,4.428996885E-1,-2.444323254E-1,1.022217570E0
6.310367833E0,-7.138443860E-1,5.924334580E-1,-2.651653826E-2,9.280378959E-1
6.320336833E0,-5.370173487E-1,7.620676160E-1,1.185575598E-1,9.397821977E-1
6.330306167E0,-3.719636802E-1,8.630589706E-1,2.007214648E-1,9.609978525E-1
6.340274167E0,-3.353667614E-1,8.983860934E-1,3.734856373E-1,1.029106388E0
6.350243167E0,-2.641412428E-1,9.583305788E-1,6.909274668E-1,1.210598554E0
6.360212167E0,-1.446829194E-1,1.010339223E0,1.161849352E0,1.546483886E0
6.370181167E0,-1.693087605E-1,1.027013728E0,1.726866385E0,2.016306069E0
6.380150167E0,-1.632927065E-1,9.600923449E-1,2.229848553E0,2.433241950E0
6.390119167E0,-2.504448710E-1,9.763101822E-1,2.615472425E0,2.802962756E0
6.400088167E0,-3.264887877E-1,1.169460672E0,2.641638715E0,2.907316339E0
6.410057167E0,-2.279519480E-1,1.397924836E0,2.328197551E0,2.725189860E0
6.420026167E0,3.580922574E-2,1.542183248E0,1.981227867E0,2.510951081E0
6.429995167E0,4.061226024E-1,1.611479185E0,1.747143359E0,2.411288172E0
6.439964167E0,7.300365686E-1,1.625090919E0,1.507374773E0,2.333677911E0
6.449933167E0,8.202120361E-1,1.618647872E0,1.408203072E0,2.296911972E0
6.459902167E0,9.321237968E-1,1.407942286E0,1.587008003E0,2.317272245E0
6.469871167E0,1.061837917E0,9.685842562E-1,2.019530638E0,2.478741459E0
6.479840167E0,1.049532159E0,5.345129862E-1,2.367935813E0,2.644681815E0
6.489809167E0,8.262589341E-1,1.036869210E-1,2.677656394E0,2.804157372E0
6.499778167E0,6.625643778E-1,-2.684453782E-1,2.885337215E0,2.972578901E0
6.509747167E0,6.255271637E-1,-6.246448919E-1,2.751054153E0,2.889595894E0
6.519715167E0,5.615351625E-1,-8.756380856E-1,2.569378824E0,2.771961641E0
6.529684167E0,5.616567846E-1,-9.446182734E-1,2.328256023E0,2.574594751E0
6.539653167E0,6.347947081E-1,-9.245193467E-1,1.852785589E0,2.165759632E0
6.549622167E0,8.401444633E-1,-9.073849583E-1,1.246994167E0,1.756184681E0
6.559591167E0,1.134087941E0,-8.964164588E-1,6.374909323E-1,1.579909053E0
6.569560167E0,1.382280026E0,-8.814619124E-1,1.637886965E-1,1.647573947E0
6.579529167E0,1.473852978E0,-8.586133325E-1,-1.869705677E-1,1.715930491E0
6.589498167E0,1.349701972E0,-8.885323656E-1,-4.844535112E-1,1.686973735E0
6.599467167E0,1.097172568E0,-9.461519980E-1,-7.585183561E-1,1.635341354E0
6.609436167E0,8.625300899E-1,-1.014103661E0,-1.041924713E0,1.690553607E0
6.619405167E0,6.433609521E-1,-1.014266213E0,-1.290413252E0,1.762899778E0
6.629374167E0,4.438128774E-1,-9.916585386E-1,-1.478588346E0,1.834824249E0
6.639343167E0,3.044235885E-1,-9.466832176E-1,-1.732324761E0,1.997456360E0
6.649312167E0,1.810181753E-1,-9.152939022E-1,-2.017776473E0,2.223050247E0
6.659281167E0,8.675170340E-2,-8.851968214E-1,-2.290374836E0,2.457013667E0
6.669250167E0,4.210360721E-2,-8.248977023E-1,-2.485001163E0,2.618675183E0
6.679219167E0,-7.472018011E-2,-7.823478064E-1,-2.667698586E0,2.781055005E0
6.689187167E0,-2.392237718E-1,-8.591033292E-1,-2.603807230E0,2.752289708E0
6.699156167E0,-4.312016027E-1,-8.532672232E-1,-2.475436288E0,2.653636108E0
6.709125167E0,-4.552438185E-1,-8.297906524E-1,-2.549626345E0,2.719631218E0
6.719094167E0,-4.198104957E-1,-8.309074706E-1,-2.492870346E0,2.661024359E0
6.729063167E0,-3.721347112E-1,-7.464605203E-1,-2.435397479E0,2.574266581E0
6.739032167E0,-2.925890433E-1,-6.383960813E-1,-2.492280362E0,2.589327965E0
6.749001167E0,-2.202225868E-1,-5.730806360E-1,-2.409109567E0,2.486107059E0
6.758970167E0,-1.426305467E-1,-5.113717532E-1,-2.244917412E0,2.306837387E0
6.768939167E0,-5.726879954E-2,-4.672068563E-1,-2.043367982E0,2.096882131E0
6.778908167E0,-6.411179602E-3,-4.560044682E-1,-1.929290559E0,1.982458887E0
6.788877167E0,2.181786194E-2,-4.157487273E-1,-1.809646001E0,1.856917250E0
6.798846167E0,8.591971770E-2,-3.577013710E-1,-1.608380161E0,1.649914910E0
6.808815167E0,1.567802238E-1,-2.478541160E-1,-1.453057648E0,1.482359008E0
6.818784167E0,1.722357304E-1,-1.594038695E-1,-1.332254757E0,1.352766602E0
6.828753167E0,8.170095161E-2,-9.600251019E-2,-1.100108017E0,1.107307173E0
6.838722167E0,-6.075403243E-2,9.701407850E-3,-7.787719417E-1,7.811983787E-1
6.848691167E0,-1.141860352E-1,1.103115240E-1,-7.107126904E-1,7.282304657E-1
6.858659167E0,-1.180691712E-1,2.739531630E-1,-7.624851072E-1,8.187638264E-1
6.868628167E0,-1.039720459E-1,4.954293197E-1,-8.111286789E-1,9.561329044E-1
6.878597167E0,-4.456250757E-2,7.880315924E-1,-9.648531479E-1,1.246563759E0
6.888566167E0,9.594403803E-3,1.079932784E0,-9.673452312E-1,1.449863327E0
6.898535167E0,4.729081839E-3,1.301894844E0,-8.036769873E-1,1.529983415E0
6.908504167E0,-1.814862449E-2,1.430995519E0,-3.888649839E-1,1.483001525E0
6.918473167E0,3.142264456E-2,1.468504822E0,2.485739082E-1,1.489725741E0
6.928442167E0,9.305375934E-2,1.420057132E0,7.495586675E-1,1.608433852E0
6.938411167E0,1.803003564E-1,1.241165078E0,1.192801588E0,1.730830609E0
6.948380167E0,2.285647362E-1,1.091273459E0,1.818123295E0,2.132766259E0
6.958349167E0,2.314652476E-1,1.054158257E0,2.279200222E0,2.521820661E0
6.968318167E0,3.306711549E-1,1.032466257E0,2.409873798E0,2.642502924E0
6.978287167E0,3.805400106E-1,1.120157534E0,2.331829841E0,2.614764618E0
6.988256167E0,1.964139672E-1,1.358209378E0,2.093510195E0,2.503217150E0
6.998225167E0,-6.474519566E-2,1.492066178E0,1.997591300E0,2.494158059E0
7.008194167E0,-3.408320442E-1,1.597321614E0,1.987259855E0,2.572315018E0
7.018162167E0,-6.000798984E-1,1.756122051E0,2.040073076E0,2.757890262E0
7.028131167E0,-6.848858312E-1,1.752356737E0,2.259855294E0,2.940538843E0
7.038100167E0,-6.638652371E-1,1.519377937E0,2.627961493E0,3.107315236E0
7.048069167E0,-5.503000300E-1,1.105475468E0,3.255150216E0,3.481509596E0
7.058038167E0,-4.409481803E-1,6.207754970E-1,3.761018570E0,3.837324354E0
7.068007167E0,-3.327913918E-1,1.081065390E-1,4.013136476E0,4.028362137E0
7.077976167E0,-3.739985843E-1,-3.083470702E-1,3.892195591E0,3.922262023E0
7.087945167E0,-4.765710260E-1,-6.605251613E-1,3.349320209E0,3.446934768E0
7.097914167E0,-6.858801502E-1,-9.019552338E-1,2.566227175E0,2.805258765E0
7.107883167E0,-1.098118940E0,-8.310033649E-1,2.017098781E0,2.442359370E0
7.117852167E0,-1.451678290E0,-5.843350643E-1,1.514206075E0,2.177530106E0
7.127821167E0,-1.618917574E0,-5.086440271E-1,1.071183010E0,2.006750084E0
7.137790167E0,-1.627499533E0,-5.273700276E-1,1.031355286E0,1.997640508E0
7.147759167E0,-1.461616217E0,-5.240678126E-1,1.270540320E0,2.006300512E0
7.157728167E0,-1.088305704E0,-6.767812979E-1,1.498586993E0,1.971853241E0
7.167697167E0,-7.120003934E-1,-9.622046515E-1,1.526877576E0,1.940138522E0
7.177665167E0,-3.905896202E-1,-1.197052806E0,1.550317894E0,1.997243411E0
7.187634167E0,2.575493842E-2,-1.391250240E0,1.445529943E0,2.006438975E0
7.197603167E0,4.102539160E-1,-1.531944481E0,1.106671516E0,1.933877973E0
7.207572167E0,6.203537665E-1,-1.581496418E0,5.080195445E-1,1.773147927E0
7.217541167E0,6.790152998E-1,-1.545334605E0,-2.315316135E-1,1.703739330E0
7.227510167E0,7.085489282E-1,-1.453832404E0,-1.110108510E0,1.961634815E0
7.237479167E0,6.903294428E-1,-1.336099886E0,-1.906530272E0,2.428286499E0
7.247448167E0,5.971806662E-1,-1.212175752E0,-2.443229824E0,2.792018405E0
7.257417167E0,4.274437433E-1,-1.141260136E0,-2.988310191E0,3.227255901E0
7.267386167E0,2.262163483E-1,-1.134047595E0,-3.386310280E0,3.578314561E0
7.277355167E0,-7.918840304E-2,-1.192201663E0,-3.480972024E0,3.680323605E0
7.287324167E0,-2.894852681E-1,-1.281566999E0,-3.508945688E0,3.746854085E0
7.297293167E0,-4.086924537E-1,-1.432943226E0,-3.261935910E0,3.586165319E0
7.307262167E0,-5.888274801E-1,-1.523851642E0,-2.996513250E0,3.412906867E0
7.317231167E0,-7.374353430E-1,-1.630503686E0,-2.834761723E0,3.352346519E0
7.327200917E0,-8.666320579E-1,-1.790726166E0,-2.704285199E0,3.357217563E0
7.337168917E0,-9.761309651E-1,-1.834756284E0,-2.769534863E0,3.462583666E0
7.347137917E0,-1.101590140E0,-1.735258893E0,-2.819304609E0,3.488997383E0
7.357106917E0,-1.253605760E0,-1.572440250E0,-2.875738426E0,3.509126278E0
7.367075917E0,-1.258907138E0,-1.403915893E0,-2.963870584E0,3.512884264E0
7.377044917E0,-1.244697088E0,-1.150496398E0,-2.921170122E0,3.377298874E0
7.387013917E0,-1.117597331E0,-8.651563668E-1,-2.773185865E0,3.112567939E0
7.396982917E0,-9.358442339E-1,-6.821168822E-1,-2.470805293E0,2.728729864E0
7.406951917E0,-7.630034629E-1,-5.063899255E-1,-2.066485534E0,2.260302524E0
7.416920917E0,-7.113482827E-1,-3.353272927E-1,-1.544702228E0,1.733368324E0
7.426889917E0,-6.507477397E-1,-2.083047187E-1,-1.066272519E0,1.266412476E0
7.436858917E0,-6.502200285E-1,-4.078082085E-2,-5.961534566E-1,8.830900886E-1
7.446827917E0,-7.395738890E-1,1.360302097E-1,-1.341415590E-1,7.638505830E-1
7.456796917E0,-8.248203729E-1,3.271710116E-1,1.603119421E-1,9.017036304E-1
7.466765917E0,-7.741805618E-1,4.920151305E-1,3.631308031E-1,9.865588736E-1
7.476734917E0,-6.769296710E-1,6.861982387E-1,5.480981147E-1,1.108834228E0
7.486703917E0,-5.926091668E-1,8.557154524E-1,5.939864784E-1,1.198438357E0
7.496671917E0,-4.532176121E-1,1.003865771E0,6.867870533E-1,1.298009686E0
7.506640917E0,-2.358104597E-1,1.131726251E0,7.078680199E-1,1.355539750E0
7.516609917E0,-3.537843212E-2,1.172873107E0,6.723724973E-1,1.352393336E0
7.526578917E0,2.325583845E-2,1.189017854E0,1.011312785E0,1.561107889E0
7.536547917E0,-7.083243951E-3,1.244020273E0,1.526837230E0,1.969484334E0
7.546516917E0,-2.673507795E-2,1.322450731E0,1.804712121E0,2.237538053E0
7.556485917E0,5.444634855E-3,1.481412258E0,2.031574733E0,2.514340434E0
7.566454917E0,9.560475335E-2,1.569325146E0,2.185902050E0,2.692599014E0
7.576423917E0,3.809377675E-1,1.326385322E0,2.314964132E0,2.695082659E0
7.586392917E0,7.287010646E-1,1.027239431E0,2.395141153E0,2.706090766E0
7.596361917E0,9.564951378E-1,9.615398231E-1,2.375450070E0,2.735361917E0
7.606330917E0,1.077184154E0,7.953634161E-1,2.332588810E0,2.689590902E0
7.616299917E0,1.155469162E0,3.699398857E-1,2.485173072E0,2.765510748E0
7.626268917E0,1.155346955E0,-6.218279958E-2,2.946081015E0,3.165136116E0
7.636237917E0,1.001565915E0,-3.719837800E-1,3.264099964E0,3.434509396E0
7.646206917E0,8.745417327E-1,-6.133890018E-1,3.188905941E0,3.363062653E0
7.656174917E0,8.114086144E-1,-8.106217253E-1,3.010660588E0,3.221733803E0
7.666143917E0,6.957543433E-1,-9.023277014E-1,2.909824769E0,3.124955932E0
7.676112917E0,5.734688911E-1,-8.320181492E-1,2.623694780E0,2.811564523E0
7.686081917E0,5.471733776E-1,-6.703651482E-1,2.005058194E0,2.183814667E0
7.696050917E0,6.167846261E-1,-4.973860905E-1,1.336577019E0,1.553787092E0
7.706019917E0,8.259110979E-1,-3.651103780E-1,5.553878385E-1,1.060136963E0
7.715988917E0,1.048720785E0,-3.353363559E-1,-3.477514565E-2,1.101578444E0
7.725957917E0,1.174039627E0,-2.810230315E-1,-1.392724907E-1,1.215211840E0
7.735926917E0,1.230002158E0,-2.349984276E-1,-1.565708935E-2,1.252347681E0
7.745895917E0,1.300161437E0,-2.962085429E-1,1.284165502E-2,1.333538215E0
7.755864917E0,1.285079568E0,-4.163039204E-1,3.163928390E-3,1.350832506E0
7.765833917E0,1.247255830E0,-5.233468509E-1,-1.003382206E-3,1.352604908E0
7.775802917E0,1.202619209E0,-5.731475866E-1,-5.142275333E-2,1.333204942E0
7.785771917E0,1.143365133E0,-6.141716516E-1,-4.746611792E-1,1.381952923E0
7.795740917E0,1.021086552E0,-6.082913992E-1,-9.315351284E-1,1.510097304E0
7.805708917E0,8.461793746E-1,-5.340706444E-1,-1.310997205E0,1.649231536E0
7.815677917E0,6.557171421E-1,-4.749386296E-1,-1.735637208E0,1.915194035E0
7.825646917E0,4.180240251E-1,-4.531171131E-1,-2.070504325E0,2.160335012E0
7.835615917E0,1.357151909E-1,-4.952214512E-1,-2.325428309E0,2.381444881E0
7.845584917E0,-8.934896350E-2,-5.820476335E-1,-2.509745995E0,2.577903731E0
7.855553917E0,-2.036099893E-1,-6.569633299E-1,-2.555175937E0,2.646125831E0
7.865522917E0,-2.323939316E-1,-6.639288256E-1,-2.462464240E0,2.560964381E0
7.875491917E0,-1.620892764E-1,-6.156740937E-1,-2.479480222E0,2.559912049E0
7.885460917E0,-5.894271120E-2,-5.844578558E-1,-2.563790640E0,2.630225784E0
7.895429917E0,-3.703027055E-2,-5.963361821E-1,-2.558577847E0,2.627414829E0
7.905398917E0,1.461116865E-2,-6.095675540E-1,-2.593006838E0,2.663732447E0
7.915367917E0,1.648148829E-1,-6.582719368E-1,-2.626003261E0,2.712264554E0
7.925336917E0,2.636355317E-1,-6.095216534E-1,-2.621457050E0,2.704266519E0
7.935305917E0,3.975508766E-1,-4.909401199E-1,-2.637833347E0,2.712422104E0
7.945274917E0,5.549721014E-1,-3.900022674E-1,-2.744047435E0,2.826639724E0
7.955243917E0,5.982581618E-1,-2.228689635E-1,-2.735620428E0,2.809128428E0
7.965211917E0,4.464762841E-1,-6.757071644E-2,-2.699185842E0,2.736697112E0
7.975180917E0,2.100699931E-1,6.151270866E-3,-2.580151734E0,2.588696624E0
7.985149917E0,-6.053768545E-2,1.201661289E-1,-2.436387997E0,2.440100650E0
7.995118917E0,-2.004234029E-1,2.499485886E-1,-2.344351653E0,2.366142116E0
8.005087917E0,-3.589491668E-1,3.405579194E-1,-2.084753405E0,2.142666787E0
8.015056917E0,-4.775203215E-1,4.580732131E-1,-1.686055158E0,1.811253357E0
8.025025917E0,-4.680833905E-1,5.607090971E-1,-1.328572766E0,1.516114226E0
8.034994917E0,-4.674039075E-1,6.883552766E-1,-9.896149367E-1,1.292918065E0
8.044963917E0,-4.275658040E-1,7.995459294E-1,-5.892174894E-1,1.081324863E0
8.054932917E0,-2.203176771E-1,8.242895919E-1,-2.713926673E-2,8.536566933E-1
8.064901917E0,6.031958431E-2,9.015915370E-1,5.525267959E-1,1.059146643E0
8.074870917E0,3.036432776E-1,9.184022820E-1,9.745238578E-1,1.373083661E0
8.084839917E0,4.659099073E-1,9.058108878E-1,1.425731855E0,1.752220514E0
8.094808917E0,5.499394029E-1,9.104527000E-1,1.803647928E0,2.093920560E0
8.104777917E0,5.208837113E-1,9.007194248E-1,2.188592353E0,2.423334854E0
8.114745917E0,4.552400909E-1,9.345446903E-1,2.326518230E0,2.548196302E0
8.124714917E0,3.293034911E-1,1.016728183E0,2.174844965E0,2.423247327E0
8.134683917E0,9.711856093E-2,1.192658623E0,1.927725259E0,2.268918527E0
8.144652917E0,-1.923875745E-1,1.332925433E0,1.705025280E0,2.172743518E0
8.154621917E0,-4.389905325E-1,1.445972577E0,1.988609392E0,2.497622208E0
8.164590917E0,-5.133548364E-1,1.624484270E0,2.539185557E0,3.057768079E0
8.174559917E0,-4.636460482E-1,1.782226945E0,3.061174099E0,3.572406389E0
8.184528917E0,-2.996009512E-1,1.597343541E0,3.541656767E0,3.896742200E0
8.194497917E0,-7.261803299E-2,1.057363409E0,4.031155255E0,4.168153482E0
8.204466917E0,6.667360738E-2,6.538537806E-1,4.472020113E0,4.520059073E0
8.214435917E0,7.407969072E-2,3.614473897E-1,4.307039169E0,4.322813716E0
8.224404917E0,7.429706097E-2,3.956781596E-2,3.615577267E0,3.616557014E0
8.234373917E0,4.538345665E-2,-1.613697034E-1,2.780344611E0,2.785393328E0
8.244342917E0,-2.924881057E-1,-1.595620367E-1,1.946453891E0,1.974763805E0
8.254311917E0,-7.484668462E-1,-8.507230997E-2,1.225146630E0,1.438201719E0
8.264280917E0,-9.856839998E-1,3.133522868E-3,4.506788242E-1,1.083833091E0
8.274248917E0,-1.212883265E0,3.799433023E-2,2.789297283E-2,1.213798748E0
8.284217917E0,-1.363454477E0,-6.087770104E-2,3.373141766E-2,1.365229656E0
8.294186917E0,-1.418720166E0,-1.271447808E-1,2.169673687E-1,1.440835711E0
8.304155917E0,-1.403609499E0,-2.729866183E-1,6.558237076E-1,1.573132561E0
8.314124917E0,-1.273324471E0,-6.189201754E-1,1.062640228E0,1.770203844E0
8.324093167E0,-1.112920289E0,-1.021669665E0,1.377311647E0,2.044355118E0
8.334062167E0,-9.625304876E-1,-1.361399034E0,1.734125703E0,2.405631772E0
8.344031167E0,-7.292346230E-1,-1.666380155E0,1.816139919E0,2.570402724E0
8.354000167E0,-3.069431537E-1,-1.889951369E0,1.430096802E0,2.389834124E0
8.363969167E0,1.659448573E-1,-2.003373027E0,8.110666984E-1,2.167687793E0
8.373938167E0,4.135027752E-1,-1.917315753E0,1.062117487E-1,1.964272175E0
8.383907167E0,4.178972867E-1,-1.756255660E0,-7.083784819E-1,1.939296821E0
8.393876167E0,1.728268839E-1,-1.660119833E0,-1.449184452E0,2.210430404E0
8.403845167E0,-5.590405941E-2,-1.624179338E0,-2.107978545E0,2.661701962E0
8.413814167E0,-2.438673382E-1,-1.632168973E0,-2.723727776E0,3.184672641E0
8.423782167E0,-4.348034875E-1,-1.630722372E0,-3.085431274E0,3.516844562E0
8.433751167E0,-5.921299875E-1,-1.574019583E0,-3.311015099E0,3.713620411E0
8.443720167E0,-6.348713797E-1,-1.526233798E0,-3.395926611E0,3.776872889E0
8.453689167E0,-6.512106930E-1,-1.494771977E0,-3.375943167E0,3.749054667E0
8.463658167E0,-6.734916544E-1,-1.456753965E0,-3.282955481E0,3.654246819E0
8.473627167E0,-6.631135775E-1,-1.363839662E0,-3.241978778E0,3.579134622E0
8.483596167E0,-5.903011246E-1,-1.331218338E0,-3.168419636E0,3.487044690E0
8.493565167E0,-4.903774716E-1,-1.266136489E0,-3.067910092E0,3.354943219E0
8.503534167E0,-3.969024204E-1,-1.155602479E0,-3.050037493E0,3.285677605E0
8.513503167E0,-3.340903142E-1,-1.037766465E0,-3.071655818E0,3.259393355E0
8.523472167E0,-3.150324842E-1,-9.051989767E-1,-2.979237651E0,3.129614615E0
8.533441167E0,-4.136671185E-1,-7.737787119E-1,-2.781060895E0,2.916188211E0
8.543410167E0,-4.942287402E-1,-6.146014220E-1,-2.631141209E0,2.746798321E0
8.553379167E0,-5.644127235E-1,-5.418453947E-1,-2.473660489E0,2.594446833E0
8.563348167E0,-7.125281046E-1,-4.299405044E-1,-2.025938017E0,2.190198618E0
8.573317167E0,-8.156066228E-1,-2.746267623E-1,-1.541472226E0,1.765437806E0
8.583285167E0,-8.967234376E-1,-1.917877963E-1,-1.207870447E0,1.516524480E0
8.593254167E0,-9.445112693E-1,-1.473723462E-1,-9.324847162E-1,1.335420493E0
8.603223167E0,-1.035236375E0,2.128357261E-2,-6.318401831E-1,1.213008392E0
8.613192167E0,-1.084542729E0,3.050369614E-1,-3.290006053E-1,1.173678779E0
8.623161167E0,-1.087597168E0,4.803043270E-1,-1.588735271E-1,1.199500164E0
8.633130167E0,-1.042216927E0,6.620743811E-1,2.933021843E-2,1.235078488E0
8.643099167E0,-8.735645168E-1,8.263899118E-1,2.252844483E-1,1.223433012E0
8.653068167E0,-6.745443725E-1,9.882440570E-1,3.758981985E-1,1.254167406E0
8.663037167E0,-6.108282137E-1,1.159847557E0,5.972018623E-1,1.440488642E0
8.673006167E0,-6.211364163E-1,1.221439496E0,1.054024356E0,1.728783454E0
8.682975167E0,-6.139594708E-1,1.262008063E0,1.634611940E0,2.154429571E0
8.692944167E0,-6.543731596E-1,1.389508062E0,2.149620661E0,2.641932223E0
8.702913167E0,-7.154479118E-1,1.551685558E0,2.477996199E0,3.009993181E0
8.712882167E0,-5.934567207E-1,1.517178215E0,2.731875286E0,3.180748842E0
8.722851167E0,-3.295610610E-1,1.361565680E0,3.056866456E0,3.362574032E0
8.732819167E0,5.536582321E-2,1.240994924E0,3.381512640E0,3.602466031E0
8.742788167E0,5.668475041E-1,9.956334758E-1,3.668156599E0,3.842912300E0
8.752757167E0,9.731635031E-1,6.491210443E-1,4.160333698E0,4.321664241E0
8.762726167E0,1.214513396E0,3.606167927E-1,4.687695832E0,4.855880916E0
8.772695167E0,1.321902116E0,1.271456578E-1,4.974524564E0,5.148736336E0
8.782664167E0,1.286182791E0,-1.596664095E-1,4.778817086E0,4.951449513E0
8.792633167E0,1.285380407E0,-4.831314558E-1,4.309803148E0,4.523275579E0
8.802602167E0,1.304726943E0,-6.171113393E-1,3.811860695E0,4.075956423E0
8.812571167E0,1.242722045E0,-5.229732138E-1,3.239197258E0,3.508597717E0
8.822540167E0,1.286121103E0,-4.318279856E-1,2.597788106E0,2.930714238E0
8.832509167E0,1.450097203E0,-3.797079518E-1,1.836278899E0,2.370417732E0
8.842478167E0,1.553232585E0,-3.681357273E-1,1.152202615E0,1.968661028E0
8.852447167E0,1.598470592E0,-4.531138971E-1,5.551516110E-1,1.751745915E0
8.862416167E0,1.481570133E0,-5.544464368E-1,1.683389997E-1,1.590848494E0
8.872385167E0,1.367573402E0,-6.202849156E-1,3.377000928E-2,1.502048867E0
8.882354167E0,1.323057526E0,-7.035077512E-1,-1.242492396E-1,1.503609738E0
8.892322167E0,1.329476745E0,-7.922027037E-1,-3.881726736E-1,1.595547418E0
8.902291167E0,1.282615405E0,-8.078507298E-1,-6.125601590E-1,1.634917437E0
8.912260167E0,1.261590718E0,-7.776381665E-1,-9.220380807E-1,1.745418712E0
8.922229167E0,1.269460777E0,-7.356770852E-1,-1.288597106E0,1.952750353E0
8.932198167E0,1.187215742E0,-7.094602168E-1,-1.650166703E0,2.153105935E0
8.942167167E0,1.092218369E0,-6.910321319E-1,-1.977045354E0,2.362027668E0
8.952136167E0,1.045462570E0,-6.951415551E-1,-2.270986054E0,2.594916458E0
8.962105167E0,9.690501331E-1,-7.396260023E-1,-2.495012766E0,2.776903579E0
8.972074167E0,8.039097065E-1,-7.980695075E-1,-2.587989342E0,2.825044175E0
8.982043167E0,6.886088996E-1,-8.788014293E-1,-2.759726159E0,2.977005650E0
8.992012167E0,5.974171861E-1,-9.789449376E-1,-2.951343509E0,3.166333683E0
9.001981167E0,4.958985588E-1,-1.081023582E0,-3.039481514E0,3.263889588E0
9.011950167E0,3.873885254E-1,-1.127051109E0,-3.113341203E0,3.333647780E0
9.021919167E0,3.201280038E-1,-1.171526786E0,-3.252685615E0,3.472019680E0
9.031888167E0,2.359801751E-1,-1.180720071E0,-3.372997924E0,3.581466393E0
9.041856167E0,8.891842570E-2,-1.130046638E0,-3.467839177E0,3.648399711E0
9.051825167E0,-5.266353250E-2,-1.077771653E0,-3.578230516E0,3.737391979E0
9.061794167E0,-1.646178317E-1,-1.066096517E0,-3.656198459E0,3.812013639E0
9.071763167E0,-2.997361681E-1,-9.913270015E-1,-3.667273670E0,3.810704287E0
9.081732167E0,-4.406121481E-1,-8.414394754E-1,-3.515474104E0,3.641526827E0
9.091701167E0,-5.048842674E-1,-7.257599151E-1,-3.324786462E0,3.440325652E0
9.101670167E0,-4.969896858E-1,-6.004941371E-1,-3.145332490E0,3.240479660E0
9.111639167E0,-3.963600911E-1,-4.515728635E-1,-2.805874139E0,2.869485852E0
9.121608167E0,-3.026498722E-1,-2.601818007E-1,-2.352101553E0,2.385722790E0
9.131577167E0,-2.663142509E-1,-3.506721407E-2,-1.963154123E0,1.981445710E0
9.141546167E0,-2.623513005E-1,1.506538036E-1,-1.441573132E0,1.472975854E0
9.151515167E0,-2.950870469E-1,3.263199493E-1,-8.541045445E-1,9.607578506E-1
9.161484167E0,-3.039581867E-1,4.790538999E-1,-4.807773668E-1,7.436599322E-1
9.171453167E0,-3.129026359E-1,5.724079138E-1,-1.669374222E-1,6.733698703E-1
9.181422167E0,-3.293249796E-1,7.022672644E-1,6.675181389E-2,7.785178595E-1
9.191391167E0,-2.976691774E-1,8.598520651E-1,1.078115469E-1,9.162837130E-1
9.201359167E0,-2.078195826E-1,1.016564461E0,1.289439690E-1,1.045571054E0
9.211328167E0,-4.494023770E-2,1.183433763E0,2.682030112E-1,1.214276720E0
9.221297167E0,1.975180677E-1,1.386873306E0,4.248493338E-1,1.463874281E0
9.231266167E0,4.657393514E-1,1.449542302E0,7.448136520E-1,1.694943481E0
9.241235167E0,6.004040900E-1,1.533750978E0,1.106341149E0,1.984154195E0
9.251204167E0,6.863987982E-1,1.626062726E0,1.394677877E0,2.249522100E0
9.261173167E0,6.597353487E-1,1.697941086E0,1.495245894E0,2.356695768E0
9.271142167E0,4.614480798E-1,1.846029131E0,1.417010733E0,2.372483362E0
9.281111167E0,1.139407445E-1,2.034995939E0,1.478325806E0,2.517863807E0
9.291080167E0,-1.649815285E-1,2.158310501E0,1.611901939E0,2.698842526E0
9.301049167E0,-3.505569506E-1,2.271882432E0,1.696345088E0,2.856908577E0
9.311018167E0,-5.395449539E-1,2.372607446E0,2.007861934E0,3.154660742E0
9.320987167E0,-6.913646923E-1,2.329540071E0,2.529907780E0,3.507873352E0
9.330956583E0,-7.607774279E-1,2.163329458E0,3.062908384E0,3.826249392E0
9.340925583E0,-8.177889499E-1,1.830153941E0,3.652528161E0,4.166437829E0
9.350894583E0,-8.076025155E-1,1.390155933E0,4.239902024E0,4.534481725E0
9.360863583E0,-7.329220234E-1,9.970368075E-1,4.745935854E0,4.904606428E0
9.370831583E0,-5.999383593E-1,6.323655555E-1,5.012990472E0,5.088210461E0
9.380800583E0,-4.732003985E-1,3.015344793E-1,4.977476823E0,5.009003612E0
9.390769583E0,-4.202700868E-1,9.275467426E-2,4.545968095E0,4.566295687E0
9.400738583E0,-5.077786392E-1,1.680138946E-2,3.999359266E0,4.031500462E0
9.410707583E0,-6.696374622E-1,8.072812110E-2,3.553479252E0,3.616924958E0
9.420676583E0,-7.525289069E-1,1.726057130E-1,3.129698204E0,3.223523435E0
9.430645583E0,-7.569765915E-1,8.840785414E-2,2.665125811E0,2.771953300E0
9.440614583E0,-7.716596809E-1,-9.669774413E-2,2.559214025E0,2.674768315E0
9.450583583E0,-7.682688805E-1,-2.878812307E-1,2.436665740E0,2.571080046E0
9.460552583E0,-6.899653074E-1,-6.202755600E-1,2.168728192E0,2.358850540E0
9.470521583E0,-5.684939338E-1,-9.517553848E-1,1.758840129E0,2.079072453E0
9.480490583E0,-4.869047006E-1,-1.213777889E0,1.260480185E0,1.816354384E0
9.490459583E0,-4.718137313E-1,-1.436172643E0,7.318679166E-1,1.679532883E0
9.500428583E0,-4.717621297E-1,-1.622808458E0,7.953265786E-2,1.691860586E0
9.510397583E0,-4.605150104E-1,-1.762039141E0,-6.585128421E-1,1.936619522E0
9.520366583E0,-4.268937031E-1,-1.844706784E0,-1.300552323E0,2.297088962E0
9.530334583E0,-3.605896397E-1,-1.878542866E0,-1.837785142E0,2.652621801E0
9.540303583E0,-3.532786833E-1,-1.870234850E0,-2.343775703E0,3.019249703E0
9.550272583E0,-3.850371407E-1,-1.803059990E0,-2.783821365E0,3.339002893E0
9.560241583E0,-4.105933835E-1,-1.711351383E0,-3.146878493E0,3.605572733E0
9.570210583E0,-4.383720432E-1,-1.680420489E0,-3.419837045E0,3.835527145E0
9.580179583E0,-5.348530018E-1,-1.642189347E0,-3.594354213E0,3.987760749E0
9.590148583E0,-6.641119896E-1,-1.579202555E0,-3.676521626E0,4.056074051E0
9.600117583E0,-7.501917748E-1,-1.560845806E0,-3.642649875E0,4.033351639E0
9.610086583E0,-8.634511726E-1,-1.447677625E0,-3.623790851E0,3.996645914E0
9.620055583E0,-8.544604938E-1,-1.240290627E0,-3.630400543E0,3.930423855E0
9.630024583E0,-7.469484705E-1,-1.054591828E0,-3.546654966E0,3.774765873E0
9.639993583E0,-6.704262516E-1,-9.270234168E-1,-3.525123764E0,3.706122141E0
9.649962583E0,-5.294145066E-1,-9.211495963E-1,-3.512707202E0,3.669864873E0
9.659931583E0,-4.195147727E-1,-1.010939732E0,-3.360049265E0,3.533825526E0
9.669900583E0,-3.785189205E-1,-1.040407945E0,-3.074109310E0,3.267395494E0
9.679869583E0,-4.588421220E-1,-9.834782839E-1,-2.823777729E0,3.025142358E0
9.689838583E0,-7.458177651E-1,-1.003924828E0,-2.576023015E0,2.863564872E0
9.699806583E0,-1.049858946E0,-1.062402831E0,-2.364638568E0,2.796858799E0
9.709775583E0,-1.364638246E0,-1.056119413E0,-2.175688133E0,2.776912784E0
9.719744583E0,-1.621835335E0,-1.023025342E0,-1.968355806E0,2.747972941E0
9.729713583E0,-1.853695708E0,-8.638869363E-1,-1.621546336E0,2.609961865E0
9.739682583E0,-1.951330176E0,-5.726453108E-1,-1.337575139E0,2.434074642E0
9.749651583E0,-1.837652118E0,-3.128839248E-1,-1.072274686E0,2.150496375E0
9.759620583E0,-1.682565248E0,-1.026975721E-1,-7.297377759E-1,1.836869572E0
9.769589583E0,-1.472681196E0,9.081544518E-2,-5.707262546E-1,1.582013214E0
9.779558583E0,-1.230755280E0,2.427962744E-1,-4.189705431E-1,1.322590226E0
9.789527583E0,-9.959351921E-1,4.002734864E-1,-8.559505105E-2,1.076769373E0
9.799496583E0,-8.547557782E-1,5.374111587E-1,2.777626240E-1,1.047172512E0
9.809465583E0,-8.483244988E-1,6.598249573E-1,6.474510795E-1,1.254677779E0
9.819434583E0,-8.910238642E-1,7.620360410E-1,1.081886923E0,1.595337509E0
9.829403583E0,-8.901567221E-1,8.811286211E-1,1.575224694E0,2.012485894E0
9.839372583E0,-9.165713726E-1,1.134368023E0,2.075032409E0,2.536267610E0
9.849341583E0,-8.700352836E-1,1.365248256E0,2.331725761E0,2.838628052E0
9.859310583E0,-7.171251856E-1,1.517704464E0,2.487211996E0,3.000653076E0
9.869278583E0,-3.339536355E-1,1.375197878E0,2.605257339E0,2.964803542E0
9.879247583E0,5.282608509E-2,1.155770001E0,2.713927842E0,2.950254095E0
9.889216583E0,2.950406346E-1,1.110539449E0,2.966600649E0,3.181362327E0
9.899185583E0,5.396263763E-1,1.007958822E0,3.183501359E0,3.382581635E0
9.909154583E0,8.943352886E-1,5.878357923E-1,3.664170552E0,3.817267657E0
9.919123583E0,1.125176127E0,1.254031876E-1,4.405151939E0,4.548308574E0
9.929092583E0,1.080068220E0,-1.531356543E-1,4.906998578E0,5.026791515E0
9.939061583E0,1.053584061E0,-4.463118312E-1,5.230113961E0,5.353814124E0
9.949030583E0,1.211531096E0,-7.660282275E-1,5.160951340E0,5.356307084E0
9.958999583E0,1.501687186E0,-9.763113517E-1,4.606637635E0,4.942606454E0
9.968968583E0,1.728207151E0,-8.851722631E-1,3.678917230E0,4.159887244E0
9.978937583E0,1.713070903E0,-5.326912862E-1,2.717753091E0,3.256463386E0
9.988906583E0,1.841216288E0,-2.700422528E-1,1.773784443E0,2.570858123E0
9.998875583E0,1.890946857E0,-1.320821697E-1,9.025832248E-1,2.099471885E0
1.000884458E1,1.769812283E0,-2.328507453E-2,2.456964934E-1,1.786937179E0
1.001881358E1,1.667978491E0,-5.022144288E-2,-2.448235041E-1,1.686598052E0
1.002878258E1,1.607872184E0,-2.080907106E-1,-7.197554094E-1,1.773866555E0
1.003875058E1,1.587431341E0,-3.405444708E-1,-1.075574854E0,1.947503547E0
1.004871958E1,1.460633885E0,-4.481829402E-1,-1.024015276E0,1.839273384E0
1.005868858E1,1.263039219E0,-5.753011161E-1,-8.428819835E-1,1.623788620E0
1.006865758E1,1.098361600E0,-7.277435830E-1,-8.336714494E-1,1.559171899E0
1.007862658E1,9.542412554E-1,-8.702145007E-1,-9.065143079E-1,1.577852288E0
1.008859558E1,8.089638935E-1,-1.018045269E0,-1.116548048E0,1.713918987E0
1.009856458E1,6.998006165E-1,-1.120325057E0,-1.435069274E0,1.950454551E0
1.010853358E1,6.465299968E-1,-1.146710910E0,-1.824680362E0,2.249978972E0
1.011850258E1,6.184104444E-1,-1.129132426E0,-2.196413004E0,2.545898977E0
1.012847158E1,5.046027240E-1,-1.050071054E0,-2.495144913E0,2.753728611E0
1.013844058E1,4.051288681E-1,-9.977703407E-1,-2.806123230E0,3.005661764E0
1.014840958E1,4.535389897E-1,-1.016721751E0,-3.080879801E0,3.275857305E0
1.015837858E1,4.140717459E-1,-1.006557829E0,-3.114771432E0,3.299456796E0
1.016834758E1,3.276485829E-1,-9.740721604E-1,-3.128237570E0,3.292725385E0
1.017831658E1,3.603038205E-1,-1.014902390E0,-3.249470231E0,3.423288256E0
1.018828558E1,4.542380244E-1,-1.029408748E0,-3.226642116E0,3.417196790E0
1.019825458E1,5.270052710E-1,-9.528488141E-1,-3.164914230E0,3.346989319E0
1.020822358E1,4.218991211E-1,-8.682629925E-1,-3.110205342E0,3.256571320E0
1.021819258E1,2.095146173E-1,-7.816607586E-1,-3.139036208E0,3.241672135E0
1.022816058E1,8.565191522E-2,-6.728724343E-1,-3.128747447E0,3.201430017E0
1.023812958E1,-3.136066407E-2,-5.326255050E-1,-2.900132425E0,2.948803402E0
1.024809858E1,-8.750109717E-2,-4.590494058E-1,-2.624802827E0,2.666078146E0
1.025806758E1,-4.819479793E-2,-4.455572480E-1,-2.389808493E0,2.431466354E0
1.026803658E1,-1.265059724E-2,-3.284246546E-1,-1.926699657E0,1.954531750E0
1.027800558E1,-6.465602562E-2,-9.849342406E-2,-1.490994383E0,1.495642205E0
1.028797458E1,-8.264926035E-2,1.236308965E-1,-1.188665267E0,1.197931808E0
1.029794358E1,-1.864074808E-1,3.398527452E-1,-7.859827280E-1,8.763654980E-1
1.030791258E1,-2.472426434E-1,5.614022845E-1,-4.393118370E-1,7.545172893E-1
1.031788158E1,-1.541736813E-1,7.980876338E-1,-3.840784532E-1,8.990159362E-1
1.032785029E1,-5.414667875E-2,9.396446317E-1,-2.074042475E-1,9.637844254E-1
1.033781929E1,5.877182633E-3,1.010028151E0,2.974069297E-1,1.052920837E0
1.034778829E1,5.456300050E-2,1.100708526E0,7.485547006E-1,1.332242665E0
1.035775729E1,2.800810450E-1,1.126666655E0,1.015172532E0,1.542205697E0
1.036772629E1,4.449344830E-1,1.120801605E0,1.323451189E0,1.790442957E0
1.037769529E1,4.837980384E-1,1.123828709E0,1.486154058E0,1.925020881E0
1.038766429E1,4.807321970E-1,1.095461234E0,1.591139646E0,1.990694385E0
1.039763329E1,3.082928373E-1,1.141047297E0,1.682734525E0,2.056363024E0
1.040760229E1,5.613325199E-2,1.205219612E0,1.588270417E0,1.994569671E0
1.041757029E1,-2.971172002E-1,1.304162394E0,1.390179030E0,1.929174931E0
1.042753929E1,-7.081238356E-1,1.509354056E0,1.194128906E0,2.050739592E0
1.043750829E1,-9.141909711E-1,1.666677486E0,1.088831077E0,2.190687583E0
1.044747729E1,-9.964539863E-1,1.684659136E0,1.253019723E0,2.324017077E0
1.045744629E1,-1.092871649E0,1.688566830E0,1.487027632E0,2.501375133E0
1.046741529E1,-1.196354648E0,1.635075039E0,1.649931060E0,2.612854250E0
1.047738429E1,-1.244647826E0,1.385627849E0,2.076055087E0,2.789106931E0
1.048735329E1,-1.191377352E0,1.015396772E0,2.671197560E0,3.096079295E0
1.049732229E1,-1.056978077E0,6.006376863E-1,3.116144943E0,3.344895752E0
1.050729129E1,-9.103432108E-1,5.485770017E-2,3.537715158E0,3.653376886E0
1.051726029E1,-7.984055762E-1,-3.611959594E-1,3.840594497E0,3.939299440E0
1.052722929E1,-7.693512002E-1,-5.880451226E-1,3.705231455E0,3.829678638E0
1.053719829E1,-7.770364881E-1,-7.187613827E-1,3.215246478E0,3.384998307E0
1.054716729E1,-9.086074649E-1,-6.690325677E-1,2.746093376E0,2.968871996E0
1.055713629E1,-1.016436115E0,-5.502314714E-1,2.509844229E0,2.763189299E0
1.056710529E1,-7.866115960E-1,-5.534775531E-1,2.433894160E0,2.617047188E0
1.057707429E1,-4.416195868E-1,-6.603743032E-1,2.602002195E0,2.720576685E0
1.058704329E1,-3.946051955E-2,-8.711263740E-1,2.607888587E0,2.749818389E0
1.059701229E1,2.115980168E-1,-1.193729833E0,2.388256642E0,2.678345463E0
1.060698129E1,3.816372406E-1,-1.442168963E0,2.122575535E0,2.594383395E0
1.061694929E1,5.608292574E-1,-1.606861347E0,1.875238312E0,2.532400358E0
1.062691829E1,6.394678760E-1,-1.817028696E0,1.387314479E0,2.373847912E0
1.063688729E1,6.845898159E-1,-1.940452601E0,5.164132226E-1,2.121485831E0
1.064685629E1,6.251362042E-1,-2.037110292E0,-4.984646094E-1,2.188396806E0
1.065682529E1,4.688674656E-1,-2.024808919E0,-1.418447978E0,2.516283475E0
1.066679429E1,3.385080318E-1,-1.899731129E0,-2.361364712E0,3.049526087E0
1.067676329E1,2.552774303E-1,-1.762529430E0,-3.195287007E0,3.658078131E0
1.068673229E1,1.653404014E-1,-1.577478503E0,-3.860089114E0,4.173255785E0
1.069670129E1,-4.283377826E-2,-1.426772075E0,-4.265201756E0,4.497717122E0
1.070667029E1,-2.040527880E-1,-1.262939232E0,-4.371026419E0,4.554396228E0
1.071663929E1,-4.429273166E-1,-1.181084937E0,-4.087238824E0,4.277460396E0
1.072660829E1,-6.016932549E-1,-1.135614357E0,-3.735004892E0,3.949926111E0
1.073657729E1,-5.992466336E-1,-1.231257555E0,-3.435457297E0,3.698304819E0
1.074654629E1,-6.051410656E-1,-1.331147879E0,-3.028869987E0,3.363361976E0
1.075651529E1,-6.370909828E-1,-1.296207842E0,-2.423608323E0,2.821332485E0
1.076648429E1,-6.616856875E-1,-1.227298113E0,-2.019428312E0,2.454012900E0
1.077645329E1,-7.787361275E-1,-1.139556842E0,-1.739916201E0,2.220884539E0
1.078642229E1,-7.727491634E-1,-1.024637127E0,-1.557897640E0,2.018431958E0
1.079639129E1,-8.159956089E-1,-8.750673974E-1,-1.525197671E0,1.938509665E0
1.080636029E1,-7.949766228E-1,-6.646845782E-1,-1.382899246E0,1.728063582E0
1.081632929E1,-7.570657615E-1,-3.970917240E-1,-1.358535068E0,1.605131750E0
1.082629829E1,-6.132871141E-1,-1.814510885E-1,-1.478521687E0,1.610922705E0
1.083626629E1,-5.365876149E-1,-5.037493229E-2,-1.259522411E0,1.369985623E0
1.084623529E1,-5.789553701E-1,1.851979843E-1,-9.564261407E-1,1.133242506E0
1.085620429E1,-6.601643881E-1,3.383848017E-1,-7.362445575E-1,1.045168571E0
1.086617329E1,-7.147465383E-1,3.766665226E-1,-7.359165287E-1,1.092846476E0
1.087614229E1,-8.864335075E-1,5.022495121E-1,-5.558854365E-1,1.160615162E0
1.088611129E1,-1.092825894E0,6.501337820E-1,-2.762522882E-1,1.301252357E0
1.089608029E1,-1.128990338E0,7.179091510E-1,-7.815914690E-2,1.340194607E0
1.090604929E1,-1.017542993E0,8.005013645E-1,1.177488899E-1,1.300023453E0
1.091601829E1,-8.111769184E-1,8.826348639E-1,3.204426205E-1,1.240860898E0
1.092598729E1,-6.319962307E-1,9.349773842E-1,6.189470726E-1,1.287127586E0
1.093595629E1,-5.277944624E-1,9.633115295E-1,1.113770036E0,1.564295302E0
1.094592529E1,-4.106546330E-1,8.823328552E-1,1.585271965E0,1.860170878E0
1.095589429E1,-2.956963268E-1,8.375452298E-1,1.953641288E0,2.146073767E0
1.096586329E1,-1.272990742E-1,7.910279980E-1,2.252499497E0,2.390749743E0
1.097583229E1,5.692410618E-3,7.511961803E-1,2.470658528E0,2.582340347E0
1.098580129E1,6.971934892E-2,8.854090753E-1,2.626049454E0,2.772173471E0
1.099577029E1,1.641847723E-1,1.142754976E0,2.607340702E0,2.851503308E0
1.100573929E1,2.253493524E-1,1.499355317E0,2.242033566E0,2.706577766E0
1.101570829E1,4.243976364E-1,1.590883245E0,1.720289437E0,2.381264076E0
1.102567729E1,7.124848352E-1,1.396384095E0,1.434572260E0,2.124975471E0
1.103564629E1,8.869166337E-1,1.370615708E0,1.215277700E0,2.035217045E0
1.104561529E1,9.292137837E-1,1.389765632E0,1.154197685E0,2.031516444E0
1.105558429E1,1.009128265E0,1.135463206E0,1.329595444E0,2.018772050E0
1.106555329E1,1.220743531E0,6.721584892E-1,1.657520161E0,2.165498762E0
1.107552229E1,1.334795080E0,2.649402648E-1,2.092692170E0,2.496243531E0
1.108549029E1,1.311471706E0,-1.680448848E-1,2.617946382E0,2.932889425E0
1.109545929E1,1.396185582E0,-7.306832707E-1,3.040722293E0,3.424795510E0
1.110542829E1,1.527722353E0,-1.057165480E0,3.323621112E0,3.807622845E0
1.111539729E1,1.450793898E0,-1.203931178E0,3.334238486E0,3.830326291E0
1.112536629E1,1.454789593E0,-1.409923323E0,3.051096423E0,3.662442617E0
1.113533529E1,1.418855822E0,-1.431992469E0,1.919108802E0,2.783295325E0
1.114530429E1,1.249689733E0,-1.271003419E0,9.369169056E-1,2.013699930E0
1.115527329E1,1.012791253E0,-1.051241081E0,2.299540347E-1,1.477745848E0
1.116524229E1,7.604963230E-1,-8.914723456E-1,-6.818280298E-1,1.355716439E0
1.117521129E1,5.040578366E-1,-7.806883666E-1,-1.413443347E0,1.691558667E0
1.118518029E1,2.647862638E-1,-7.572231978E-1,-2.055094573E0,2.206107985E0
1.119514929E1,-2.976963669E-2,-7.649459079E-1,-2.479550389E0,2.595033450E0
1.120511829E1,-3.520513527E-1,-7.913700601E-1,-2.658744160E0,2.796270236E0
1.121508729E1,-5.520331447E-1,-8.600137407E-1,-2.725058602E0,2.910379462E0
1.122505629E1,-6.287129460E-1,-9.375027966E-1,-2.635507325E0,2.867069989E0
1.123502529E1,-6.743308760E-1,-9.265497923E-1,-2.323085915E0,2.590356118E0
1.124499429E1,-6.727987593E-1,-9.177845237E-1,-2.003567154E0,2.304184876E0
1.125496329E1,-6.410479398E-1,-9.868857488E-1,-1.820136491E0,2.167436917E0
1.126493229E1,-6.565480314E-1,-1.092990201E0,-1.756980130E0,2.170866664E0
1.127490129E1,-7.686623982E-1,-1.231141196E0,-1.817937353E0,2.326251652E0
1.128487029E1,-9.610020255E-1,-1.267524033E0,-1.748561894E0,2.363812760E0
1.129483929E1,-1.130866856E0,-1.255470291E0,-1.740012095E0,2.425429362E0
1.130480829E1,-1.264045379E0,-1.286734768E0,-1.824181595E0,2.565372405E0
1.131477729E1,-1.312673894E0,-1.302657613E0,-1.873428599E0,2.632444553E0
1.132474629E1,-1.322039525E0,-1.259638771E0,-1.850734971E0,2.599941975E0
1.133471479E1,-1.269468525E0,-1.205109977E0,-1.873678275E0,2.564080863E0
1.134468379E1,-1.098992660E0,-1.085313976E0,-1.976624354E0,2.508532466E0
1.135465179E1,-8.604639763E-1,-9.310123873E-1,-2.160847315E0,2.505283106E0
1.136462079E1,-6.866021352E-1,-7.764763248E-1,-2.294559104E0,2.517804491E0
1.137458979E1,-6.512042610E-1,-6.415290195E-1,-2.274271020E0,2.451108962E0
1.138455879E1,-6.793514416E-1,-5.626775622E-1,-2.179975312E0,2.351683818E0
1.139452779E1,-7.413737351E-1,-5.057139874E-1,-2.067345074E0,2.253729644E0
1.140449679E1,-8.182400626E-1,-4.351877958E-1,-1.887226274E0,2.102505226E0
1.141446579E1,-9.125047803E-1,-3.146836978E-1,-1.740040746E0,1.989832305E0
1.142443479E1,-8.869815378E-1,-1.398373318E-1,-1.602191468E0,1.836656807E0
1.143440379E1,-8.788854830E-1,1.567673600E-1,-1.416723050E0,1.674550655E0
1.144437279E1,-9.352039638E-1,4.787135920E-1,-1.194585573E0,1.590851297E0
1.145434179E1,-9.594210845E-1,7.376642615E-1,-9.951235986E-1,1.566814717E0
1.146431079E1,-8.999882305E-1,9.477365935E-1,-6.326126003E-1,1.452026917E0
1.147427979E1,-7.696266771E-1,1.136138267E0,-2.063850778E-1,1.387706808E0
1.148424879E1,-5.584832083E-1,1.236772649E0,2.788730103E-1,1.385380899E0
1.149421779E1,-2.896063055E-1,1.256570444E0,8.461400521E-1,1.542333972E0
1.150418679E1,-8.469954997E-2,1.251216149E0,1.481252337E0,1.940830841E0
1.151415579E1,1.840771461E-1,1.158671097E0,1.869409223E0,2.207055494E0
1.152412479E1,4.798188619E-1,1.025752484E0,2.130200304E0,2.412498214E0
1.153409379E1,7.694466560E-1,9.604583806E-1,2.225405838E0,2.543021747E0
1.154406279E1,9.528042291E-1,9.218392754E-1,2.305134378E0,2.659185599E0
1.155403179E1,8.248167184E-1,1.074405411E0,2.298315940E0,2.667756692E0
1.156400079E1,5.150576552E-1,1.282346140E0,1.809486372E0,2.276826068E0
1.157396979E1,9.765844166E-2,1.404794145E0,1.287243476E0,1.907873038E0
1.158393879E1,-3.480939572E-1,1.512663580E0,1.154080741E0,1.934224099E0
1.159390779E1,-6.992717358E-1,1.523284462E0,9.484938079E-1,1.925880842E0
1.160387679E1,-1.028463984E0,1.457009781E0,9.613518351E-1,2.026033815E0
1.161384579E1,-1.373582293E0,1.295968691E0,1.354001137E0,2.323700119E0
1.162381479E1,-1.567979409E0,9.936761203E-1,1.837258308E0,2.611794354E0
1.163378279E1,-1.444253057E0,5.778352994E-1,2.450379800E0,2.902433752E0
1.164375179E1,-1.149834347E0,1.687822187E-1,2.958358998E0,3.178442138E0
1.165372079E1,-1.001375295E0,-1.952417466E-1,3.380657192E0,3.531248345E0
1.166368979E1,-8.234413071E-1,-5.256711191E-1,3.551984119E0,3.683880684E0
1.167365879E1,-5.134007370E-1,-8.575614184E-1,3.310752559E0,3.458334052E0
1.168362779E1,-3.661434348E-1,-9.639056066E-1,2.915388395E0,3.092355822E0
1.169359679E1,-2.691182466E-1,-8.540215141E-1,2.522288273E0,2.676511817E0
1.170356579E1,-2.592618875E-1,-7.086354670E-1,2.377048114E0,2.493940394E0
1.171353479E1,-1.057172205E-1,-5.818894663E-1,2.472505079E0,2.542253498E0
1.172350379E1,2.024094097E-1,-6.854959881E-1,2.615185912E0,2.711101561E0
1.173347279E1,4.366130546E-1,-9.150190830E-1,2.686065275E0,2.871034229E0
1.174344179E1,6.400851957E-1,-1.220513297E0,2.444896281E0,2.806577914E0
1.175341079E1,8.226266438E-1,-1.463132985E0,2.189730222E0,2.759056210E0
1.176337979E1,1.160691310E0,-1.601731877E0,1.704741105E0,2.611300741E0
1.177334879E1,1.370413687E0,-1.773063481E0,7.757594562E-1,2.371411081E0
1.178331779E1,1.438968343E0,-1.820389091E0,-3.376474679E-2,2.320686621E0
1.179328679E1,1.518510795E0,-1.696864614E0,-6.854182202E-1,2.378029161E0
1.180325579E1,1.466977237E0,-1.533482591E0,-1.404728656E0,2.544966339E0
1.181322479E1,1.266269367E0,-1.471089876E0,-2.081735072E0,2.846254459E0
1.182319379E1,1.057396153E0,-1.434979227E0,-2.648599241E0,3.192542865E0
1.183316279E1,8.837946591E-1,-1.350082625E0,-3.116713293E0,3.509660645E0
1.184313179E1,7.675338855E-1,-1.174883965E0,-3.463592929E0,3.737102698E0
1.185310079E1,7.952909106E-1,-1.040483082E0,-3.543077640E0,3.777365727E0
1.186306979E1,8.184945627E-1,-9.591205376E-1,-3.339045482E0,3.569183420E0
1.187303879E1,7.898171858E-1,-9.004139078E-1,-3.211245228E0,3.427338954E0
1.188300779E1,7.594369537E-1,-9.011740458E-1,-3.109040576E0,3.324904879E0
1.189297679E1,6.628229709E-1,-9.028127280E-1,-2.925697036E0,3.132747717E0
1.190294579E1,4.528284068E-1,-9.252207202E-1,-2.671336724E0,2.863062493E0
1.191291479E1,1.864261919E-1,-9.332214653E-1,-2.469183276E0,2.646228085E0
1.192288379E1,9.142223999E-2,-1.012287515E0,-2.200790230E0,2.424162057E0
1.193285279E1,5.009148851E-2,-1.031339791E0,-1.940290341E0,2.197930283E0
1.194282179E1,-1.054834780E-1,-9.148489290E-1,-1.494788641E0,1.755695990E0
1.195279079E1,-1.360540371E-1,-8.157234210E-1,-1.243817375E0,1.493652256E0
1.196275979E1,-8.144396648E-2,-7.394605261E-1,-1.303940785E0,1.501231681E0
1.197272879E1,-2.316750164E-1,-5.716960153E-1,-1.261141505E0,1.403918638E0
1.198269679E1,-4.654019670E-1,-3.066744742E-1,-1.232952079E0,1.353077622E0
1.199266579E1,-5.676332237E-1,-5.368328691E-2,-1.422824619E0,1.532814167E0
1.200263479E1,-6.562467536E-1,2.352103892E-1,-1.628074168E0,1.771047494E0
1.201260379E1,-7.752411005E-1,5.833924931E-1,-1.592014389E0,1.864364605E0
1.202257279E1,-8.899514848E-1,8.851909742E-1,-1.235471059E0,1.761239746E0
1.203254179E1,-9.184483288E-1,1.047015299E0,-7.241308808E-1,1.569762371E0
1.204251079E1,-8.963898540E-1,1.060639603E0,-1.203345287E-1,1.393897965E0
1.205247979E1,-7.770994918E-1,9.920497173E-1,4.267280442E-1,1.330467243E0
1.206244879E1,-6.757969192E-1,9.229622331E-1,9.357234889E-1,1.477883354E0
1.207241779E1,-5.474695390E-1,8.636600643E-1,1.325228158E0,1.673876123E0
1.208238679E1,-3.431252857E-1,8.728676748E-1,1.585844992E0,1.842427007E0
1.209235579E1,-2.965972731E-1,9.988345340E-1,1.903447035E0,2.169965664E0
1.210232479E1,-3.490071826E-1,1.136658085E0,2.027770534E0,2.350670320E0
1.211229379E1,-5.000551982E-1,1.295327836E0,2.007718678E0,2.441078387E0
1.212226279E1,-7.593069993E-1,1.557098618E0,1.932117687E0,2.595030247E0
1.213223179E1,-1.013204797E0,1.886098638E0,1.733270255E0,2.754664737E0
1.214220079E1,-9.936578478E-1,1.890967907E0,1.639068688E0,2.692519583E0
1.215216979E1,-7.156317336E-1,1.624334581E0,1.787228946E0,2.518884459E0
1.216213879E1,-2.737947035E-1,1.380226484E0,1.982827080E0,2.431376548E0
1.217210779E1,2.196317256E-1,1.046493727E0,2.369327450E0,2.599442206E0
1.218207679E1,7.977878179E-1,4.478832704E-1,2.983131897E0,3.120278952E0
1.219204579E1,1.207682605E0,-1.072186393E-1,3.446476960E0,3.653518379E0
1.220201479E1,1.206349148E0,-4.539731455E-1,3.681109936E0,3.900248742E0
1.221198379E1,1.140381738E0,-7.348856646E-1,3.541757339E0,3.792699895E0
1.222195279E1,1.114884662E0,-1.001276039E0,3.118666263E0,3.460000112E0
1.223192179E1,9.484499538E-1,-1.172493915E0,2.592466555E0,2.999196915E0
1.224189079E1,6.884435695E-1,-1.028289298E0,2.138795126E0,2.470987256E0
1.225185979E1,7.196673357E-1,-8.608934543E-1,1.654704142E0,1.999275972E0
1.226182879E1,1.019603113E0,-8.427340490E-1,1.001363747E0,1.659072192E0
1.227179779E1,1.241115669E0,-8.522995090E-1,2.795243901E-1,1.531312000E0
1.228176679E1,1.378277315E0,-8.274558592E-1,-2.173106003E-1,1.622206969E0
1.229173579E1,1.545250989E0,-8.980604035E-1,-5.231076998E-1,1.862244553E0
1.230170479E1,1.587788314E0,-1.004437336E0,-7.665565234E-1,2.029180868E0
1.231167379E1,1.507141469E0,-1.073024299E0,-9.525611311E-1,2.080920292E0
1.232164279E1,1.320877537E0,-1.119576906E0,-1.154629210E0,2.081186808E0
1.233161604E1,1.110336259E0,-1.126743838E0,-1.270956641E0,2.029218832E0
1.234158504E1,8.797036546E-1,-1.087581234E0,-1.461981668E0,2.023388707E0
1.235155404E1,8.094784485E-1,-1.039637282E0,-1.854197107E0,2.274675350E0
1.236152204E1,7.371586235E-1,-9.823433393E-1,-2.189471775E0,2.510415887E0
1.237149104E1,6.343442532E-1,-9.354369754E-1,-2.418622402E0,2.669675877E0
1.238146004E1,5.085707907E-1,-9.387798285E-1,-2.463923120E0,2.685306120E0
1.239142904E1,3.118458613E-1,-9.513411096E-1,-2.505829530E0,2.698421647E0
1.240139804E1,1.587864035E-1,-1.026949701E0,-2.692766769E0,2.886318015E0
1.241136704E1,-1.597166955E-2,-1.072664695E0,-2.664850407E0,2.872680340E0
1.242133604E1,-1.322586094E-1,-1.114621975E0,-2.680940191E0,2.906426464E0
1.243130504E1,-1.591533163E-1,-1.120756289E0,-2.765790891E0,2.988481837E0
1.244127404E1,-9.175947815E-2,-1.092680299E0,-2.706333479E0,2.920036119E0
1.245124304E1,-6.648254961E-2,-1.056663204E0,-2.588654755E0,2.796800046E0
1.246121204E1,1.509001907E-2,-9.658843043E-1,-2.375837740E0,2.564715416E0
1.247118104E1,1.451641452E-1,-8.447674182E-1,-2.230792294E0,2.389798920E0
1.248115004E1,2.275008354E-1,-7.698754030E-1,-2.219907117E0,2.360604239E0
1.249111904E1,2.421538116E-1,-7.126285306E-1,-2.150283151E0,2.278200061E0
1.250108804E1,2.285198223E-1,-5.809591743E-1,-1.959082122E0,2.056146307E0
1.251105704E1,1.984990843E-1,-4.358660728E-1,-1.826239815E0,1.887997082E0
1.252102604E1,1.902937962E-1,-3.112718475E-1,-1.874366493E0,1.909542259E0
1.253099504E1,1.978966749E-1,-1.550091022E-1,-1.862952728E0,1.879836105E0
1.254096404E1,1.526421493E-1,4.781209767E-2,-1.659912842E0,1.667601950E0
1.255093304E1,2.258574754E-2,2.943248624E-1,-1.412286767E0,1.442806693E0
1.256090204E1,-9.140922993E-2,4.523464501E-1,-1.120231794E0,1.211566024E0
1.257087104E1,-2.088584501E-1,5.961183733E-1,-7.716254747E-1,9.971884678E-1
1.258084004E1,-2.911664888E-1,7.569287905E-1,-4.543801117E-1,9.296130399E-1
1.259080904E1,-2.961208529E-1,8.947809926E-1,-2.192121148E-2,9.427624959E-1
1.260077804E1,-2.144656375E-1,1.016240818E0,3.005381137E-1,1.081232661E0
1.261074704E1,2.122685462E-2,1.078842278E0,4.749757594E-1,1.178962770E0
1.262071604E1,3.531881976E-1,1.156119665E0,7.960212278E-1,1.447412995E0
1.263068504E1,5.758917945E-1,1.212184815E0,1.095700386E0,1.732513411E0
1.264065404E1,8.053615701E-1,1.208767995E0,1.252253153E0,1.917776129E0
1.265062304E1,1.059325734E0,1.230429297E0,1.305410775E0,2.083320561E0
1.266059204E1,1.021935421E0,1.317222735E0,1.344281895E0,2.141616575E0
1.267056104E1,7.851391210E-1,1.381559941E0,1.316772500E0,2.063744443E0
1.268053004E1,5.265565337E-1,1.431415349E0,1.104082369E0,1.882872689E0
1.269049904E1,2.326076291E-1,1.594805557E0,8.728647512E-1,1.832867685E0
1.270046804E1,4.853335172E-3,1.816406552E0,7.761132127E-1,1.975274167E0
1.271043704E1,-1.148073202E-1,1.873504321E0,8.313606298E-1,2.052890561E0
1.272040604E1,-2.947061008E-1,1.850847237E0,1.023352786E0,2.135354328E0
1.273037504E1,-4.359588973E-1,1.763512639E0,1.379014941E0,2.280727778E0
1.274034404E1,-4.874075246E-1,1.496064796E0,1.871477968E0,2.445036964E0
1.275031204E1,-5.236753182E-1,1.109520864E0,2.475906989E0,2.763220550E0
1.276028104E1,-5.970837486E-1,7.258411914E-1,3.108011466E0,3.247012429E0
1.277025004E1,-6.528524449E-1,3.567047131E-1,3.772987236E0,3.845632230E0
1.278021904E1,-6.720419835E-1,5.863529384E-2,3.959311101E0,4.016369371E0
1.279018804E1,-5.613129683E-1,-2.073285261E-1,3.812901499E0,3.859569304E0
1.280015704E1,-6.051135837E-1,-4.131692281E-1,3.450857109E0,3.527787699E0
1.281012604E1,-8.216321786E-1,-4.558109254E-1,2.867523088E0,3.017537356E0
1.282009504E1,-1.017469756E0,-3.648124623E-1,2.495579946E0,2.719605138E0
1.283006404E1,-1.001304398E0,-3.005217415E-1,2.143487517E0,2.384840152E0
1.284003304E1,-9.216531877E-1,-2.917591041E-1,1.832151935E0,2.071557068E0
1.285000204E1,-9.745810144E-1,-3.483928961E-1,1.874660023E0,2.141386459E0
1.285997104E1,-9.309701411E-1,-4.502806288E-1,1.828827208E0,2.100968111E0
1.286994004E1,-7.402471228E-1,-6.577781394E-1,1.587863451E0,1.871349305E0
1.287990904E1,-5.362363069E-1,-8.183225083E-1,1.252873542E0,1.589620463E0
1.288987804E1,-3.776419844E-1,-8.773951739E-1,8.492449236E-1,1.278144241E0
1.289984704E1,-1.775083110E-1,-9.129237333E-1,2.236559987E-1,9.565359110E-1
1.290981604E1,3.509469599E-2,-9.566044807E-1,-4.344978243E-1,1.051243135E0
1.291978504E1,1.921064513E-1,-9.594766331E-1,-9.914556402E-1,1.393012773E0
1.292975404E1,2.502925511E-1,-1.018935800E0,-1.520286595E0,1.847200004E0
1.293972304E1,1.608630422E-1,-1.106040602E0,-2.048270288E0,2.333369645E0
1.294969204E1,1.996221151E-3,-1.202367925E0,-2.535008306E0,2.805701289E0
1.295966104E1,-1.432664314E-1,-1.300709906E0,-2.887535768E0,3.170210457E0
1.296963004E1,-2.833281501E-1,-1.369613203E0,-3.108698514E0,3.408829948E0
1.297959904E1,-4.194862676E-1,-1.408401585E0,-3.173900816E0,3.497600626E0
1.298956804E1,-5.635390033E-1,-1.406434874E0,-3.004161408E0,3.364613058E0
1.299953704E1,-5.891365054E-1,-1.388844987E0,-2.780462725E0,3.163375600E0
1.300950604E1,-5.420854229E-1,-1.349107018E0,-2.624616301E0,3.000426149E0
1.301947504E1,-5.129072320E-1,-1.271057506E0,-2.515662208E0,2.864824141E0
1.302944404E1,-4.656778094E-1,-1.131811035E0,-2.486840113E0,2.771682844E0
1.303941304E1,-3.681958075E-1,-9.960626614E-1,-2.458444864E0,2.677995543E0
1.304938204E1,-2.851656376E-1,-8.809029186E-1,-2.366074060E0,2.540790398E0
1.305935104E1,-3.245038041E-1,-7.078700665E-1,-2.191615949E0,2.325846774E0
1.306932004E1,-3.813685611E-1,-5.174701068E-1,-2.080813551E0,2.177843503E0
1.307928904E1,-4.696188328E-1,-3.973393536E-1,-2.123142715E0,2.210464973E0
1.308925804E1,-5.981321543E-1,-3.397875488E-1,-1.954761615E0,2.072271851E0
1.309922704E1,-7.779908998E-1,-2.322841501E-1,-1.681565081E0,1.867320779E0
1.310919604E1,-8.709271301E-1,-1.370011398E-1,-1.477339380E0,1.720411295E0
1.311916504E1,-8.728514488E-1,-1.100238410E-1,-1.199195518E0,1.487294452E0
1.312913404E1,-8.938546474E-1,-2.855750889E-2,-9.745554328E-1,1.322705543E0
1.313910204E1,-8.715792409E-1,6.685911030E-2,-7.568092149E-1,1.156235574E0
1.314907104E1,-8.192715114E-1,1.778600210E-1,-5.591797578E-1,1.007731114E0
1.315904004E1,-8.202181756E-1,3.620859057E-1,-3.562895608E-1,9.647830377E-1
1.316900904E1,-7.445243610E-1,4.749532476E-1,-1.700785464E-1,8.993463313E-1
1.317897804E1,-6.547090821E-1,5.262342060E-1,1.021181130E-1,8.461646002E-1
1.318894704E1,-5.657089050E-1,5.807314253E-1,4.593075603E-1,9.317934259E-1
1.319891604E1,-3.137164953E-1,5.385352859E-1,8.109170097E-1,1.022753485E0
1.320888504E1,-1.217349368E-1,5.101666421E-1,1.188873428E0,1.299426576E0
1.321885404E1,-1.872629285E-2,5.514944699E-1,1.725435571E0,1.811525527E0
1.322882304E1,-2.010791682E-2,5.986809155E-1,2.218748783E0,2.298188271E0
1.323879204E1,1.025611858E-1,6.086337537E-1,2.402329720E0,2.480351170E0
1.324876104E1,1.723757713E-1,7.402218336E-1,2.472929002E0,2.587087091E0
1.325873004E1,1.042742007E-1,1.051531396E0,2.543456363E0,2.754226145E0
1.326869904E1,3.699197128E-2,1.395875972E0,2.333609149E0,2.719479692E0
1.327866804E1,1.226433018E-1,1.493004948E0,1.958657030E0,2.465855331E0
1.328863704E1,3.996223258E-1,1.316588020E0,1.802051638E0,2.267265340E0
1.329860604E1,6.599563734E-1,1.203799616E0,1.699382132E0,2.184622521E0
1.330857504E1,8.848306395E-1,1.089136886E0,1.814616135E0,2.293899765E0
1.331854404E1,1.208934202E0,6.331897205E-1,2.218266973E0,2.604449940E0
1.332851304E1,1.525132182E0,4.787495524E-2,2.702394210E0,3.103426276E0
1.333847858E1,1.529093817E0,-3.827487963E-1,3.028732578E0,3.414358735E0
1.334844758E1,1.412060188E0,-7.718084925E-1,3.207931026E0,3.588930731E0
1.335841658E1,1.384633092E0,-1.145841429E0,3.316673450E0,3.772331395E0
1.336838558E1,1.338644887E0,-1.436912901E0,2.877993697E0,3.484183769E0
1.337835458E1,1.183207330E0,-1.566701208E0,2.032174657E0,2.825644368E0
1.338832358E1,9.941592465E-1,-1.391947812E0,1.315376769E0,2.157796878E0
1.339829258E1,1.081504369E0,-1.220764435E0,6.147616357E-1,1.742942734E0
1.340826158E1,1.153040375E0,-1.103409647E0,-1.082261145E-1,1.599602403E0
1.341823058E1,1.050507694E0,-8.959752864E-1,-3.831136626E-1,1.432869222E0
1.342819958E1,1.177220951E0,-7.587937599E-1,-3.418539548E-1,1.441693887E0
1.343816858E1,1.438288458E0,-7.593515843E-1,-3.538822621E-1,1.664488262E0
1.344813758E1,1.513430734E0,-8.029402381E-1,-5.244519746E-1,1.791713004E0
1.345810658E1,1.443672574E0,-7.944918886E-1,-6.346135175E-1,1.765826203E0
1.346807558E1,1.339653532E0,-7.277146393E-1,-5.167699027E-1,1.609748835E0
1.347804458E1,1.243973934E0,-6.831465769E-1,-5.079388529E-1,1.507369322E0
1.348801358E1,1.116017779E0,-6.391483256E-1,-9.016751522E-1,1.570676397E0
1.349798258E1,9.895496672E-1,-6.000029710E-1,-1.386900496E0,1.806295960E0
1.350795158E1,8.284941785E-1,-6.097897482E-1,-1.840673667E0,2.108631236E0
1.351791958E1,6.001386264E-1,-6.185734355E-1,-2.302268658E0,2.458300315E0
1.352788858E1,3.452381770E-1,-6.358858716E-1,-2.674427562E0,2.770578103E0
1.353785758E1,1.214573403E-1,-7.426051587E-1,-2.949272425E0,3.043751328E0
1.354782658E1,-3.682254821E-2,-8.292111933E-1,-3.075372308E0,3.185413935E0
1.355779558E1,-1.230289257E-1,-8.475264269E-1,-3.039074548E0,3.157437453E0
1.356776458E1,-1.084037237E-1,-8.357784936E-1,-2.945422618E0,3.063623909E0
1.357773358E1,-7.661255836E-2,-8.464072698E-1,-2.820712034E0,2.945961834E0
1.358770258E1,-7.611320615E-2,-8.790078360E-1,-2.726466612E0,2.865670634E0
1.359767158E1,-5.282096878E-2,-8.271497574E-1,-2.615798700E0,2.743969682E0
1.360764058E1,-1.536619037E-2,-7.042263740E-1,-2.523241954E0,2.619717707E0
1.361760958E1,-1.562522203E-3,-5.799756727E-1,-2.446994846E0,2.514787864E0
1.362757858E1,1.593041014E-2,-4.294654182E-1,-2.411302273E0,2.449300507E0
1.363754758E1,5.619462948E-2,-2.716543302E-1,-2.364588867E0,2.380805414E0
1.364751658E1,6.063617449E-2,-1.477085611E-1,-2.218887947E0,2.224625426E0
1.365748558E1,5.116021335E-3,-2.071025312E-2,-2.042749346E0,2.042860735E0
1.366745458E1,-1.010267302E-2,3.148140907E-3,-1.863552652E0,1.863582695E0
1.367742358E1,1.847632438E-2,4.518377423E-2,-1.577101650E0,1.577856953E0
1.368739258E1,7.613948207E-2,1.904973158E-1,-1.253333133E0,1.270011965E0
1.369736158E1,1.611066883E-1,3.145188063E-1,-1.025824989E0,1.084985877E0
1.370733058E1,1.949338907E-1,4.975884041E-1,-6.682905561E-1,8.556901945E-1
1.371729958E1,1.295915481E-1,7.857836303E-1,-2.922233731E-1,8.483185621E-1
1.372726858E1,1.838003536E-1,9.575751185E-1,-1.860262424E-1,9.926421513E-1
1.373723758E1,2.198260725E-1,1.066632122E0,1.140984732E-1,1.095009611E0
1.374720658E1,1.898327432E-1,1.200786838E0,5.008239609E-1,1.314819432E0
1.375717558E1,3.474506173E-1,1.192399007E0,7.648011893E-1,1.458580879E0
1.376714458E1,6.000938952E-1,1.104436126E0,1.072140784E0,1.652082837E0
1.377711358E1,8.472796744E-1,1.084352402E0,1.305727109E0,1.897004550E0
1.378708258E1,1.117341662E0,1.030157776E0,1.499434254E0,2.134942743E0
1.379705158E1,1.180803832E0,1.041719183E0,1.702482911E0,2.319035275E0
1.380702058E1,1.012456646E0,1.139547486E0,1.768272273E0,2.334614265E0
1.381698958E1,6.378883968E-1,1.238685858E0,1.530955424E0,2.070040766E0
1.382695858E1,1.316016747E-1,1.409314043E0,1.250480862E0,1.888699939E0
1.383692758E1,-2.664770593E-1,1.528375048E0,1.224170730E0,1.976242467E0
1.384689558E1,-4.897167362E-1,1.641589715E0,1.402260547E0,2.213814336E0
1.385686458E1,-6.476026686E-1,1.738743834E0,1.626849761E0,2.467642495E0
1.386683358E1,-7.156050557E-1,1.625575068E0,1.938483551E0,2.629125972E0
1.387680258E1,-5.946665096E-1,1.346321112E0,2.581129389E0,2.971268705E0
1.388677158E1,-1.388343881E-1,8.984012961E-1,3.172676994E0,3.300345313E0
1.389674058E1,2.354552414E-1,3.169822383E-1,3.746474206E0,3.767225224E0
1.390670958E1,2.408107062E-1,-1.588673875E-1,4.146092219E0,4.156117098E0
1.391667858E1,1.971086164E-1,-5.205974901E-1,4.010790573E0,4.049236295E0
1.392664758E1,1.868072842E-1,-8.075797114E-1,3.229324819E0,3.334009709E0
1.393661658E1,-2.405400166E-2,-9.125094581E-1,2.261114200E0,2.438419474E0
1.394658558E1,-5.843303865E-1,-7.476776183E-1,1.740897363E0,1.982722233E0
1.395655458E1,-8.860268337E-1,-4.664703995E-1,1.328859279E0,1.663882558E0
1.396652358E1,-9.489408275E-1,-3.597382486E-1,9.444504583E-1,1.386321380E0
1.397649258E1,-8.822987951E-1,-4.143489039E-1,9.477950656E-1,1.359577752E0
1.398646158E1,-6.255314760E-1,-4.760490158E-1,1.246284315E0,1.473477820E0
1.399643058E1,-1.640663114E-1,-6.773148564E-1,1.286802011E0,1.463397617E0
1.400639958E1,2.103316560E-1,-9.808686715E-1,1.111346950E0,1.497142211E0
1.401636858E1,4.936723776E-1,-1.149499155E0,8.689962333E-1,1.523225255E0
1.402633758E1,7.676562385E-1,-1.233155854E0,5.989876020E-1,1.571227421E0
1.403630658E1,8.784274998E-1,-1.265067326E0,3.028869402E-1,1.569640312E0
1.404627558E1,7.347963484E-1,-1.300659912E0,-1.740944141E-1,1.503978306E0
1.405624458E1,5.621095052E-1,-1.350277630E0,-7.838350457E-1,1.659401746E0
1.406621358E1,4.736712456E-1,-1.420800606E0,-1.447237914E0,2.082675296E0
1.407618258E1,3.056225601E-1,-1.432379555E0,-1.920991021E0,2.415641289E0
1.408615158E1,-1.966959491E-2,-1.375727051E0,-2.267464861E0,2.652245974E0
1.409612058E1,-2.437846000E-1,-1.352916479E0,-2.643554263E0,2.979629687E0
1.410608958E1,-3.563518336E-1,-1.383284285E0,-2.932193878E0,3.261628884E0
1.411605858E1,-4.266644557E-1,-1.364626113E0,-3.157534459E0,3.466160822E0
1.412602758E1,-4.562743172E-1,-1.265098901E0,-3.265930728E0,3.531991648E0
1.413599658E1,-3.969695172E-1,-1.192278554E0,-3.252341799E0,3.486666047E0
1.414596558E1,-2.458375575E-1,-1.113645490E0,-3.176420966E0,3.374950746E0
1.415593458E1,-1.014148575E-1,-1.096196522E0,-3.111738482E0,3.300734489E0
1.416590258E1,-9.074367061E-2,-1.063444220E0,-2.921171876E0,3.110047131E0
1.417587158E1,-1.193155052E-1,-9.681474692E-1,-2.722071844E0,2.891577569E0
1.418584058E1,-2.023189423E-1,-9.014462337E-1,-2.649262315E0,2.805731470E0
1.419580958E1,-3.498633246E-1,-7.923965389E-1,-2.588079389E0,2.729185143E0
1.420577858E1,-5.116442335E-1,-6.226916295E-1,-2.478271603E0,2.606022798E0
1.421574758E1,-6.392120603E-1,-4.531562895E-1,-2.308471969E0,2.437823930E0
1.422571658E1,-6.650788267E-1,-2.344177991E-1,-2.108206002E0,2.223019140E0
1.423568558E1,-6.596290755E-1,-9.220562071E-2,-1.729678311E0,1.853483060E0
1.424565458E1,-7.251222762E-1,3.532244503E-2,-1.378539562E0,1.558018394E0
1.425562358E1,-7.060222001E-1,1.196971822E-1,-1.268123665E0,1.456342128E0
1.426559258E1,-6.575493671E-1,1.799311048E-1,-1.054874541E0,1.255988324E0
1.427556158E1,-5.991667095E-1,3.771190971E-1,-8.414084852E-1,1.099630755E0
1.428553058E1,-6.171939312E-1,6.941738409E-1,-6.232827830E-1,1.118609448E0
1.429549958E1,-7.021386257E-1,8.996923614E-1,-4.832162404E-1,1.239331646E0
1.430546858E1,-6.324051704E-1,9.276157397E-1,-3.694849724E-1,1.181916412E0
1.431543758E1,-5.387386594E-1,9.624025798E-1,-2.255885035E-1,1.125765625E0
1.432540658E1,-4.908950964E-1,1.082802597E0,-2.050033808E-2,1.189058335E0
1.433537517E1,-4.425307292E-1,1.200294794E0,2.443276602E-1,1.302396654E0
1.434534417E1,-3.318902993E-1,1.251146275E0,6.169046402E-1,1.433907077E0
1.435531317E1,-2.309267190E-1,1.329749225E0,1.150384716E0,1.773399319E0
1.436528217E1,8.644932926E-2,1.438772900E0,1.709476765E0,2.236034829E0
1.437525117E1,4.293299820E-1,1.565605732E0,2.280225239E0,2.799084258E0
1.438522017E1,7.738232969E-1,1.747752931E0,2.828626240E0,3.413878910E0
1.439518917E1,1.129395550E0,1.967176715E0,3.017630469E0,3.775104262E0
1.440515817E1,1.421203771E0,2.120801197E0,2.796394048E0,3.786480893E0
1.441512717E1,1.616438063E0,1.975566008E0,2.473891454E0,3.554697172E0
1.442509617E1,1.646608526E0,1.747472557E0,2.089117767E0,3.182670737E0
1.443506517E1,1.552022650E0,1.656948888E0,1.852932354E0,2.930462802E0
1.444503417E1,1.406730889E0,1.157646081E0,1.907342450E0,2.637610939E0
1.445500317E1,1.240969342E0,2.959392786E-1,2.259706190E0,2.594967636E0
1.446497117E1,8.908931789E-1,-3.622525513E-1,2.682734701E0,2.849909304E0
1.447494017E1,3.670234407E-1,-9.503792426E-1,3.143913370E0,3.304862810E0
1.448490917E1,4.805095643E-2,-1.495261681E0,3.820504049E0,4.102970580E0
1.449487817E1,-1.619578602E-1,-1.898784758E0,3.947365825E0,4.383299084E0
1.450484717E1,-1.996003342E-1,-2.082691969E0,3.733693947E0,4.279943530E0
1.451481617E1,-2.433916672E-1,-2.144599657E0,3.122339483E0,3.795727999E0
1.452478517E1,-1.102249852E-1,-2.011971942E0,2.350818089E0,3.096211610E0
1.453475417E1,2.384548630E-1,-1.708988815E0,1.739109870E0,2.449899310E0
1.454472317E1,5.974221562E-1,-1.363625069E0,1.130224101E0,1.869169088E0
1.455469217E1,9.091243587E-1,-1.106036801E0,7.292974806E-1,1.606766729E0
1.456466117E1,1.246922831E0,-9.002557406E-1,4.927314144E-1,1.614949285E0
1.457463017E1,1.416037464E0,-8.114470598E-1,-6.968770087E-2,1.633543634E0
1.458459917E1,1.379159367E0,-6.934885472E-1,-7.043550128E-1,1.696797840E0
1.459456817E1,1.304211072E0,-5.487670362E-1,-1.133437146E0,1.812951060E0
1.460453717E1,1.091470144E0,-4.612181380E-1,-1.468044062E0,1.886579607E0
1.461450617E1,8.793452203E-1,-3.525064123E-1,-1.906289366E0,2.128719788E0
1.462447517E1,8.048033072E-1,-2.679849100E-1,-2.433757335E0,2.577343408E0
1.463444417E1,6.136942264E-1,-2.151564860E-1,-2.773692234E0,2.848908830E0
1.464441317E1,3.661099595E-1,-3.016192639E-1,-3.080917223E0,3.117220175E0
1.465438217E1,1.257233226E-1,-4.376839721E-1,-3.284002717E0,3.315425683E0
1.466435117E1,-1.313710020E-1,-5.131721109E-1,-3.310639123E0,3.352750417E0
1.467432017E1,-2.882187612E-1,-6.954508728E-1,-3.210981519E0,3.298048557E0
1.468428917E1,-3.701793292E-1,-8.252391797E-1,-3.078970685E0,3.209067297E0
1.469425817E1,-4.538192175E-1,-8.172255707E-1,-2.816387433E0,2.967464859E0
1.470422717E1,-4.705080481E-1,-8.871904296E-1,-2.523464733E0,2.715945312E0
1.471419617E1,-4.291323096E-1,-9.444729701E-1,-2.184825577E0,2.418604253E0
1.472416517E1,-3.982664296E-1,-9.728117931E-1,-1.966643157E0,2.229947139E0
1.473413417E1,-3.917959008E-1,-1.004101998E0,-1.979587723E0,2.253994766E0
1.474410317E1,-3.596794841E-1,-1.037283193E0,-2.072456126E0,2.345293190E0
1.475407117E1,-3.570018978E-1,-9.883890679E-1,-2.155405896E0,2.397944512E0
1.476404017E1,-3.457451306E-1,-8.344830430E-1,-2.373452076E0,2.539522869E0
1.477400917E1,-2.675630334E-1,-6.865163273E-1,-2.482948791E0,2.589967054E0
1.478397817E1,-2.192012975E-1,-5.090907544E-1,-2.340735735E0,2.405465940E0
1.479394717E1,-1.864985512E-1,-2.198827904E-1,-2.152545438E0,2.171769328E0
1.480391617E1,-1.056809677E-1,2.252815247E-2,-1.884430135E0,1.887525608E0
1.481388517E1,-8.126241043E-2,2.456234032E-1,-1.472113724E0,1.494674965E0
1.482385417E1,-1.875924191E-1,4.857235265E-1,-1.079094878E0,1.198150247E0
1.483382317E1,-2.240932243E-1,6.518610495E-1,-6.838897580E-1,9.710024728E-1
1.484379217E1,-8.330718175E-2,8.658533549E-1,-8.915191233E-2,8.744084756E-1
1.485376117E1,1.623450190E-2,1.107609702E0,5.978380394E-1,1.258758568E0
1.486373017E1,-2.115873456E-2,1.210109346E0,1.205404091E0,1.708160222E0
1.487369917E1,5.112673804E-2,1.223436905E0,1.920442552E0,2.277610897E0
1.488366817E1,1.364898008E-1,1.099688771E0,2.439126248E0,2.679044926E0
1.489363717E1,2.503944388E-1,9.763136905E-1,2.449545987E0,2.648803756E0
1.490360617E1,3.324685889E-1,8.357276228E-1,2.100336235E0,2.284816912E0
1.491357517E1,2.304859851E-1,8.053659555E-1,1.831751985E0,2.014212860E0
1.492354417E1,1.147804047E-1,9.283700305E-1,1.721688675E0,1.959402294E0
1.493351317E1,8.170431376E-2,1.050971525E0,1.402765746E0,1.754698971E0
1.494348217E1,-2.484015981E-2,1.183800676E0,9.060845375E-1,1.490969572E0
1.495345117E1,-2.679479264E-1,1.361390556E0,5.845204210E-1,1.505604350E0
1.496342017E1,-5.077008712E-1,1.415765861E0,5.491593844E-1,1.601164944E0
1.497338917E1,-7.408099173E-1,1.451947846E0,7.382045442E-1,1.789384763E0
1.498335817E1,-9.704439631E-1,1.579484975E0,1.117662528E0,2.164648655E0
1.499332717E1,-9.898638819E-1,1.569782983E0,1.609968849E0,2.456837157E0
1.500329617E1,-6.530306388E-1,1.217330073E0,2.263705686E0,2.651924764E0
1.501326517E1,-2.838118610E-1,8.065745750E-1,2.890906103E0,3.014705593E0
1.502323417E1,6.326979697E-2,3.421615183E-1,3.281034670E0,3.299434206E0
1.503320317E1,3.710501258E-1,-9.669131219E-2,3.356918666E0,3.378746859E0
1.504317117E1,4.913982493E-1,-3.402237511E-1,3.181402209E0,3.237057994E0
1.505314017E1,3.758615072E-1,-4.526060665E-1,2.741702117E0,2.804113874E0
1.506310917E1,5.506321153E-2,-4.875408411E-1,2.024673849E0,2.083274399E0
1.507307817E1,-3.984196267E-1,-3.917587709E-1,1.434510280E0,1.539491110E0
1.508304717E1,-7.144625098E-1,-2.598391539E-1,1.201809808E0,1.422082937E0
1.509301617E1,-7.717007576E-1,-3.009930271E-1,1.106410146E0,1.382122380E0
1.510298517E1,-7.439048485E-1,-4.455414605E-1,1.340388819E0,1.596415924E0
1.511295417E1,-5.415436783E-1,-6.323915756E-1,1.742553880E0,1.931238640E0
1.512292317E1,-1.122009055E-1,-9.705658776E-1,1.811709484E0,2.058367902E0
1.513289217E1,8.524743408E-2,-1.298943170E0,1.877594740E0,2.284706216E0
1.514286117E1,3.681075145E-1,-1.457444229E0,1.903318981E0,2.425339145E0
1.515283017E1,6.287815046E-1,-1.552029374E0,1.442738482E0,2.210351937E0
1.516279917E1,7.783578126E-1,-1.633830167E0,7.995014906E-1,1.978495523E0
1.517276817E1,8.036730404E-1,-1.632365440E0,-1.922096729E-2,1.819581471E0
1.518273717E1,5.944687276E-1,-1.635243439E0,-9.404649961E-1,1.977849484E0
1.519270617E1,2.685585219E-1,-1.622616377E0,-1.795828446E0,2.435160651E0
1.520267517E1,6.545870215E-2,-1.649932230E0,-2.527659525E0,3.019209148E0
1.521264417E1,-2.033276053E-1,-1.655353183E0,-3.075086380E0,3.498241346E0
1.522261317E1,-4.185993911E-1,-1.673693560E0,-3.523898773E0,3.923561920E0
1.523258217E1,-5.910910834E-1,-1.655827977E0,-3.701169394E0,4.097537046E0
1.524255117E1,-6.487460916E-1,-1.539358458E0,-3.637228922E0,4.002490497E0
1.525252017E1,-5.907607158E-1,-1.477684951E0,-3.445264247E0,3.795048981E0
1.526248917E1,-6.112144588E-1,-1.407235065E0,-3.191008599E0,3.540682071E0
1.527245817E1,-5.594709492E-1,-1.363800486E0,-3.050459661E0,3.387958626E0
1.528242717E1,-5.017829408E-1,-1.434778959E0,-2.903175901E0,3.277011915E0
1.529239617E1,-5.292617480E-1,-1.389513617E0,-2.716847942E0,3.097116212E0
1.530236417E1,-5.461185764E-1,-1.294356321E0,-2.968761780E0,3.284379742E0
1.531233317E1,-5.660709938E-1,-1.196558424E0,-3.239915296E0,3.499891363E0
1.532230217E1,-6.131709006E-1,-9.647467285E-1,-3.249704120E0,3.444893564E0
1.533227146E1,-5.974347277E-1,-6.234412426E-1,-3.120586488E0,3.237849173E0
1.534224046E1,-4.181829597E-1,-3.106590593E-1,-3.038393932E0,3.082729914E0
1.535220946E1,-2.242404279E-1,-9.555168986E-2,-2.646599493E0,2.657800363E0
1.536217846E1,-1.293439186E-1,1.995701480E-1,-1.981868137E0,1.996086022E0
1.537214746E1,-1.097632013E-1,2.630793884E-1,-1.353523419E0,1.383215230E0
1.538211646E1,-1.533958554E-1,1.726808497E-1,-6.696821934E-1,7.083948083E-1
1.539208546E1,-6.921144515E-2,2.398893312E-1,-1.161409056E-1,2.753648948E-1
1.540205446E1,-3.119551677E-2,2.284483767E-1,1.979159707E-1,3.038627199E-1
1.541202346E1,-1.726576070E-1,2.961807686E-1,3.179762650E-1,4.675923460E-1
1.542199246E1,-3.812156564E-1,4.769734606E-1,3.584366584E-1,7.080295876E-1
1.543196146E1,-4.914992599E-1,6.689302415E-1,5.142918527E-1,9.764913211E-1
1.544193046E1,-4.941566733E-1,8.230002809E-1,4.776660633E-1,1.072233719E0
1.545189946E1,-4.754404669E-1,8.960951543E-1,2.466033965E-1,1.043955650E0
1.546186846E1,-4.855085682E-1,9.809914631E-1,3.157549077E-1,1.139194444E0
1.547183746E1,-4.654143924E-1,1.132278228E0,4.854574782E-1,1.316940965E0
1.548180646E1,-3.215221627E-1,1.283593059E0,8.076706356E-1,1.550264332E0
1.549177546E1,-1.542673098E-1,1.372069326E0,1.289429165E0,1.889179772E0
1.550174446E1,-7.236718744E-2,1.563561253E0,1.541120224E0,2.196591074E0
1.551171346E1,4.104847714E-2,1.679787528E0,1.684457114E0,2.379236618E0
1.552168246E1,1.585495913E-1,1.481517801E0,2.082492871E0,2.560626784E0
1.553165146E1,2.750866458E-1,1.269500685E0,2.614503542E0,2.919406347E0
1.554162046E1,5.446590748E-1,1.164827923E0,2.967801667E0,3.234397059E0
1.555158946E1,9.109640390E-1,7.909192398E-1,3.390844211E0,3.599060042E0
1.556155846E1,1.247497905E0,3.092387706E-1,3.976353396E0,4.178907270E0
1.557152746E1,1.352077111E0,6.283710301E-2,4.564635916E0,4.761088327E0
1.558149546E1,1.336000191E0,-1.422381985E-1,4.606410763E0,4.798348501E0
1.559146446E1,1.364159505E0,-3.744276237E-1,4.054323678E0,4.294026978E0
1.560143346E1,1.360749262E0,-5.912619683E-1,3.078514602E0,3.417379321E0
1.561140246E1,1.249097557E0,-6.091512322E-1,2.171543627E0,2.578160517E0
1.562137146E1,1.088898027E0,-4.555554020E-1,1.582177033E0,1.973958916E0
1.563134046E1,1.111817432E0,-3.142097810E-1,1.038235704E0,1.553318758E0
1.564130946E1,1.194267485E0,-2.947411841E-1,4.194055760E-1,1.299633882E0
1.565127846E1,1.173131993E0,-2.680059600E-1,6.677461803E-2,1.205207333E0
1.566124746E1,1.054582911E0,-2.416923201E-1,-1.284387696E-1,1.089521368E0
1.567121646E1,9.624696766E-1,-3.265196317E-1,-1.501798868E-2,1.016458798E0
1.568118546E1,1.008456493E0,-4.573735937E-1,8.895836949E-2,1.110895447E0
1.569115446E1,9.387562935E-1,-6.384200549E-1,4.282266855E-2,1.136079806E0
1.570112346E1,6.905656703E-1,-8.351133728E-1,1.586162496E-1,1.095196058E0
1.571109246E1,4.159652205E-1,-9.321824151E-1,3.123401338E-1,1.067495892E0
1.572106146E1,2.792580494E-1,-1.007227920E0,-1.833979189E-2,1.045384852E0
1.573103046E1,2.365786377E-1,-1.038411121E0,-5.197917438E-1,1.185095171E0
1.574099946E1,2.343265826E-1,-9.347335553E-1,-1.020393510E0,1.403509417E0
1.575096846E1,2.170505454E-1,-7.673874128E-1,-1.649929306E0,1.832555891E0
1.576093746E1,2.601753688E-1,-7.052274173E-1,-2.286965325E0,2.407331994E0
1.577090646E1,2.703932320E-1,-6.815359613E-1,-2.783069998E0,2.878034465E0
1.578087546E1,2.331911629E-1,-6.757647595E-1,-3.180144473E0,3.259502262E0
1.579084446E1,1.037712305E-1,-6.896197370E-1,-3.387470952E0,3.458511718E0
1.580081346E1,-1.286127242E-1,-6.962238747E-1,-3.408472397E0,3.481228662E0
1.581078246E1,-2.648993343E-1,-6.956017309E-1,-3.394989302E0,3.475627395E0
1.582075146E1,-2.355492719E-1,-7.393660936E-1,-3.374855585E0,3.462917252E0
1.583072046E1,-1.475331447E-1,-7.610978553E-1,-3.117300938E0,3.212257946E0
1.584068946E1,-3.635710984E-2,-6.830144298E-1,-2.758488303E0,2.842021863E0
1.585065846E1,1.308624405E-1,-6.190663558E-1,-2.540525154E0,2.618136014E0
1.586062646E1,4.012464631E-1,-6.609879684E-1,-2.369760144E0,2.492722801E0
1.587059546E1,5.585960595E-1,-6.438983113E-1,-2.317105383E0,2.468929312E0
1.588056446E1,4.913779302E-1,-5.881956884E-1,-2.112671521E0,2.247400141E0
1.589053346E1,3.186959110E-1,-4.947048497E-1,-1.890179703E0,1.979666457E0
1.590050246E1,1.704461535E-1,-3.854850009E-1,-1.757748454E0,1.807575781E0
1.591047146E1,2.199678674E-2,-2.670201194E-1,-1.666388633E0,1.687789880E0
1.592044046E1,-9.334787428E-2,-1.352092606E-1,-1.513638895E0,1.522530156E0
1.593040946E1,-1.085329472E-1,6.700324416E-2,-1.337654076E0,1.343721423E0
1.594037846E1,-1.007830841E-1,3.654787526E-1,-1.093407692E0,1.157269342E0
1.595034746E1,1.401577592E-3,6.309864897E-1,-7.702525485E-1,9.957082419E-1
1.596031646E1,-1.959730871E-3,8.107126495E-1,-4.379868579E-1,9.214615176E-1
1.597028546E1,-1.005971061E-1,1.052705809E0,-2.152360082E-1,1.079182949E0
1.598025446E1,-1.882015528E-1,1.193705567E0,-1.266740799E-1,1.215071655E0
1.599022346E1,-1.896803136E-1,1.260914633E0,7.378601432E-2,1.277234790E0
1.600019246E1,-1.676678856E-1,1.351091563E0,5.043223500E-1,1.451861551E0
1.601016146E1,-1.096857257E-1,1.415540158E0,9.123048055E-1,1.687627019E0
1.602013046E1,9.653109848E-2,1.407480356E0,1.329614739E0,1.938606345E0
1.603009946E1,3.469788931E-1,1.403784331E0,1.793253332E0,2.303641099E0
1.604006846E1,5.047296086E-1,1.569281584E0,2.058980048E0,2.637573791E0
1.605003746E1,5.376057248E-1,1.722635339E0,2.165481234E0,2.818829793E0
1.606000646E1,4.314252221E-1,1.821935387E0,2.320796145E0,2.981890512E0
1.606997546E1,1.566662031E-1,2.028330113E0,2.465187289E0,3.196218971E0
1.607994446E1,-8.466300488E-2,2.061356941E0,2.690108625E0,3.390139330E0
1.608991346E1,-1.207228203E-1,1.895723740E0,3.109765631E0,3.644034135E0
1.609988246E1,4.598805875E-2,1.495061706E0,3.754757956E0,4.041723855E0
1.610985146E1,2.357316685E-1,1.061084869E0,4.391388178E0,4.523909886E0
1.611982046E1,3.037151983E-1,5.979558608E-1,4.941510599E0,4.986814728E0
1.612978946E1,2.710134754E-1,1.214504698E-1,5.021404615E0,5.030179204E0
1.613975846E1,2.086710468E-1,-2.002981263E-1,4.569067520E0,4.578213729E0
1.614972646E1,8.815423116E-2,-4.259629360E-1,3.634847935E0,3.660783400E0
1.615969546E1,-3.171797280E-1,-6.013852528E-1,2.632077933E0,2.718474103E0
1.616966446E1,-9.645084545E-1,-5.723868638E-1,2.050607420E0,2.337283481E0
1.617963346E1,-1.254268249E0,-4.034686974E-1,1.424797470E0,1.940624555E0
1.618960246E1,-1.368768134E0,-3.494673219E-1,9.827450430E-1,1.720883910E0
1.619957146E1,-1.411219212E0,-3.856402445E-1,9.893588287E-1,1.766094265E0
1.620954046E1,-1.384844176E0,-3.444191283E-1,1.131858982E0,1.821406787E0
1.621950946E1,-1.107138124E0,-4.876601243E-1,9.862334919E-1,1.560840710E0
1.622947846E1,-6.967602105E-1,-7.563209724E-1,7.597942185E-1,1.278586508E0
1.623944746E1,-5.542045082E-1,-8.797404921E-1,5.760676861E-1,1.188671506E0
1.624941646E1,-5.241881190E-1,-9.462777132E-1,1.724197716E-1,1.095419222E0
1.625938546E1,-4.476911893E-1,-9.723621422E-1,-1.670678151E-1,1.083433058E0
1.626935446E1,-3.166387144E-1,-1.014865260E0,-6.952362800E-1,1.270261807E0
1.627932346E1,-2.665184283E-1,-1.098845603E0,-1.223515257E0,1.665978186E0
