"Time (s)","Linear Acceleration x (m/s^2)","Linear Acceleration y (m/s^2)","Linear Acceleration z (m/s^2)","Absolute acceleration (m/s^2)"
2.830208334E-3,-3.876841680E0,3.861256803E0,-3.585081698E0,6.541560692E0
1.279620834E-2,-3.384682415E0,3.280234187E0,-3.123364500E0,5.654327296E0
2.276220833E-2,-3.030210754E0,2.779934136E0,-2.794024172E0,4.971597539E0
3.272820833E-2,-2.232522485E0,1.948967609E0,-2.569211594E0,3.922177915E0
4.269420834E-2,-1.262335653E0,1.412435871E0,-2.493268542E0,3.131270415E0
5.266020833E-2,-6.099142939E-1,9.651156878E-1,-2.091970331E0,2.383229658E0
6.262620834E-2,1.673141290E0,8.277318478E-3,6.749365014E-1,1.804164508E0
7.259220833E-2,4.841340778E0,-3.001347728E0,2.692151057E0,6.300344914E0
8.255820833E-2,8.773607338E0,-6.894970039E0,5.487772104E0,1.243512928E1
9.252320834E-2,1.357710611E1,-9.079559973E0,9.242088010E0,1.876679009E1
1.024892083E-1,1.459852697E1,-7.159923168E0,1.217110334E1,2.031052058E1
1.124552083E-1,1.165872002E1,-1.938670662E0,1.048193396E1,1.579731420E1
1.224212083E-1,9.046857666E0,2.707251492E0,7.037560240E0,1.177718550E1
1.323872083E-1,6.756564106E0,3.637214304E0,4.132734255E0,8.715502213E0
1.423532083E-1,3.705691631E0,1.760659198E0,-2.978752917E-1,4.113490120E0
1.523192083E-1,5.340099795E-1,3.427947718E-1,-3.433530639E0,3.491676899E0
1.622852083E-1,-1.476943085E0,-1.144680757E0,-1.681762717E0,2.513957189E0
1.722512083E-1,-2.353665683E0,-3.519223339E0,-1.284856058E0,4.424424273E0
1.822172083E-1,-2.611978129E0,-4.956523325E0,-1.435022496E0,5.783497453E0
1.921832083E-1,-2.308151980E0,-6.554230564E0,-1.131383604E0,7.040279306E0
2.021482083E-1,-1.664475278E0,-9.379787015E0,-1.098873085E0,9.589494484E0
2.121142083E-1,-1.101273367E0,-1.249290018E1,-3.383606527E0,1.298977101E1
2.220802083E-1,-1.490119932E0,-1.004179883E1,-5.775386117E0,1.167960898E1
2.320462083E-1,-2.605650857E0,-2.375772251E0,-5.529053446E0,6.557754356E0
2.420122083E-1,-3.172507424E0,2.018237818E0,-4.276216156E0,5.694217406E0
2.519782083E-1,-3.516633022E0,3.641722507E0,-2.316683798E0,5.567393865E0
2.619442083E-1,-3.834773594E0,2.237776793E0,-1.256829184E0,4.614407122E0
2.719102083E-1,-3.922743199E0,6.926418704E-1,-9.784432465E-1,4.101831074E0
2.818762083E-1,-3.822748795E0,1.306887782E-1,-1.246927216E0,4.023097736E0
2.918422083E-1,-3.606532501E0,-1.405435585E0,-1.561370301E0,4.173751680E0
3.018082083E-1,-3.679813024E0,-3.747077054E0,-1.645679842E0,5.503623577E0
3.117742083E-1,-3.840728399E0,-5.751794356E0,-9.049200645E-1,6.975185536E0
3.217392083E-1,-3.939383206E0,-6.713898143E0,4.142299131E-1,7.795303377E0
3.317052083E-1,-3.915912482E0,-6.288525483E0,1.691945351E0,7.598855334E0
3.416712083E-1,-3.688718918E0,-4.697173584E0,1.935552634E0,6.278252219E0
3.516372083E-1,-3.296749355E0,-2.927424304E0,1.885432348E0,4.795125077E0
3.616032083E-1,-2.679142756E0,-1.386338578E0,1.599387143E0,3.414349103E0
3.715692083E-1,-2.899768436E0,2.861375910E-1,3.499657971E-1,2.934792626E0
3.815352083E-1,-2.857057157E0,9.227719063E-1,-1.191247690E0,3.230070378E0
3.915012083E-1,-1.124259502E0,1.126295357E0,-1.277638547E0,2.040799088E0
4.014672083E-1,-3.279756615E-1,1.639272755E0,-6.800618783E-2,1.673143163E0
4.114332083E-1,3.660393544E-2,2.302421270E0,1.264928016E0,2.627265963E0
4.213982083E-1,-6.633238580E-1,3.280065787E0,2.612559635E0,4.245503262E0
4.313642083E-1,-1.654617603E0,4.046039343E0,4.545045989E0,6.306000065E0
4.413302083E-1,-1.808340318E0,3.854486897E0,7.064276168E0,8.248100492E0
4.512962083E-1,-1.886467598E0,3.903579535E0,9.201381449E0,1.017163280E1
4.612622083E-1,-1.263730360E0,5.112562122E0,6.733545372E0,8.548446593E0
4.712282083E-1,-8.393432486E-1,5.222986205E0,2.785940689E0,5.978758024E0
4.811942083E-1,-7.701687140E-1,4.127119759E0,3.290938684E-1,4.211244487E0
4.911602083E-1,-2.835470187E-1,3.125602230E0,-2.182042595E0,3.822446611E0
5.011262083E-1,5.827755753E-1,2.434618045E0,-6.152644962E0,6.642441752E0
5.110922083E-1,1.759530978E0,9.937676293E-1,-1.768063527E1,1.779574070E1
5.210582083E-1,2.054351392E0,-1.759210843E-1,-1.702823453E1,1.715261143E1
5.310232083E-1,7.596854603E-1,4.965473074E-1,-4.458315994E0,4.549754139E0
5.409892083E-1,-4.932711124E-3,1.724102991E0,3.459393459E0,3.865224257E0
5.509552083E-1,-3.907796547E-1,2.179018707E0,7.475251814E0,7.796167067E0
5.609212083E-1,-4.598381586E-1,1.931741127E0,9.516974974E0,9.721928181E0
5.708872083E-1,6.428864506E-1,1.125512999E0,8.644275114E0,8.740913839E0
5.808532083E-1,2.356289329E0,4.210585839E-1,4.585860431E0,5.172959079E0
5.908192083E-1,3.966417807E0,3.496927321E-1,-4.268813874E-1,4.004620200E0
6.007852083E-1,4.310601293E0,1.372763683E0,-2.242238803E0,5.049098779E0
6.107512083E-1,4.116664352E0,2.399378046E0,6.423721880E-1,4.807970718E0
6.207172083E-1,3.239507160E0,3.126357690E0,4.529797035E0,6.386515500E0
6.306832083E-1,1.864935811E0,2.652278309E0,6.863275791E0,7.590594206E0
6.406482083E-1,5.775058819E-1,8.059685111E-1,6.839825533E0,6.911317646E0
6.506142083E-1,-2.981795662E-1,-1.484420359E0,4.402341768E0,4.655429936E0
6.605802083E-1,-5.158732322E-1,-3.280175714E0,2.973783953E0,4.457473377E0
6.705462083E-1,-5.202849564E-1,-3.633745151E0,3.621508098E0,5.156560982E0
6.805122083E-1,-5.882918020E-1,-2.751971582E0,4.718993053E0,5.494390800E0
6.904782083E-1,-4.983581170E-1,-1.419883470E0,5.204641151E0,5.417815001E0
7.004442083E-1,-2.221518756E-1,-1.605633724E-1,5.286384641E0,5.293486056E0
7.104102083E-1,6.910239458E-2,9.811926073E-1,5.381655080E0,5.470806656E0
7.203762083E-1,3.277326366E-1,1.753443734E0,5.394716590E0,5.681983870E0
7.303422083E-1,6.102198109E-1,1.778872105E0,5.191183784E0,5.521335279E0
7.403082083E-1,7.493265331E-1,1.380957971E0,4.334328125E0,4.610307523E0
7.502732083E-1,6.450221461E-1,4.416893148E-1,3.115941752E0,3.212512416E0
7.602392083E-1,4.723351568E-1,-4.702529633E-1,1.847697927E0,1.964236742E0
7.702052083E-1,3.370387727E-1,-6.163222575E-1,5.473256975E-1,8.905131547E-1
7.801712083E-1,1.004645205E-1,2.155061495E-1,-4.830226976E-1,5.383743556E-1
7.901372083E-1,-3.625276628E-1,1.050752839E0,-9.353419581E-1,1.452712089E0
8.001032083E-1,-5.591303489E-1,1.460400581E0,-7.094859445E-1,1.717197400E0
8.100692083E-1,-7.265358406E-1,1.285170638E0,-1.380188477E-1,1.482756588E0
8.200352083E-1,-1.751359494E0,-4.897446567E-1,-3.080734205E-1,1.844456326E0
8.300012083E-1,-3.158685484E0,-3.918513908E0,5.099380159E-1,5.058861731E0
8.399670417E-1,-5.507268475E0,-8.699063525E0,1.389625591E0,1.038916607E1
8.499320417E-1,-8.070442818E0,-1.104765675E1,1.419301672E0,1.375489673E1
8.598980417E-1,-9.237037185E0,-1.053383501E1,8.798220608E-1,1.403775705E1
8.698640417E-1,-6.792292932E0,-7.305274424E0,2.121656352E-1,9.977338921E0
8.798300417E-1,-2.627054298E0,-4.358238559E0,-1.893182248E-1,5.092298009E0
8.897960417E-1,1.533022634E-1,-4.607245746E0,-1.129556057E0,4.746168121E0
8.997620417E-1,1.835790072E0,-6.309121715E0,-2.383976187E0,6.989884439E0
9.097280417E-1,3.305392709E0,-7.136549508E0,-4.426407738E0,9.024912482E0
9.196940417E-1,5.299335054E0,-7.035449980E0,-7.401432470E0,1.150485598E1
9.296600417E-1,6.741899289E0,-5.725872479E0,-1.267663490E1,1.545755136E1
9.396260417E-1,6.337340963E0,-3.275307907E0,-1.346224106E1,1.523553303E1
9.495910417E-1,5.817093136E0,-4.839331090E-2,-9.292131405E0,1.096287465E1
9.595570417E-1,4.378917822E0,3.089197465E0,-5.939861276E0,8.000000890E0
9.695230417E-1,2.702466423E0,4.892181734E0,-3.900529042E0,6.815489248E0
9.794890417E-1,1.106081386E0,5.328916118E0,-3.114563856E0,6.270667512E0
9.894550417E-1,1.230365270E-1,5.097079865E0,-2.290650240E0,5.589493685E0
9.994210417E-1,-9.694815114E-1,4.603782440E0,-1.282165169E0,4.876336194E0
1.009387042E0,-2.493296024E0,4.296497224E0,4.257822570E-1,4.985750093E0
1.019353042E0,-5.036836002E0,3.793290523E0,2.143995640E0,6.659991532E0
1.029319042E0,-7.345712598E0,3.716969156E0,1.761122590E0,8.418842323E0
1.039285042E0,-9.373088445E0,5.027097464E0,-1.199796027E-1,1.063677070E1
1.049251042E0,-1.028624168E1,6.506428991E0,-1.839215663E0,1.230947198E1
1.059216042E0,-9.896570367E0,7.486182014E0,-3.338210499E0,1.285024029E1
1.069182042E0,-8.425076448E0,7.760428707E0,-4.017306125E0,1.213857139E1
1.079148042E0,-6.629180174E0,6.554101925E0,-4.134726402E0,1.019795294E1
1.089114042E0,-4.921139485E0,5.017844830E0,-4.082611630E0,8.127982424E0
1.099080042E0,-3.782845641E0,4.502183560E0,-3.580269440E0,6.884613803E0
1.109046042E0,-2.627299881E0,3.673614975E0,-3.467010042E0,5.693707955E0
1.119012042E0,-1.552526095E0,3.079213344E0,-3.296664863E0,4.770732786E0
1.128978042E0,-4.446449362E-1,2.039751479E0,-2.548147292E0,3.294138709E0
1.138944042E0,2.326018001E-1,8.704293859E-1,-1.359239073E0,1.630730441E0
1.148910042E0,2.342415640E0,-1.175872729E0,3.529016840E-1,2.644641243E0
1.158875042E0,6.679654509E0,-4.531086931E0,3.534189287E0,8.811301099E0
1.168841042E0,1.104762400E1,-9.666084235E0,8.802849848E0,1.711646418E1
1.178807042E0,1.593992853E1,-1.359805083E1,1.368855053E1,2.502727959E1
1.188773042E0,1.703675743E1,-1.257344791E1,1.111259943E1,2.391302077E1
1.198739042E0,1.446873750E1,-6.827957439E0,4.026320193E0,1.649777627E1
1.208705042E0,1.029807177E1,-1.207572824E-1,7.365971446E-1,1.032508788E1
1.218671042E0,6.744832837E0,4.960340973E0,1.485512034E0,8.503205194E0
1.228637042E0,3.877625206E0,7.205101095E0,1.227796589E0,8.273871131E0
1.238603042E0,1.564465817E0,4.109809077E0,-9.192325866E-1,4.492557455E0
1.248569042E0,-1.727508701E-1,-2.937609569E0,-2.631134777E0,3.947437530E0
1.258534042E0,-9.568290138E-1,-6.633214753E0,-2.103004904E0,7.024079252E0
1.268500042E0,-1.418131059E0,-7.384029987E0,-1.110133068E0,7.600486167E0
1.278466042E0,-2.255791479E0,-8.784163901E0,3.664713174E-1,9.076587017E0
1.288432042E0,-3.050400312E0,-1.079692697E1,-1.075408208E-1,1.122007750E1
1.298398042E0,-4.064250496E0,-1.085722346E1,-4.611089705E0,1.247636091E1
1.308364042E0,-4.513014942E0,-4.874388657E0,-6.911144022E0,9.585973103E0
1.318330042E0,-4.477415339E0,1.468322974E0,-7.041652122E0,8.472784966E0
1.328296042E0,-4.527727413E0,3.725812485E0,-6.450270578E0,8.717108737E0
1.338262042E0,-4.290983592E0,3.605921175E0,-5.012985209E0,7.519656137E0
1.348228042E0,-3.613347431E0,1.192584656E0,-3.100253965E0,4.908167934E0
1.358193042E0,-2.676538991E0,-1.524618212E0,-9.088453004E-1,3.211591731E0
1.368159042E0,-2.050794238E0,-2.599439945E0,5.395383757E-1,3.354690253E0
1.378125042E0,-1.827839613E0,-3.043756998E0,3.502686828E-1,3.567652234E0
1.388091042E0,-1.811711238E0,-3.325706813E0,5.822160333E-2,3.787613124E0
1.398057042E0,-1.837001908E0,-3.445822071E0,1.093464410E-1,3.906433463E0
1.408023042E0,-1.917047805E0,-3.299290262E0,5.999132162E-1,3.862678396E0
1.417989042E0,-2.111583500E0,-2.782182975E0,8.493680075E-1,3.594544894E0
1.427955042E0,-2.192775159E0,-1.961360198E0,6.697351107E-1,3.017240766E0
1.437921042E0,-2.050321052E0,-9.450796187E-1,8.433763656E-1,2.410036431E0
1.447887042E0,-1.759573224E0,-2.554128116E-1,7.672339234E-1,1.936486904E0
1.457852042E0,-1.802039651E0,6.837348068E-1,3.921702687E-1,1.966885281E0
1.467818042E0,-2.187763364E0,1.148808306E0,-4.545321393E-1,2.512502444E0
1.477784042E0,-1.966202715E0,2.029042304E-1,-5.970318545E-1,2.064841466E0
1.487750042E0,-1.275677099E0,1.295392156E-1,9.579493403E-3,1.282273074E0
1.497716042E0,-1.086023682E0,9.465531170E-1,1.588136516E0,2.144198646E0
1.507682042E0,-1.660601059E0,2.158906040E0,3.279284599E0,4.262883841E0
1.517648042E0,-2.075830846E0,3.167338486E0,4.813580245E0,6.124676445E0
1.527614042E0,-2.429529506E0,3.381535444E0,6.458885280E0,7.684698735E0
1.537580042E0,-2.551099259E0,2.896034696E0,8.750721336E0,9.564007962E0
1.547546042E0,-1.702423562E0,3.679699003E0,8.072855964E0,9.033794007E0
1.557511042E0,-8.602315494E-1,4.104720245E0,5.070665653E0,6.580302179E0
1.567477042E0,-1.141152328E0,3.024498024E0,2.327074008E0,3.983100598E0
1.577443042E0,-1.259620352E0,1.644665642E0,-1.541815166E0,2.582394724E0
1.587409042E0,-6.905226202E-1,1.818454832E-1,-7.415994376E0,7.450292736E0
1.597375042E0,1.009242285E0,-1.151420258E0,-2.150085749E1,2.155530587E1
1.607341042E0,1.916087546E0,-8.087149483E-1,-1.813575213E1,1.825461358E1
1.617307042E0,8.342321974E-1,1.522648870E0,-4.429626922E0,4.757730300E0
1.627273042E0,2.456269115E-2,3.455847123E0,2.000132500E0,3.992995452E0
1.637239042E0,-3.804248205E-1,3.552586382E0,6.332759085E0,7.271136821E0
1.647204042E0,-2.183695310E-1,2.596663687E0,9.993604910E0,1.032775322E1
1.657170042E0,8.374718472E-1,1.494905001E0,1.065911278E1,1.079596152E1
1.667136042E0,2.184725297E0,9.799085587E-1,7.501865416E0,7.874720955E0
1.677102042E0,3.464285240E0,9.463531423E-1,2.510254703E0,4.381579072E0
1.687068042E0,3.837432908E0,1.328114929E0,-6.087618077E-1,4.106138274E0
1.697034042E0,3.327582308E0,1.668086080E0,6.155387306E-1,3.772824289E0
1.707000042E0,2.123388298E0,1.917930003E0,3.858377050E0,4.803572297E0
1.716966042E0,1.269754746E0,1.676123078E0,5.777657760E0,6.148414013E0
1.726932042E0,1.271895704E0,2.004437220E-1,6.085517757E0,6.220242981E0
1.736898042E0,1.942037196E0,-1.972326651E0,4.093735081E0,4.941684713E0
1.746863042E0,2.558363839E0,-3.264115167E0,1.483696912E0,4.404660019E0
1.756829042E0,2.740319543E0,-2.838953007E0,1.691271752E0,4.292948347E0
1.766795042E0,2.278958148E0,-1.322046103E0,3.455137271E0,4.345046570E0
1.776761042E0,1.461214514E0,1.352525300E-1,4.498795098E0,4.732081829E0
1.786727042E0,8.451752615E-1,1.197612677E0,4.921627727E0,5.135271836E0
1.796693042E0,4.135227289E-1,1.644648685E0,4.933475940E0,5.216805076E0
1.806659042E0,-4.509750953E-2,1.564107383E0,4.033476015E0,4.326360417E0
1.816625042E0,-1.980843705E-1,9.863919514E-1,2.863991954E0,3.035565254E0
1.826591042E0,-2.224698910E-1,6.869075060E-2,1.955600106E0,1.969411852E0
1.836556667E0,-1.147635940E-1,-4.832027918E-1,1.314490331E0,1.405183423E0
1.846521667E0,-1.166189155E-1,-3.423123765E-1,1.100804712E0,1.158684059E0
1.856487667E0,-1.834163559E-1,6.497542977E-2,1.454198732E0,1.467159609E0
1.866453667E0,-3.220886117E-1,9.317052823E-1,2.236553994E0,2.444174620E0
1.876419667E0,-9.228555214E-1,1.717552940E0,2.169465380E0,2.916887116E0
1.886385667E0,-1.675053914E0,1.420595076E0,1.443398048E0,2.628173113E0
1.896351667E0,-2.227716658E0,3.117349470E-1,1.699987758E0,2.819549354E0
1.906317667E0,-3.762109953E0,-2.521270273E0,1.916683962E0,4.917718220E0
1.916283667E0,-5.281122147E0,-5.759494554E0,1.835561446E0,8.026911889E0
1.926249667E0,-7.200954834E0,-7.569330005E0,1.836135935E0,1.060753989E1
1.936215667E0,-8.555236638E0,-7.998614452E0,9.524447715E-1,1.175061948E1
1.946180667E0,-7.162193057E0,-7.665810233E0,1.434058875E-2,1.049103720E1
1.956146667E0,-4.206505944E0,-7.312479948E0,-4.682295343E-1,8.449041019E0
1.966112667E0,-9.935074282E-1,-5.737908388E0,-1.259716539E0,5.957980819E0
1.976078667E0,1.223964031E0,-6.201521838E0,-1.787272800E0,6.568965300E0
1.986044667E0,3.095960940E0,-7.905526194E0,-2.864931602E0,8.960477199E0
1.996010667E0,4.347985174E0,-8.045499766E0,-5.430021493E0,1.063579687E1
2.005976667E0,6.158311499E0,-6.691757076E0,-1.128762882E1,1.449534331E1
2.015942667E0,7.252571715E0,-3.891168820E0,-1.526182693E1,1.733967567E1
2.025908667E0,5.933411213E0,-7.834146309E-1,-1.160929585E1,1.306119662E1
2.035873667E0,4.523662137E0,1.457193968E0,-6.327198383E0,7.913303530E0
2.045839667E0,2.899005082E0,3.344551220E0,-3.704492952E0,5.771786669E0
2.055805667E0,1.231683233E0,3.770288746E0,-3.141970925E0,5.060049615E0
2.065771667E0,2.781903479E-1,3.840177591E0,-2.459115540E0,4.568544958E0
2.075737667E0,-3.820263728E-1,3.678929510E0,-1.160627283E0,3.876534816E0
2.085703667E0,-1.211029259E0,3.461098507E0,-2.722267726E-1,3.676941957E0
2.095669667E0,-2.350823644E0,3.788871782E0,8.689699209E-1,4.542799787E0
2.105635667E0,-3.845567847E0,4.616472652E0,1.390190139E0,6.167077139E0
2.115601667E0,-5.460574949E0,5.267021002E0,1.193062081E0,7.680025139E0
2.125567667E0,-7.373478686E0,5.197113445E0,4.473570210E-1,9.032070881E0
2.135532667E0,-8.557434021E0,5.647695206E0,-9.310638428E-1,1.029529106E1
2.145498667E0,-8.654210703E0,6.561036723E0,-2.068862427E0,1.105544018E1
2.155464667E0,-7.796396685E0,7.219647798E0,-2.287908481E0,1.086929808E1
2.165430667E0,-6.685178958E0,6.708664885E0,-2.421660323E0,9.775594148E0
2.175396667E0,-4.560365109E0,5.177870843E0,-3.011939667E0,7.528549459E0
2.185362667E0,-2.909451132E0,3.628720638E0,-3.660814543E0,5.918959578E0
2.195328667E0,-1.978792063E0,3.834319850E0,-3.927003481E0,5.834293709E0
2.205294667E0,-1.215520213E0,3.485217102E0,-3.482146437E0,5.074403556E0
2.215260667E0,-9.856394148E-1,2.250804974E0,-2.818563182E0,3.739238759E0
2.225226667E0,-2.345481920E-1,8.838388056E-1,-1.394622329E0,1.667679624E0
2.235191667E0,2.437864273E0,-1.560522455E0,1.376740959E0,3.205281300E0
2.245157667E0,5.817407717E0,-6.021239900E0,5.055682747E0,9.780464739E0
2.255123667E0,1.087303199E1,-1.133769736E1,1.018667062E1,1.872256564E1
2.265089667E0,1.524374617E1,-1.354267302E1,1.400989947E1,2.473970640E1
2.275055667E0,1.425702970E1,-9.859219522E0,9.790287282E0,1.990770782E1
2.285021667E0,1.169447691E1,-3.849263579E0,4.525052020E0,1.311692480E1
2.294987667E0,9.423076876E0,1.629161750E0,3.775326707E0,1.028113017E1
2.304953667E0,6.161145644E0,4.207739999E0,1.496359788E0,7.609460175E0
2.314919667E0,2.001598105E0,4.721595064E0,-4.788770217E0,7.016564338E0
2.324884667E0,-1.300726424E0,3.365892972E0,-4.175493774E0,5.518683991E0
2.334850667E0,-3.128500110E0,1.649173261E0,-2.495147252E0,4.328168804E0
2.344816667E0,-3.092109086E0,6.434176701E-1,-2.349903585E0,3.936644733E0
2.354782667E0,-2.370147669E0,-2.407269448E-1,-2.791370705E0,3.669781989E0
2.364748667E0,-2.427081130E0,-3.114900071E0,-2.895642348E0,4.896740740E0
2.374714667E0,-2.415652163E0,-9.495591706E0,-2.455468631E0,1.010103774E1
2.384680667E0,-1.811940010E0,-1.684462845E1,-1.831089495E0,1.704046721E1
2.394646667E0,-1.712822396E0,-1.659311397E1,-3.039043850E0,1.695585384E1
2.404612667E0,-2.641409504E0,-7.245603004E0,-5.099290112E0,9.245461952E0
2.414578667E0,-3.026629626E0,3.426620400E-1,-4.849633007E0,5.726852929E0
2.424543667E0,-3.136202647E0,2.970615932E0,-3.464540763E0,5.537451468E0
2.434509667E0,-3.180179848E0,1.407496728E0,-1.898164660E0,3.962022209E0
2.444475667E0,-2.898591099E0,-1.784007715E0,-4.699839914E-1,3.435898549E0
2.454441667E0,-2.637812590E0,-2.935277699E0,1.415072966E-1,3.948915642E0
2.464407667E0,-2.534529127E0,-2.592486436E0,-2.868164527E-1,3.636906308E0
2.474373667E0,-2.708633773E0,-1.665801573E0,-8.479956660E-1,3.291001131E0
2.484339667E0,-3.037802194E0,-1.585528657E0,-8.905572563E-1,3.540513454E0
2.494305667E0,-3.409244229E0,-2.316440554E0,-7.597310686E-1,4.191185316E0
2.504271667E0,-3.640723218E0,-2.899358838E0,-2.693046266E-1,4.661938674E0
2.514236667E0,-3.561282361E0,-2.938007764E0,2.232991724E-1,4.622173104E0
2.524202667E0,-3.236708098E0,-2.503915737E0,8.931064962E-1,4.188497647E0
2.534168667E0,-3.131708477E0,-1.362340436E0,1.568201019E0,3.758034577E0
2.544134667E0,-3.624502164E0,-6.645243645E-2,6.734039462E-1,3.687126895E0
2.554100667E0,-2.697221763E0,7.196150762E-1,6.586297864E-1,2.868212734E0
2.564066667E0,-2.112175092E0,1.698551828E0,1.615948797E0,3.155574820E0
2.574032667E0,-1.494520254E0,2.126606020E0,3.376674653E0,4.261217628E0
2.583998667E0,-1.544278598E0,3.023308700E0,5.151792846E0,6.169778069E0
2.593964667E0,-2.059002559E0,4.041792510E0,7.338260322E0,8.627029778E0
2.603929667E0,-1.690663057E0,4.189128311E0,8.885006737E0,9.967471208E0
2.613895667E0,-1.676958353E0,4.814875111E0,8.795517440E0,1.016643195E1
2.623861667E0,-1.751993625E0,4.788008909E0,3.635072469E0,6.261650168E0
2.633827667E0,-1.614440215E0,3.005723784E0,-1.690330642E-1,3.416045206E0
2.643793667E0,-1.125028923E0,1.556797194E0,-2.627605105E0,3.254783583E0
2.653759667E0,-3.803886408E-1,9.787478864E-1,-4.850935182E0,4.963286722E0
2.663725667E0,1.486736733E0,5.443477106E-1,-1.010231751E1,1.022563053E1
2.673691667E0,3.614427997E0,-1.708690900E-1,-1.735039857E1,1.772370211E1
2.683657667E0,2.687340553E0,9.997768128E-1,-1.059580029E1,1.097690015E1
2.693623667E0,1.239052771E0,2.941530127E0,-1.609210173E0,3.574550131E0
2.703588667E0,4.208922306E-1,3.198298323E0,3.656431763E0,4.876038932E0
2.713554667E0,2.421548349E-1,2.472855327E0,7.426300678E0,7.830938271E0
2.723520667E0,-6.760638902E-2,2.265962711E0,9.495779986E0,9.762632595E0
2.733486667E0,-5.372975400E-2,2.234475455E0,9.543112612E0,9.801365506E0
2.743452667E0,5.065609565E-1,2.252172053E0,7.131868812E0,7.496161398E0
2.753418667E0,1.223520812E0,2.050399843E0,2.892181966E0,3.750447869E0
2.763384667E0,2.020046362E0,1.572077138E0,-7.870878518E-1,2.677969589E0
2.773350667E0,2.260933228E0,1.220096975E0,-2.093323669E0,3.313979432E0
2.783316667E0,2.709861981E0,7.651455903E-1,-3.868307376E-1,2.842259269E0
2.793281667E0,2.994292477E0,4.151254141E-1,2.836981911E0,4.145670382E0
2.803247667E0,2.719612505E0,3.137838113E-1,5.020308847E0,5.718238660E0
2.813213667E0,1.962798028E0,-5.556959867E-2,5.718943529E0,6.046650243E0
2.823179667E0,1.125891899E0,-6.585777462E-1,5.671079391E0,5.819149308E0
2.833145667E0,1.904066657E-1,-1.062930250E0,5.019725879E0,5.134561648E0
2.843112208E0,-5.483416513E-1,-1.020549631E0,4.416286792E0,4.565718908E0
2.853078208E0,-8.579145902E-1,-4.830063254E-1,4.384199027E0,4.493385546E0
2.863044208E0,-5.959546512E-1,6.531410050E-1,4.481687315E0,4.568071399E0
2.873010208E0,1.243528266E-2,2.129985126E0,4.318077543E0,4.814850459E0
2.882976208E0,6.155407771E-1,3.349000366E0,3.763862656E0,5.075564598E0
2.892941208E0,8.841530934E-1,3.750033406E0,2.863022486E0,4.800143226E0
2.902907208E0,7.580912170E-1,3.378251647E0,2.015649695E0,4.006261372E0
2.912873208E0,4.444760978E-1,2.065342403E0,1.483776580E0,2.581625686E0
2.922839208E0,4.820916016E-2,5.762957275E-1,1.054277248E0,1.202473037E0
2.932805208E0,-2.594333571E-1,-3.206806022E-1,7.125855535E-1,8.233589050E-1
2.942771208E0,-3.764700562E-1,-2.101050764E-1,5.643533742E-1,7.101891138E-1
2.952737208E0,-8.444426054E-1,3.396249962E-1,6.052078700E-1,1.093025625E0
2.962703208E0,-1.513666962E0,-5.622261572E-1,1.010051979E0,1.904597312E0
2.972669208E0,-2.402312763E0,-2.508940834E0,1.660820915E0,3.850222959E0
2.982634208E0,-4.301876370E0,-5.186543434E0,1.816098112E0,6.978867060E0
2.992600208E0,-5.750049546E0,-7.351915324E0,2.421189037E0,9.642400379E0
3.002566208E0,-6.779599212E0,-9.091775976E0,2.562631137E0,1.162714213E1
3.012532208E0,-7.214045581E0,-9.316466932E0,2.187149845E0,1.198426611E1
3.022498208E0,-5.722354209E0,-9.287587534E0,1.611262254E0,1.102727464E1
3.032464208E0,-2.917300142E0,-9.866509831E0,1.045423394E0,1.034173904E1
3.042430208E0,8.229033633E-1,-1.017300918E1,2.206125230E-1,1.020862163E1
3.052396208E0,3.299592564E0,-9.779683941E0,-1.234574681E0,1.039488835E1
3.062362208E0,4.743607492E0,-9.969893281E0,-3.871042119E0,1.169980988E1
3.072327208E0,6.388730387E0,-9.960708475E0,-8.055363434E0,1.431504346E1
3.082293208E0,7.086279241E0,-7.892724300E0,-1.498489929E1,1.835913007E1
3.092259208E0,6.437141240E0,-4.175882029E0,-1.765323756E1,1.924867721E1
3.102225208E0,5.274333529E0,-1.003944123E0,-1.253840906E1,1.363958209E1
3.112191208E0,4.009936295E0,1.116080271E0,-6.139626136E0,7.417562494E0
3.122157208E0,1.992000923E0,2.107542928E0,-3.138511128E0,4.273178790E0
3.132123208E0,4.659032196E-2,2.435357133E0,-2.627725266E0,3.583025969E0
3.142089208E0,-7.511780539E-1,2.539368575E0,-1.980961819E0,3.307094035E0
3.152055208E0,-1.148208090E0,2.538893196E0,-1.023177955E0,2.968375584E0
3.162020208E0,-1.843207265E0,2.947281448E0,-7.458708286E-2,3.476987804E0
3.171986208E0,-2.790200385E0,3.837787834E0,1.149181944E0,4.882054156E0
3.181952208E0,-3.932027701E0,4.945585524E0,1.557521664E0,6.507344447E0
3.191918208E0,-5.159565550E0,5.911682374E0,1.306631966E0,7.954645954E0
3.201884208E0,-6.146678463E0,6.492846494E0,8.476717302E-1,8.980938653E0
3.211850208E0,-6.907046878E0,6.837963780E0,2.062348044E-1,9.721500811E0
3.221816208E0,-7.468166742E0,7.027190203E0,-5.600664881E-1,1.026979022E1
3.231782208E0,-8.004537681E0,7.020330834E0,-1.452756516E0,1.074561166E1
3.241748208E0,-7.952368239E0,6.367154746E0,-2.347437229E0,1.045424707E1
3.251713208E0,-6.675868437E0,6.520043648E0,-2.649902000E0,9.700524170E0
3.261679208E0,-4.571092996E0,6.640823734E0,-3.453883043E0,8.770674953E0
3.271645208E0,-3.069690861E0,5.306821829E0,-4.040020219E0,7.342147048E0
3.281611208E0,-1.886329603E0,4.513427755E0,-4.117071319E0,6.393711420E0
3.291577208E0,-1.182084518E0,4.262583373E0,-3.581638858E0,5.691667394E0
3.301543208E0,-1.582999590E0,3.784174129E0,-2.934887690E0,5.043751312E0
3.311509208E0,8.482780865E-1,2.082237348E0,-1.069790788E0,2.489927793E0
3.321475208E0,3.667454349E0,-1.558619186E0,1.765601265E0,4.358539090E0
3.331441208E0,8.106224855E0,-7.361518207E0,5.950703183E0,1.246249173E1
3.341406208E0,1.328364254E1,-1.304335121E1,1.119305010E1,2.172253532E1
3.351372208E0,1.532194917E1,-1.331264122E1,1.352818596E1,2.439262917E1
3.361338208E0,1.359846715E1,-7.485162844E0,9.855053966E0,1.838662722E1
3.371304208E0,1.174900220E1,-7.529395276E-1,6.941731392E0,1.366724571E1
3.381270208E0,8.433250855E0,3.461756319E0,4.533048087E0,1.018096271E1
3.391236208E0,3.756348984E0,5.047597802E0,-1.317111638E-1,6.293309868E0
3.401202208E0,-8.190952179E-1,3.685925118E0,-2.198397549E0,4.369200469E0
3.411168208E0,-4.551026229E0,-5.958353680E-1,-2.644629566E0,5.297256371E0
3.421134208E0,-4.417258892E0,-4.496327573E0,-4.098618675E0,7.518498042E0
3.431100208E0,-2.287398896E0,-7.418549024E0,-5.843022029E0,9.716376371E0
3.441065208E0,-1.251826891E0,-1.016701462E1,-4.183109772E0,1.106497466E1
3.451031208E0,-1.293374866E0,-1.054270407E1,-2.448054947E0,1.090020186E1
3.460997208E0,-1.889600828E0,-8.026800955E0,-4.102321717E0,9.210275150E0
3.470963208E0,-3.670221836E0,-3.556176572E0,-5.366327773E0,7.410424678E0
3.480929208E0,-4.356934045E0,-5.557076812E-2,-5.054845426E0,6.673636540E0
3.490895208E0,-4.176524930E0,1.127993388E0,-3.637178343E0,5.651972742E0
3.500861208E0,-3.568318316E0,6.672374725E-2,-1.672382322E0,3.941346254E0
3.510827208E0,-2.999628646E0,-1.630749269E0,5.071494788E-2,3.414628413E0
3.520793208E0,-2.331932606E0,-2.656827443E0,4.645174295E-1,3.565447823E0
3.530758208E0,-1.831901527E0,-3.844657143E0,2.798088571E-1,4.267967285E0
3.540724208E0,-1.752368139E0,-5.284682516E0,-9.529090405E-2,5.568459729E0
3.550690208E0,-1.917452578E0,-5.824250713E0,-5.905407143E-1,6.160134665E0
3.560656208E0,-2.259510747E0,-4.797662662E0,-7.945544538E-1,5.362301056E0
3.570622208E0,-2.764738977E0,-2.757113623E0,-6.383829251E-1,3.956385964E0
3.580588208E0,-3.136758133E0,-1.143810691E0,-6.099970320E-1,3.394061116E0
3.590554208E0,-3.220991659E0,-2.815498656E-1,-4.583962718E-1,3.265606336E0
3.600520208E0,-2.999503516E0,1.888369989E-1,-2.024911246E-1,3.012255535E0
3.610486208E0,-2.790612321E0,4.698214388E-1,-1.921123168E-1,2.836398501E0
3.620451208E0,-2.573010530E0,7.287484270E-1,3.793936640E-1,2.700999261E0
3.630417208E0,-2.827242789E0,7.715412748E-1,7.559116673E-1,3.026545915E0
3.640383208E0,-2.161217736E0,4.898078066E-1,5.605694948E-1,2.285828504E0
3.650349208E0,-1.727541153E0,4.337400252E-1,5.581124948E-1,1.866552545E0
3.660315208E0,-1.310685110E0,4.953614920E-1,1.606488587E0,2.131685728E0
3.670281208E0,-1.665602621E0,1.265557323E0,2.830771876E0,3.519820569E0
3.680247208E0,-2.169136913E0,2.224839243E0,5.463299752E0,6.285118041E0
3.690213208E0,-2.546613275E0,2.621136623E0,8.040020340E0,8.831620657E0
3.700179208E0,-2.449259473E0,3.337957315E0,1.082565902E1,1.159032891E1
3.710144208E0,-8.459237782E-1,4.965007051E0,8.812396013E0,1.015013328E1
3.720110208E0,6.986483496E-2,5.199433621E0,5.213382154E0,7.363310706E0
3.730076208E0,5.762178864E-1,4.745868026E0,1.773143296E0,5.098953571E0
3.740042208E0,3.906480923E-1,3.441196924E0,-4.357801187E-1,3.490608330E0
3.750008208E0,4.654871171E-1,1.837683401E0,-3.167963261E0,3.691849097E0
3.759974208E0,1.598137009E0,-4.007260609E-1,-1.272642745E1,1.283263725E1
3.769940208E0,2.889920263E0,-2.093378633E0,-2.408325455E1,2.434619114E1
3.779906208E0,1.435642008E0,-3.723255497E-1,-1.225087106E1,1.234032155E1
3.789872208E0,1.967508947E-1,2.080827000E0,-8.874421522E-1,2.270705945E0
3.799837208E0,-2.720940408E-1,3.237743055E0,4.010214037E0,5.161282000E0
3.809803208E0,-6.412568316E-1,3.118589664E0,7.394922765E0,8.051192118E0
3.819769208E0,-7.462430039E-1,2.461458519E0,9.987222090E0,1.031311116E1
3.829735208E0,-1.895684491E-1,2.056884990E0,1.068673853E1,1.088453456E1
3.839700542E0,2.888784733E-1,2.639172360E0,8.737527679E0,9.131980697E0
3.849666542E0,1.012527544E0,2.910465624E0,4.085247555E0,5.117154460E0
3.859632542E0,1.429919923E0,1.705395994E0,-1.971382618E0,2.973112159E0
3.869598542E0,2.053167038E0,-4.394685423E-1,-3.913425661E0,4.441117865E0
3.879564542E0,1.868764568E0,-1.426047020E0,6.126189235E-1,2.429237135E0
3.889529542E0,6.923726061E-1,-8.333884442E-1,5.536541975E0,5.641561235E0
3.899495542E0,2.183367501E-1,-7.791180968E-1,8.280826222E0,8.320263149E0
3.909461542E0,3.289029568E-2,-1.858602399E0,8.511075541E0,8.711710023E0
3.919427542E0,-3.001992493E-1,-2.660040488E0,6.076440539E0,6.639959685E0
3.929393542E0,-4.071860647E-1,-2.024889026E0,3.481219361E0,4.047822167E0
3.939359542E0,-1.726276401E-1,-6.229711264E-1,2.848671080E0,2.921099151E0
3.949325542E0,8.368535042E-2,8.087851149E-1,3.623384469E0,3.713495875E0
3.959291542E0,3.398337418E-1,1.805615516E0,4.348850854E0,4.721042058E0
3.969257542E0,5.891175020E-1,1.743650233E0,4.476258759E0,4.839862400E0
3.979222542E0,6.520686257E-1,7.596737659E-1,3.810241016E0,3.939572861E0
3.989188542E0,4.165954041E-1,-5.958622652E-1,2.791533258E0,2.884659685E0
3.999154542E0,2.470048079E-1,-1.660508673E0,1.833109124E0,2.485676867E0
4.009120542E0,2.629142046E-1,-1.696956707E0,7.193314862E-1,1.861779722E0
4.019086542E0,2.700419605E-2,-9.136432332E-1,-2.303335190E-1,9.426169498E-1
4.029052542E0,-6.904830784E-2,3.870798290E-2,-5.432987201E-1,5.490350408E-1
4.039018542E0,4.541678578E-2,8.886773765E-1,-3.006696761E-2,8.903449817E-1
4.048984542E0,-6.121379900E-1,1.052725105E0,-2.279262203E-1,1.238908159E0
4.058950542E0,-9.667540777E-1,1.444648182E-1,-1.231645811E-1,9.852172575E-1
4.068915542E0,-2.067415241E0,-2.070539993E0,8.168326378E-1,3.037854045E0
4.078881542E0,-3.732947550E0,-5.593378665E0,1.216158291E0,6.833726896E0
4.088847542E0,-5.421038416E0,-7.948742380E0,1.304353014E0,9.709351148E0
4.098813542E0,-7.287717574E0,-8.093642231E0,5.550554243E-1,1.090531790E1
4.108779542E0,-7.150224976E0,-7.148247448E0,-4.960584801E-1,1.012270877E1
4.118745542E0,-5.015456243E0,-6.558980842E0,-1.340595226E0,8.364940320E0
4.128711542E0,-2.203521464E0,-6.522910538E0,-1.818518859E0,7.121157179E0
4.138677542E0,1.723837381E-1,-5.267664195E0,-3.043000661E0,6.085873417E0
4.148643542E0,2.096567704E0,-5.646848529E0,-4.137475762E0,7.307612478E0
4.158608542E0,3.833724019E0,-6.728534893E0,-5.530046888E0,9.515883576E0
4.168574542E0,5.119726131E0,-6.294619451E0,-7.732351547E0,1.120817069E1
4.178540542E0,6.189464294E0,-4.335320982E0,-1.067504176E1,1.307902874E1
4.188506542E0,6.915006108E0,-1.892085895E0,-1.052561733E1,1.273522355E1
4.198472542E0,6.630744889E0,5.967832017E-1,-7.846424292E0,1.029025277E1
4.208438542E0,4.671982609E0,3.032435035E0,-5.328828995E0,7.708404646E0
4.218404542E0,2.338343786E0,4.566085441E0,-3.952963949E0,6.476334757E0
4.228370542E0,1.210846387E0,4.916017908E0,-2.298163912E0,5.560120360E0
4.238336542E0,3.753120151E-1,4.859480596E0,-5.627021205E-1,4.906326981E0
4.248301542E0,-1.088781375E0,4.460389416E0,5.966551477E-1,4.629958530E0
4.258267542E0,-2.800805773E0,4.535158932E0,1.635289632E0,5.575513581E0
4.268233542E0,-4.687633266E0,5.020483094E0,1.803315806E0,7.101486044E0
4.278199542E0,-7.100824775E0,5.076253837E0,1.017246539E0,8.787767408E0
4.288165542E0,-8.863515295E0,5.845488385E0,-4.761545581E-1,1.062818710E1
4.298131542E0,-9.723280529E0,6.960062413E0,-2.045770018E0,1.213135722E1
4.308097542E0,-9.392414078E0,6.963780073E0,-3.104694341E0,1.209755356E1
4.318063542E0,-8.043778346E0,6.821557662E0,-3.177412361E0,1.101507913E1
4.328029542E0,-6.338453103E0,5.498345039E0,-3.186826671E0,8.975725605E0
4.337994542E0,-4.412979022E0,4.422046300E0,-3.444702622E0,7.134062901E0
4.347960542E0,-3.173526886E0,3.668402767E0,-3.657273762E0,6.074874742E0
4.357926542E0,-2.684935008E0,2.880200436E0,-3.485640441E0,5.258718459E0
4.367892542E0,-1.853776838E0,2.768633223E0,-2.909444116E0,4.423424414E0
4.377858542E0,-1.899108693E0,2.427169277E0,-2.689283583E0,4.090233577E0
4.387824542E0,-2.869428988E-1,8.341398114E-1,-1.126126372E0,1.430484554E0
4.397790542E0,2.300868688E0,-2.360584109E0,1.720060810E0,3.718193546E0
4.407756542E0,5.581576645E0,-8.024509431E0,5.343889668E0,1.114019328E1
4.417721542E0,1.075234429E1,-1.455022079E1,1.010305543E1,2.072181367E1
4.427687542E0,1.544402500E1,-1.688027541E1,1.587968584E1,2.785006335E1
4.437653542E0,1.594434435E1,-1.102982976E1,1.391236440E1,2.386279833E1
4.447619542E0,1.359572013E1,-1.648516034E0,7.844912202E0,1.578302438E1
4.457585542E0,1.025143905E1,4.473122313E0,2.837236850E0,1.153909610E1
4.467551542E0,6.102641913E0,6.769204032E0,-4.269046008E0,1.006424937E1
4.477517542E0,2.804637745E0,6.563594880E0,-3.716982020E0,8.047529183E0
4.487483542E0,-4.690754803E-1,4.298643737E0,-1.203171040E0,4.488428493E0
4.497449542E0,-3.175568149E0,1.568474668E-1,-1.416863383E0,3.480852776E0
4.507414542E0,-3.497259735E0,-2.639324387E0,-2.194481084E0,4.900265922E0
4.517380542E0,-3.255343759E0,-3.618432462E0,-2.918739434E0,5.675328745E0
4.527346542E0,-3.499364733E0,-5.786211652E0,-3.983991029E0,7.848438273E0
4.537312542E0,-3.067235908E0,-9.864477339E0,-4.909478382E0,1.143760584E1
4.547278542E0,-2.274337386E0,-1.416410692E1,-4.227402431E0,1.495544939E1
4.557244542E0,-2.054347737E0,-1.273552688E1,-4.828707869E0,1.377426620E1
4.567210542E0,-2.309571538E0,-4.850499857E0,-5.457674146E0,7.658177109E0
4.577176542E0,-2.197867792E0,1.462259411E0,-4.157517679E0,4.924812551E0
4.587142542E0,-2.007746452E0,4.477156892E0,-2.581022969E0,5.544155411E0
4.597107542E0,-2.046825148E0,4.336102754E0,-1.501439849E0,5.024500165E0
4.607073542E0,-1.755821797E0,1.298016386E0,-6.542817968E-1,2.279438832E0
4.617039542E0,-1.743116236E0,-7.444055164E-1,-7.053086936E-2,1.896725702E0
4.627005542E0,-1.889574662E0,-1.636710505E0,-3.309664392E-1,2.521676519E0
4.636971542E0,-1.781502914E0,-2.274213132E0,-6.687671041E-1,2.965307310E0
4.646937542E0,-1.849670046E0,-2.843322047E0,-6.741240308E-1,3.458352607E0
4.656903542E0,-2.063947550E0,-3.081804830E0,3.948215425E-2,3.709307124E0
4.666869542E0,-2.172444537E0,-3.028264800E0,8.525474310E-1,3.823184548E0
4.676835542E0,-2.310843307E0,-2.529794928E0,1.193159730E0,3.628152327E0
4.686800542E0,-2.324587480E0,-1.722187443E0,1.087811907E0,3.090788133E0
4.696766542E0,-2.650214826E0,-3.896835941E-1,2.612772766E-1,2.691422996E0
4.706732542E0,-3.349779215E0,9.277835548E-1,-9.740736222E-1,3.609795360E0
4.716698542E0,-2.635773666E0,1.307496477E0,-1.324288072E0,3.226544398E0
4.726664542E0,-1.668679719E0,1.978515928E0,-7.891908029E-1,2.705889762E0
4.736630542E0,-1.079123237E0,2.317258580E0,4.253673971E-1,2.591357117E0
4.746596542E0,-1.296770637E0,2.241696181E0,1.101846686E0,2.814406149E0
4.756562542E0,-1.579409254E0,2.461373150E0,2.885301255E0,4.108266630E0
4.766528542E0,-2.392324842E0,1.898659335E0,5.297400795E0,6.114783774E0
4.776493542E0,-3.263621078E0,7.231742764E-1,8.397764103E0,9.038619668E0
4.786459542E0,-1.952763329E0,1.431831086E0,7.916611930E0,8.278657459E0
4.796425542E0,-1.289812742E0,2.512456180E0,3.757855811E0,4.700801343E0
4.806391542E0,-1.470996028E0,3.178244128E0,-4.092761520E-1,3.525985255E0
4.816357542E0,-9.028752932E-1,3.105991838E0,-2.812370688E0,4.286233542E0
4.826323542E0,6.362495685E-1,2.081432771E0,-7.557094706E0,7.864277226E0
4.836289542E0,2.384720246E0,1.055931133E-1,-1.633722344E1,1.651069079E1
4.846255542E0,2.522768914E0,-3.984877467E-1,-1.279860314E1,1.305095390E1
4.856220542E0,1.377068110E0,1.141842518E0,-3.553698815E0,3.978554535E0
4.866186542E0,8.470063171E-1,2.101817919E0,2.575074597E0,3.430170177E0
4.876152542E0,6.579085323E-1,2.080214796E0,6.266636431E0,6.635576041E0
4.886118542E0,6.776996031E-1,1.604276585E0,8.538727609E0,8.714519453E0
4.896084542E0,1.181260646E0,1.120498427E0,8.609114052E0,8.761720048E0
4.906050542E0,1.489601869E0,1.299975203E0,6.419290860E0,6.716855246E0
4.916016542E0,1.800418510E0,1.865102164E0,3.239479094E0,4.149016473E0
4.925982542E0,2.157938325E0,2.304355529E0,7.823362581E-1,3.252507070E0
4.935948542E0,2.041182585E0,2.425690516E0,1.634614863E0,3.566842662E0
4.945913542E0,1.958632764E0,2.222858791E0,3.680769628E0,4.724977097E0
4.955879542E0,2.243005665E0,1.232336951E0,4.440245758E0,5.124988895E0
4.965845542E0,2.429331577E0,-2.657998055E-1,4.068444704E0,4.746002924E0
4.975811542E0,2.494208189E0,-1.662810722E0,3.434886024E0,4.558997257E0
4.985777542E0,2.337473574E0,-2.562394325E0,3.218706275E0,4.731777411E0
4.995743542E0,1.829038585E0,-2.642302374E0,3.558158194E0,4.794542075E0
5.005709542E0,1.240614270E0,-1.915612167E0,3.916065679E0,4.532578090E0
5.015675542E0,6.799913462E-1,-5.836141026E-1,3.828750085E0,3.932215770E0
5.025641542E0,4.098041555E-1,7.727960873E-1,3.842704757E0,3.941006609E0
5.035606542E0,4.036432368E-1,1.976371170E0,4.180208969E0,4.641456440E0
5.045572542E0,5.602328414E-1,2.967300560E0,4.363168931E0,5.306220555E0
5.055538542E0,8.559437862E-1,3.447862750E0,3.923110405E0,5.292560113E0
5.065504542E0,9.961307815E-1,2.982225578E0,3.112640122E0,4.424304970E0
5.075470542E0,6.291092411E-1,1.678363146E0,2.098956730E0,2.760126925E0
5.085436542E0,6.117882808E-2,-1.228751439E-1,1.325561303E0,1.332649211E0
5.095402542E0,-2.595529510E-1,-9.082444990E-1,5.898716466E-1,1.113653610E0
5.105368542E0,-4.728880110E-1,-4.597104335E-1,-2.248125780E-1,6.967764698E-1
5.115333542E0,-9.087751338E-1,3.185802823E-1,-9.178263313E-1,1.330327334E0
5.125299542E0,-1.173973846E0,1.793025291E-1,-5.435635990E-1,1.306072499E0
5.135265542E0,-1.326543197E0,-1.059026064E0,1.044020647E0,1.992795065E0
5.145231542E0,-2.176976567E0,-3.671235158E0,1.962150156E0,4.697576801E0
5.155197542E0,-3.699037499E0,-6.806119843E0,2.106924731E0,8.027781609E0
5.165163542E0,-4.984953657E0,-8.051612445E0,2.694668576E0,9.845784106E0
5.175129542E0,-5.835938128E0,-7.791887897E0,2.477015913E0,1.004526250E1
5.185095542E0,-5.978687958E0,-7.461586871E0,1.637619455E0,9.700607496E0
5.195061542E0,-4.767752108E0,-7.136813217E0,3.553469896E-1,8.590217375E0
5.205026542E0,-3.069506966E0,-6.166781775E0,-1.477646359E0,7.045176310E0
5.214992542E0,-1.476252091E0,-4.785930224E0,-3.321649723E0,6.009809084E0
5.224958542E0,7.797573437E-1,-5.386918159E0,-4.589581307E0,7.119772843E0
5.234924542E0,2.732973101E0,-6.466235815E0,-6.013854282E0,9.243797429E0
5.244890542E0,4.405099314E0,-6.391399641E0,-9.039792475E0,1.191523132E1
5.254856542E0,6.105525175E0,-4.600090508E0,-1.331503975E1,1.535345413E1
5.264822542E0,5.566407799E0,-1.856949976E0,-1.196805527E1,1.332919750E1
5.274788542E0,4.056183970E0,1.449838171E0,-7.409687569E0,8.570771785E0
5.284754542E0,2.782936097E0,4.179326039E0,-3.988372933E0,6.412380066E0
5.294719542E0,8.325275879E-1,5.336518668E0,-2.634305137E0,6.009250971E0
5.304685542E0,-3.467844732E-1,4.944058231E0,-1.919860169E0,5.315057322E0
5.314651542E0,-1.559530475E0,4.173498704E0,-1.185355158E0,4.610346363E0
5.324617542E0,-2.888924774E0,3.514147371E0,-3.116256040E-1,4.559849626E0
5.334583542E0,-4.326816791E0,3.540328864E0,6.078940809E-2,5.590971951E0
5.344549542E0,-5.743975459E0,4.246186026E0,-1.065791293E0,7.222136867E0
5.354515542E0,-6.764021645E0,5.183097085E0,-2.376144719E0,8.846612229E0
5.364481542E0,-7.319473802E0,6.208464237E0,-3.335943241E0,1.016111422E1
5.374446542E0,-7.299245360E0,6.718825591E0,-3.567767508E0,1.054279684E1
5.384412542E0,-6.620274864E0,6.450232571E0,-3.190057257E0,9.778036858E0
5.394378542E0,-5.470511123E0,5.096577589E0,-2.836400698E0,7.996672057E0
5.404344542E0,-4.149974771E0,4.474143237E0,-2.968359199E0,6.786118525E0
5.414310542E0,-3.276558627E0,4.168586458E0,-3.214612055E0,6.200538699E0
5.424276542E0,-3.156001027E0,3.471298975E0,-3.342682450E0,5.760536869E0
5.434242542E0,-1.631155797E0,2.706559181E0,-2.895603756E0,4.286099969E0
5.444208542E0,-1.718719167E0,3.337650336E0,-2.221571234E0,4.362256766E0
5.454174542E0,-1.832889999E0,3.235835109E0,-8.064386272E-1,3.805319679E0
5.464139542E0,1.274311628E0,1.930545956E-1,1.778167516E0,2.196137499E0
5.474105542E0,4.339475428E0,-3.798152483E0,3.507912485E0,6.749996983E0
5.484071542E0,9.069480543E0,-9.541279510E0,5.331156186E0,1.420256027E1
5.494037542E0,1.392140771E1,-1.376554783E1,9.358321302E0,2.169963311E1
5.504003542E0,1.556843270E1,-1.225698958E1,1.299564495E1,2.369592113E1
5.513969542E0,1.506916468E1,-6.433483806E0,1.105503009E1,1.976570587E1
5.523935542E0,1.244724746E1,-2.782415110E-1,7.466254703E0,1.451744974E1
5.533901542E0,8.461368946E0,4.035512601E0,3.991719294E0,1.018891306E1
5.543867542E0,4.933381800E0,6.145264022E0,8.093365073E-2,7.880931172E0
5.553832542E0,1.159808966E0,5.291668770E0,-3.105796541E0,6.244428505E0
5.563798542E0,-2.330128886E0,2.528426680E0,-2.379971137E0,4.181710740E0
5.573764542E0,-3.620930393E0,-2.471600515E-1,-2.029642228E0,4.158325694E0
5.583730542E0,-3.433283887E0,-2.681706176E0,-3.821695127E0,5.795199729E0
5.593696542E0,-3.125762444E0,-6.420721089E0,-5.796785756E0,9.197759252E0
5.603662542E0,-3.040101611E0,-1.226194802E1,-7.027231134E0,1.445612550E1
5.613628542E0,-2.549004786E0,-1.679522415E1,-4.839957912E0,1.766358322E1
5.623594542E0,-2.329587288E0,-1.186148860E1,-4.196882304E0,1.279592551E1
5.633559542E0,-3.114011587E0,-2.437479672E0,-5.490459484E0,6.766352094E0
5.643525542E0,-3.448510329E0,1.751725822E0,-4.672778123E0,6.065939517E0
5.653491542E0,-3.615218248E0,3.347191823E0,-3.127932345E0,5.835876698E0
5.663457542E0,-3.855233586E0,1.632281824E0,-2.106360913E0,4.686568708E0
5.673423542E0,-3.842960281E0,-8.290731990E-1,-1.263659609E0,4.129472327E0
5.683389542E0,-3.513976632E0,-2.056982639E0,-6.924617761E-1,4.130219445E0
5.693355542E0,-3.088127717E0,-3.237935429E0,-4.282199612E-1,4.494900552E0
5.703321542E0,-2.824137332E0,-4.379302568E0,-5.620209199E-1,5.241174503E0
5.713287542E0,-2.849400812E0,-4.676359835E0,-2.126994860E-1,5.480206872E0
5.723252542E0,-3.090699907E0,-4.063459952E0,3.498897833E-1,5.117280094E0
5.733218542E0,-2.877838161E0,-3.372023778E0,8.756702453E-1,4.518771428E0
5.743184542E0,-2.490996314E0,-2.516280844E0,1.384401104E0,3.801749378E0
5.753150542E0,-2.394421653E0,-1.524788951E0,1.832579074E0,3.378843361E0
5.763116542E0,-2.079074735E0,-2.159967309E-1,1.685284203E0,2.685030575E0
5.773082542E0,-1.895543354E0,1.039892220E0,1.256220781E0,2.500510165E0
5.783048542E0,-2.720372351E0,1.678271345E0,9.503713489E-2,3.197819959E0
5.793014542E0,-1.884945714E0,1.248961755E0,-1.848363340E-2,2.261253514E0
5.802979542E0,-5.997722983E-1,1.716758888E0,5.904082748E-1,1.911954450E0
5.812945542E0,5.132188886E-2,2.308257961E0,1.392776363E0,2.696389205E0
5.822911542E0,1.786648902E-1,2.249490520E0,1.266585848E0,2.587734231E0
5.832877542E0,-3.951915982E-1,2.476712735E0,1.683544656E0,3.020696109E0
5.842843542E0,-1.157970893E0,2.405043413E0,2.705913064E0,3.800933559E0
5.852809542E0,-2.077962741E0,1.590257301E0,5.471913285E0,6.065367461E0
5.862775542E0,-1.541444452E0,1.627697607E0,7.191425042E0,7.532731552E0
5.872741542E0,1.517159321E-1,2.921480024E0,4.448262583E0,5.324011952E0
5.882707542E0,1.598383176E-1,3.505359006E0,1.235990292E-1,3.511177405E0
5.892672542E0,-4.696925808E-2,3.437838283E0,-3.180938232E0,4.683941312E0
5.902638542E0,2.728883485E-1,3.076039476E0,-7.581669384E0,8.186464289E0
5.912604542E0,1.407000702E-1,2.152915567E0,-1.524771175E1,1.539959596E1
5.922570542E0,-6.095630955E-4,1.090181199E0,-1.179161437E1,1.184190292E1
5.932536542E0,7.130387127E-3,1.572161338E0,-3.122074605E0,3.495581776E0
5.942502542E0,-1.383775561E-1,2.985804074E0,2.564125393E0,3.938135771E0
5.952468542E0,-2.495103033E-1,3.604063514E0,5.860189455E0,6.884282799E0
5.962434542E0,5.267471530E-2,3.151017737E0,8.154370244E0,8.742164576E0
5.972399542E0,8.627172739E-1,2.260383883E0,9.638318732E0,9.937343929E0
5.982365542E0,2.483351372E0,1.616644031E0,8.608263867E0,9.103997955E0
5.992331542E0,4.188271694E0,1.788506563E0,4.050016619E0,6.094506553E0
6.002297542E0,5.003205156E0,1.350795109E0,-7.375585730E-1,5.234567977E0
6.012263542E0,4.575848829E0,4.957579333E-1,-1.508247178E0,4.843446911E0
6.022229542E0,3.186567639E0,6.780665159E-2,1.688729382E0,3.607023425E0
6.032195542E0,1.856778068E0,-1.012989181E-1,4.653230588E0,5.011031947E0
6.042161542E0,8.810990927E-1,-5.318171275E-1,6.225360936E0,6.309856088E0
6.052127542E0,3.673250109E-1,-2.108336980E0,6.214659947E0,6.572823650E0
6.062092542E0,-5.092891943E-2,-3.372321401E0,3.792982959E0,5.075614753E0
6.072058542E0,-1.802669542E-1,-3.265664095E0,2.104977462E0,3.889471464E0
6.082024542E0,6.725613624E-2,-1.871889027E0,2.703724451E0,3.289166737E0
6.091990542E0,3.127468076E-1,5.628237426E-2,3.896420789E0,3.909357138E0
6.101956542E0,5.929871893E-1,1.427934501E0,4.712234257E0,4.959413518E0
6.111922542E0,7.408600572E-1,1.976224989E0,4.945848649E0,5.377337416E0
6.121888542E0,8.007390538E-1,1.465768325E0,4.319772651E0,4.631424788E0
6.131854542E0,6.705540133E-1,6.151522297E-1,3.161249195E0,3.289612656E0
6.141819542E0,4.388960999E-1,-2.138876402E-1,2.247181016E0,2.299608712E0
6.151785542E0,2.992768693E-1,-1.365745854E-1,1.340239423E0,1.380022091E0
6.161751542E0,-2.401685586E-2,2.742946404E-1,4.433445154E-1,5.218895654E-1
6.171717542E0,-1.517068963E-1,7.642100358E-1,-9.961404294E-2,7.854647788E-1
6.181683542E0,-2.651507646E-1,1.446645591E0,-8.178763658E-1,1.682857731E0
6.191649542E0,-6.776475629E-1,1.571344482E0,-1.204595129E0,2.092696616E0
6.201615542E0,-7.570840341E-1,9.073954833E-1,-5.911555490E-1,1.321365839E0
6.211581542E0,-1.270401156E0,-6.109387261E-1,1.220562413E-1,1.414942737E0
6.221547542E0,-2.725606779E0,-3.748336544E0,5.333385730E-1,4.665126921E0
6.231512542E0,-4.686949435E0,-6.237214996E0,1.410868233E0,7.928486305E0
6.241478542E0,-6.248580229E0,-8.147945908E0,1.894106108E0,1.044133207E1
6.251444542E0,-6.752460530E0,-8.629376993E0,1.252743734E0,1.102865528E1
6.261410542E0,-5.755946463E0,-8.105347188E0,-2.678334671E-1,9.944813095E0
6.271376542E0,-3.301643182E0,-7.840313367E0,-8.440306690E-1,8.548903390E0
6.281342542E0,1.781813255E-1,-6.634453778E0,-1.211575828E0,6.746528107E0
6.291308542E0,2.396955106E0,-6.334530791E0,-1.619540157E0,6.963805313E0
6.301274542E0,4.037486036E0,-7.447326096E0,-2.016761397E0,8.708116100E0
6.311239542E0,6.183225900E0,-8.138860504E0,-4.217317153E0,1.105708356E1
6.321205542E0,7.640062603E0,-7.006497492E0,-1.113775299E1,1.521548899E1
6.331171542E0,7.926704809E0,-3.489722967E0,-1.562457883E1,1.786444176E1
6.341137542E0,6.529451818E0,1.071309310E0,-1.273325816E1,1.434981910E1
6.351103542E0,4.205233297E0,4.728591843E0,-7.749377469E0,1.000481979E1
6.361069542E0,2.162607766E0,5.595945008E0,-4.712023757E0,7.628541196E0
6.371035542E0,7.080403666E-1,4.873803350E0,-3.479404385E0,6.030052664E0
6.381001542E0,-2.337159871E-1,4.355975686E0,-2.110770006E0,4.846080619E0
6.390966542E0,-1.424473680E0,3.705623803E0,-8.987474513E-1,4.070444695E0
6.400932542E0,-2.730937393E0,3.482139128E0,4.353851393E-1,4.446669784E0
6.410898542E0,-4.504304929E0,4.727878482E0,1.069118358E0,6.616994174E0
6.420864542E0,-5.923814178E0,6.150762159E0,1.035809695E0,8.602113186E0
6.430830542E0,-7.313554081E0,6.763845059E0,8.750399154E-1,1.000016841E1
6.440796542E0,-8.831122305E0,6.313214766E0,-1.462868106E-1,1.085664781E1
6.450762542E0,-9.540972531E0,6.982746102E0,-1.317427973E0,1.189640771E1
6.460728542E0,-8.827225721E0,8.101640053E0,-1.472760133E0,1.207168207E1
6.470694542E0,-6.270785615E0,7.510516956E0,-1.238022199E0,9.862216594E0
6.480659542E0,-4.585056732E0,5.956378491E0,-2.233954468E0,7.841667076E0
6.490625542E0,-3.540763312E0,4.715609270E0,-3.318229979E0,6.766433758E0
6.500591542E0,-1.945793740E0,4.396749490E0,-3.410864493E0,5.895041641E0
6.510557542E0,-1.060746023E0,3.151090243E0,-2.991044057E0,4.472236174E0
6.520523542E0,-8.406322673E-2,2.303191933E0,-2.066741642E0,3.095671288E0
6.530489542E0,1.230094837E0,4.027854502E-1,-4.846555325E-1,1.382121706E0
6.540455542E0,3.720248274E0,-3.135977529E0,1.362462643E0,5.052811766E0
6.550421542E0,7.926727613E0,-8.094654384E0,4.729200538E0,1.227687981E1
6.560386542E0,1.229714007E1,-1.201839044E1,9.531339244E0,1.965980139E1
6.570352542E0,1.398254970E1,-1.236794869E1,1.374509076E1,2.318200533E1
6.580318542E0,1.308219777E1,-8.869574180E0,1.131732332E1,1.943952293E1
6.590284542E0,1.180236389E1,-2.826132987E0,6.848951867E0,1.393524175E1
6.600250542E0,8.180204996E0,1.801169878E0,8.079168034E-1,8.415028002E0
6.610216542E0,3.172780197E0,3.856234045E0,-6.557011499E0,8.242055265E0
6.620182542E0,-5.163781393E-1,3.396140619E0,-3.049797757E0,4.593656914E0
6.630148542E0,-2.417018949E0,-4.635286653E-1,-7.990869230E-1,2.587543108E0
6.640114542E0,-2.260462820E0,-3.079169490E0,-1.041307247E0,3.959204174E0
6.650079542E0,-1.594038110E0,-2.750672915E0,-1.786495121E0,3.646741532E0
6.660045542E0,-1.748348032E0,-3.586799026E0,-1.125607724E0,4.145942696E0
6.670011542E0,-1.441666979E0,-6.320986885E0,-1.145452005E-1,6.484319509E0
6.679977542E0,-7.521448910E-1,-1.023587377E1,-3.136563420E-2,1.026351877E1
6.689943542E0,-5.690244225E-1,-1.162200301E1,-2.857596855E0,1.198167779E1
6.699909542E0,-1.203059650E0,-6.963385386E0,-6.138694675E0,9.360537424E0
6.709875542E0,-2.114423347E0,7.465257168E-2,-6.602917989E0,6.933605489E0
6.719841542E0,-2.788148305E0,3.805415309E0,-5.170386407E0,6.999132249E0
6.729806542E0,-2.947683152E0,3.661605964E0,-3.388153322E0,5.794460901E0
6.739772542E0,-2.506439980E0,4.762013358E-1,-1.097466829E0,2.777308504E0
6.749738542E0,-2.047881009E0,-2.032703830E0,2.407143733E-1,2.895452451E0
6.759704542E0,-1.614157649E0,-3.273007028E0,2.768794021E-1,3.659882802E0
6.769670542E0,-1.422347194E0,-3.937286394E0,-1.322499847E-1,4.188410886E0
6.779636542E0,-1.590997558E0,-3.783708106E0,-7.699525863E-1,4.176188124E0
6.789602542E0,-2.116057497E0,-2.598305000E0,-1.555071973E0,3.694203168E0
6.799568542E0,-2.634069495E0,-1.740091032E0,-1.736272508E0,3.602898989E0
6.809533542E0,-2.745523857E0,-1.442205216E0,-5.428864914E-1,3.148425460E0
6.819499542E0,-2.617401422E0,-1.649046376E0,6.736834431E-1,3.166069098E0
6.829465542E0,-2.497561567E0,-1.679996858E0,1.074345769E0,3.196000948E0
6.839431792E0,-2.199453703E0,-9.899225003E-1,1.653385595E0,2.924248121E0
6.849397792E0,-2.200057428E0,-7.002040744E-2,1.167201308E0,2.491488398E0
6.859363792E0,-2.882886062E0,1.891813999E-1,-3.089581043E-2,2.889251841E0
6.869329792E0,-1.968752979E0,9.836829364E-2,-3.125044405E-3,1.971211399E0
6.879295792E0,-9.847785585E-1,9.756207955E-1,1.547690740E0,2.077732267E0
6.889261792E0,-1.543347428E0,2.454700892E0,2.114150866E0,3.588469261E0
6.899226792E0,-2.015808593E0,3.059761412E0,3.765587000E0,5.254071720E0
6.909192792E0,-1.912793809E0,2.807624211E0,6.276960275E0,7.137349940E0
6.919158792E0,-2.184544618E0,2.570290405E0,8.580094321E0,9.219362587E0
6.929124792E0,-2.282565880E0,3.749520020E0,8.735686975E0,9.776565568E0
6.939090792E0,-1.530318955E0,4.870718359E0,4.485686810E0,6.796113566E0
6.949056792E0,-1.728496296E0,3.848954846E0,3.918265986E-1,4.237414417E0
6.959022792E0,-2.040150551E0,2.755281106E0,-2.718918149E0,4.375648997E0
6.968988792E0,-1.694972747E0,2.490906851E0,-7.633793803E0,8.206848201E0
6.978953792E0,-3.616839096E-1,1.421620678E0,-1.883715372E1,1.889418378E1
6.988919792E0,1.054486286E0,8.710737491E-1,-1.553229574E1,1.559239948E1
6.998885792E0,3.820394925E-1,2.399829451E0,-4.379399340E0,5.008420324E0
7.008851792E0,1.597523636E-1,3.696462386E0,2.159786630E0,4.284160743E0
7.018817792E0,-9.289032052E-2,3.454839647E0,6.289730594E0,7.176716279E0
7.028783792E0,1.375920010E-1,2.075202563E0,9.371068817E0,9.599079539E0
7.038749792E0,1.094566903E0,1.417424716E0,1.020266158E1,1.035864242E1
7.048715792E0,2.105179191E0,1.321137446E0,9.663445972E0,9.977944258E0
7.058680792E0,2.757751262E0,1.317946036E0,5.699472885E0,6.467315126E0
7.068646792E0,3.811026297E0,2.926531434E-2,3.756857984E-1,3.829610648E0
7.078612792E0,4.066482086E0,-1.420413812E0,-3.414237459E0,5.496441520E0
7.088578792E0,2.985564631E0,-1.424847171E0,-1.833402654E0,3.782215081E0
7.098544792E0,1.977666328E0,-4.398310697E-1,3.273377157E0,3.849625110E0
7.108510792E0,1.430292099E0,-2.990149140E-2,6.643423406E0,6.795712188E0
7.118476792E0,9.426945394E-1,-5.486693877E-1,6.915590245E0,7.001078455E0
7.128442792E0,4.288292411E-1,-1.327344850E0,5.028123066E0,5.218022656E0
7.138408792E0,2.685892563E-1,-1.896918034E0,3.866463164E0,4.315086977E0
7.148373792E0,1.285139428E-1,-1.594744454E0,3.588524539E0,3.929024570E0
7.158339792E0,4.820210695E-2,-5.248647881E-1,3.954541528E0,3.989511898E0
7.168305792E0,1.411126278E-1,7.713769680E-1,4.801448150E0,4.865063158E0
7.178271792E0,2.153918547E-1,1.596425529E0,5.213992018E0,5.457167845E0
7.188237792E0,3.592014742E-1,1.686311266E0,4.519450387E0,4.837158586E0
7.198203792E0,4.217748678E-1,1.282266911E0,3.207969033E0,3.480397648E0
7.208169792E0,9.527101438E-2,1.544810987E-1,2.154692390E0,2.162322888E0
7.218135792E0,-1.542132962E-1,-1.992766178E-1,1.383315568E0,1.406077833E0
7.228100792E0,-2.475483066E-1,3.634868985E-1,7.303260058E-1,8.525133221E-1
7.238066792E0,-4.057529122E-1,7.981958073E-1,3.282837367E-1,9.536887251E-1
7.248032792E0,-5.393106267E-1,1.031412588E0,8.551260531E-3,1.163933419E0
7.257998792E0,-8.457190526E-1,9.630638999E-1,-4.245444015E-2,1.282394312E0
7.267964792E0,-9.818966120E-1,1.211893916E-1,7.800950204E-1,1.259903197E0
7.277930792E0,-1.460814272E0,-1.516842585E0,1.426939597E0,2.543805491E0
7.287896792E0,-2.804433093E0,-4.332899065E0,1.294272706E0,5.321090219E0
7.297862792E0,-4.194058099E0,-6.318189577E0,1.917186530E0,7.822099914E0
7.307827792E0,-5.633039744E0,-7.515383009E0,1.531140781E0,9.516118464E0
7.317793792E0,-6.178716527E0,-7.586736581E0,5.048597091E-1,9.797448301E0
7.327759792E0,-5.302155166E0,-7.360035353E0,-6.090149921E-1,9.091417330E0
7.337725792E0,-3.680757349E0,-7.846803777E0,-1.341529903E0,8.770405159E0
7.347691792E0,-1.096427852E0,-6.936272432E0,-1.734415433E0,7.233410411E0
7.357657792E0,1.531931325E0,-5.558554988E0,-2.164180520E0,6.158573249E0
7.367623792E0,3.229296752E0,-6.565733206E0,-3.052806441E0,7.928230396E0
7.377589792E0,4.554254477E0,-6.853151922E0,-4.728662302E0,9.490372610E0
7.387554792E0,6.231620965E0,-5.965902436E0,-8.603460964E0,1.218378563E1
7.397520792E0,6.870712280E0,-3.757319621E0,-1.213288009E1,1.444059962E1
7.407486792E0,6.321868646E0,-2.794711804E-1,-9.886341248E0,1.173813744E1
7.417452792E0,4.385147738E0,3.816904503E0,-7.029105751E0,9.121765636E0
7.427418792E0,2.441246303E0,6.164963876E0,-4.797124134E0,8.184061526E0
7.437384792E0,1.100395846E0,6.336842780E0,-3.441375849E0,7.294485257E0
7.447350792E0,5.549139217E-1,5.714877959E0,-1.933898165E0,6.058689765E0
7.457316792E0,-6.451260804E-1,4.660627316E0,-9.277975881E-1,4.795669193E0
7.467282792E0,-2.535191908E0,3.935493053E0,1.547667351E-1,4.683935987E0
7.477247792E0,-5.289565526E0,4.148401285E0,8.603189653E-1,6.777085317E0
7.487213792E0,-7.789912707E0,4.569659843E0,5.331532162E-1,9.047031747E0
7.497179792E0,-8.915191818E0,5.656839082E0,-1.027526821E0,1.060831207E1
7.507145792E0,-8.937372061E0,6.698939795E0,-2.514246013E0,1.144874870E1
7.517111792E0,-8.467240720E0,7.103623252E0,-3.314974834E0,1.153883386E1
7.527077792E0,-7.461993252E0,6.725922942E0,-3.452583792E0,1.062260409E1
7.537043792E0,-6.043352315E0,6.075146551E0,-3.238502024E0,9.160644528E0
7.547009792E0,-4.864504523E0,5.209079772E0,-3.067960963E0,7.759529676E0
7.556974792E0,-3.590632460E0,4.470854178E0,-2.648959429E0,6.316499395E0
7.566940792E0,-2.760434257E0,3.406074454E0,-1.873709558E0,4.767822142E0
7.576906792E0,-2.304663239E0,2.634426175E0,-2.010721807E0,4.036666459E0
7.586872792E0,-1.284790130E0,2.476893414E0,-2.066614465E0,3.472258920E0
7.596838792E0,-3.848342058E-1,7.149215162E-1,-1.203176887E0,1.451497421E0
7.606804792E0,2.334413580E0,-2.400151632E0,5.966805831E-1,3.400917867E0
7.616770792E0,6.799225391E0,-7.478640275E0,3.561400475E0,1.071648728E1
7.626736792E0,1.183685428E1,-1.331412641E1,7.117361870E0,1.918421021E1
7.636701792E0,1.664087403E1,-1.571085099E1,1.068527556E1,2.525717009E1
7.646667792E0,1.722917175E1,-1.086019034E1,1.035678366E1,2.284843674E1
7.656633792E0,1.282865782E1,-1.413801781E0,6.568804749E0,1.448179868E1
7.666599792E0,9.008250840E0,4.426251617E0,3.191427845E0,1.053211746E1
7.676565792E0,5.773942439E0,6.618763359E0,-2.251178026E-3,8.783304888E0
7.686531792E0,2.061829981E0,6.409352347E0,-3.063010125E0,7.396821710E0
7.696497792E0,-1.553429198E0,5.393586908E0,-1.047822214E0,5.709803271E0
7.706463792E0,-4.399129892E0,2.744795879E0,1.308454835E-1,5.186845743E0
7.716428792E0,-5.500759939E0,1.926277488E0,-1.253264721E0,5.961507974E0
7.726394792E0,-4.809785694E0,2.520728236E0,-2.447836261E0,5.956510021E0
7.736360792E0,-4.088543338E0,1.118256605E0,-2.904319031E0,5.138263666E0
7.746326792E0,-3.253098428E0,-4.770822188E0,-2.756190348E0,6.398435666E0
7.756292792E0,-1.571192162E0,-1.701957714E1,-2.048877813E0,1.721431239E1
7.766258792E0,1.055622692E-1,-2.364400937E1,-1.689231951E0,2.370451069E1
7.776224792E0,1.296128905E-1,-1.436071370E1,-4.944141262E0,1.518852956E1
7.786190792E0,-1.071169416E0,-2.193442619E0,-6.312624782E0,6.768147906E0
7.796155792E0,-1.470600757E0,3.393949667E0,-4.329386350E0,5.694308307E0
7.806121792E0,-1.847873636E0,5.287008539E0,-2.212019223E0,6.021638092E0
7.816087792E0,-1.900188382E0,3.098603296E0,-1.436669072E0,3.908462139E0
7.826053792E0,-1.740547700E0,-1.217796680E0,-1.873463683E0,2.832384370E0
7.836019792E0,-1.437864535E0,-3.824466122E0,-1.982551677E0,4.541421220E0
7.845986042E0,-1.286362447E0,-4.881628679E0,-1.484255759E0,5.261942803E0
7.855952042E0,-1.863606446E0,-4.928543229E0,-1.157141758E0,5.394677414E0
7.865918042E0,-2.536650204E0,-4.662643436E0,-1.284411085E0,5.461185760E0
7.875884042E0,-3.019936026E0,-4.375681973E0,-6.054929218E-1,5.351002523E0
7.885849042E0,-3.478492804E0,-4.367666025E0,5.991869920E-1,5.615642772E0
7.895815042E0,-3.637519528E0,-4.198587937E0,1.363903397E0,5.720132993E0
7.905781042E0,-4.618661849E0,-2.905682602E0,8.125939912E-1,5.516823149E0
7.915747042E0,-5.388272958E0,-4.182478273E-1,-1.413218375E0,5.586197535E0
7.925713042E0,-4.487582477E0,1.394277343E0,-2.242841212E0,5.206989774E0
7.935679042E0,-2.959913188E0,2.414059820E0,-6.967947091E-1,3.882562783E0
7.945645042E0,-1.877527205E0,2.791164299E0,6.258321691E-1,3.421603784E0
7.955611042E0,-2.129693935E0,2.804724576E0,1.957162335E0,4.028965204E0
7.965576042E0,-2.727293700E0,2.941838860E0,5.098953313E0,6.487824881E0
7.975542042E0,-3.438066909E0,1.978742216E0,8.351931288E0,9.246106265E0
7.985508042E0,-3.881842803E0,2.082661856E0,8.967461833E0,9.991073800E0
7.995474042E0,-4.473448295E0,4.174161778E0,5.168265038E0,8.009140384E0
8.005440042E0,-4.553122456E0,4.539284728E0,1.240006452E0,6.547797029E0
8.015406042E0,-3.298722205E0,3.142059218E0,-8.490800321E-1,4.634117092E0
8.025372042E0,-1.661640987E0,2.056419552E0,-2.424015289E0,3.586887545E0
8.035338042E0,-3.055462539E-3,1.259841084E0,-4.796203197E0,4.958908550E0
8.045303042E0,2.407356572E0,1.314167565E-1,-1.234394002E1,1.257718137E1
8.055269042E0,3.447664529E0,3.122383922E-1,-1.436103763E1,1.477238252E1
8.065235042E0,1.916012409E0,1.986814882E0,-6.622841792E0,7.174996190E0
8.075201042E0,3.847774878E-1,2.748691294E0,7.764172679E-1,2.882044642E0
8.085167042E0,1.121624235E-1,2.308891214E0,5.548966724E0,6.011205432E0
8.095133042E0,4.311576024E-1,1.655171335E0,8.472877436E0,8.643792054E0
8.105099042E0,8.836879474E-1,1.751825809E0,8.525593593E0,8.748459531E0
8.115065042E0,1.626320880E0,2.444233207E0,6.141198453E0,6.806872557E0
8.125030042E0,2.737071414E0,2.719606658E0,3.651255223E0,5.312201521E0
8.134996042E0,3.475004355E0,2.574172372E0,1.391970470E0,4.543082704E0
8.144962042E0,3.892898718E0,2.281613953E0,3.280192964E-1,4.524159515E0
8.154928042E0,4.123431627E0,1.935859321E0,1.432690919E0,4.775232242E0
8.164894042E0,3.994580922E0,1.400512229E0,3.222943752E0,5.320289247E0
8.174860042E0,3.888113649E0,4.791775686E-1,4.549866434E0,6.004025604E0
8.184826042E0,3.709171017E0,-7.616337526E-1,4.792206625E0,6.107641111E0
8.194792042E0,3.045450937E0,-1.819647664E0,4.225222589E0,5.517100230E0
8.204757042E0,2.148364387E0,-2.022559496E0,3.969309840E0,4.945870708E0
8.214723042E0,1.284711632E0,-1.489378797E0,4.105893781E0,4.552702156E0
8.224689042E0,8.334960330E-1,-4.314438236E-1,4.158290681E0,4.262891131E0
8.234655042E0,7.324263988E-1,8.586250269E-1,4.460120444E0,4.600691225E0
8.244621042E0,9.391891336E-1,1.859265473E0,4.760876659E0,5.196623028E0
8.254587042E0,1.370101153E0,2.126361022E0,4.560193201E0,5.214781913E0
8.264553042E0,1.668803241E0,1.352911801E0,3.903898208E0,4.455973049E0
8.274519042E0,1.433086191E0,-1.851696253E-2,2.727530220E0,3.081152383E0
8.284485042E0,7.053718436E-1,-1.536192191E0,1.199431453E0,2.072696720E0
8.294450042E0,2.996434897E-2,-1.703369349E0,-1.763397449E-1,1.712734861E0
8.304416042E0,-8.568030345E-1,-8.097844040E-1,-1.257312310E0,1.723570847E0
8.314382042E0,-1.548385097E0,3.043171692E-1,-1.561880763E0,2.220265044E0
8.324348042E0,-1.607424434E0,1.075688875E0,-5.928132346E-1,2.022955115E0
8.334314042E0,-1.481954295E0,1.257630252E0,1.483790467E0,2.445292730E0
8.344280042E0,-2.379738126E0,-6.735635751E-1,1.881939222E0,3.107818635E0
8.354246042E0,-4.614276438E0,-3.973341495E0,1.929057255E0,6.387507462E0
8.364211042E0,-7.571133871E0,-6.995344512E0,2.997888515E0,1.073518740E1
8.374177042E0,-9.631892057E0,-8.957589394E0,2.275886313E0,1.334883556E1
8.384143042E0,-9.182620658E0,-8.707499887E0,1.206786373E0,1.271209699E1
8.394109042E0,-6.742995057E0,-8.524762704E0,4.912494376E-1,1.088029813E1
8.404075042E0,-3.530795856E0,-9.002692477E0,-3.650858197E-1,9.677204083E0
8.414041042E0,-4.147208234E-1,-8.243663074E0,-1.855341699E0,8.460039424E0
8.424007042E0,2.152967023E0,-6.503662673E0,-4.029863021E0,7.948125007E0
8.433973042E0,5.282269955E0,-6.912292415E0,-8.158762087E0,1.192675820E1
8.443938042E0,7.524779484E0,-7.228504575E0,-1.330035739E1,1.690482450E1
8.453904042E0,7.055902371E0,-5.322100604E0,-1.315680357E1,1.584966855E1
8.463870042E0,6.303668017E0,-2.057226468E0,-9.219708377E0,1.135655906E1
8.473836042E0,5.362419494E0,1.112589483E0,-5.510244707E0,7.768924953E0
8.483802042E0,4.292139879E0,3.531636393E0,-3.793064820E0,6.729209544E0
8.493768042E0,2.162403844E0,4.602155744E0,-3.513829867E0,6.180843649E0
8.503734042E0,8.070477609E-1,4.583525346E0,-2.652554882E0,5.356872043E0
8.513700042E0,4.664616287E-4,4.338627582E0,-1.569104413E0,4.613651284E0
8.523666042E0,-1.026528848E0,3.946199305E0,-5.579588592E-1,4.115527733E0
8.533631042E0,-2.008064540E0,3.854660559E0,5.093477395E-1,4.376090304E0
8.543597042E0,-3.518642418E0,4.338266224E0,9.141650972E-1,5.660132165E0
8.553563042E0,-5.423167972E0,4.639152247E0,4.400094098E-1,7.150251234E0
8.563529042E0,-7.188925942E0,5.182918745E0,-9.814153862E-1,8.916640571E0
8.573495042E0,-7.979840212E0,5.995641959E0,-2.451722320E0,1.027796257E1
8.583461042E0,-7.870827647E0,6.757425401E0,-3.281713532E0,1.088036624E1
8.593427042E0,-7.421302478E0,7.447255345E0,-3.288718497E0,1.101603431E1
8.603393042E0,-6.162272987E0,6.802164202E0,-2.372249889E0,9.480011378E0
8.613358042E0,-4.736281516E0,6.067597210E0,-1.711630295E0,7.885288630E0
8.623324042E0,-3.760957759E0,5.212644235E0,-2.202709871E0,6.794732810E0
8.633290042E0,-3.058211315E0,4.825782507E0,-2.806019735E0,6.365106441E0
8.643256042E0,-2.020291507E0,4.719097719E0,-2.477313829E0,5.699872355E0
8.653222042E0,-1.631490842E0,3.906016070E0,-2.075880840E0,4.714658542E0
8.663188042E0,-7.452111165E-1,2.470637478E0,-1.497794695E0,2.983752353E0
8.673154042E0,1.610556641E0,-3.358231366E-2,4.068480957E-1,1.661489042E0
8.683120042E0,4.602894832E0,-4.189314837E0,3.861841525E0,7.324671980E0
8.693085042E0,8.919198915E0,-9.739594846E0,8.808060887E0,1.587431112E1
8.703051042E0,1.345905433E1,-1.313249318E1,1.592662728E1,2.464276724E1
8.713017042E0,1.473485831E1,-1.179612374E1,1.578586375E1,2.460605778E1
8.722983042E0,1.305242609E1,-5.986600410E0,8.017460028E0,1.644642443E1
8.732949042E0,1.074204618E1,8.060211360E-2,3.508020658E0,1.130063103E1
8.742915042E0,8.013754063E0,3.532007691E0,9.457678360E-1,8.808507780E0
8.752881042E0,5.091974661E0,4.834288452E0,-4.544665335E0,8.363763136E0
8.762847042E0,1.591573217E0,4.221259931E0,-8.367371446E0,9.506053104E0
8.772812042E0,-4.787470673E-1,1.856581017E0,-3.505224520E0,3.995333623E0
8.782778042E0,-1.465567035E0,-1.372927405E0,-1.656083500E0,2.602965415E0
8.792744042E0,-1.518548510E0,-3.494468567E0,-1.041412497E0,3.949916471E0
8.802710042E0,-1.341142379E0,-6.049545686E0,9.639322114E-1,6.270951379E0
8.812676042E0,-1.416890280E0,-9.828900540E0,1.125066272E0,9.994030118E0
8.822642042E0,-1.834868112E0,-1.334063184E1,-2.649828910E0,1.372445963E1
8.832608042E0,-2.680514513E0,-1.214480607E1,-6.566106843E0,1.406396927E1
8.842573417E0,-3.935859674E0,-5.186832871E0,-7.961972875E0,1.028529235E1
8.852538417E0,-4.780499330E0,3.779698670E-1,-7.294285752E0,8.729412334E0
8.862504417E0,-4.924029179E0,1.805386890E0,-4.728946184E0,7.061757372E0
8.872470417E0,-4.548140920E0,-7.985934180E-1,-1.339623126E0,4.808110585E0
8.882436417E0,-3.697606101E0,-3.116458354E0,7.988214594E-1,4.901297713E0
8.892402417E0,-2.935982581E0,-2.700488017E0,8.209251040E-1,4.072658502E0
8.902368417E0,-2.716585694E0,-1.991621293E0,4.735484540E-2,3.368773618E0
8.912334417E0,-3.114937493E0,-1.483604672E0,-1.266080941E0,3.675170657E0
8.922300417E0,-3.760580614E0,-1.783529997E0,-1.963686805E0,4.602066022E0
8.932265417E0,-4.248077601E0,-2.440929530E0,-2.082692554E0,5.323711914E0
8.942231417E0,-4.391218609E0,-2.657219791E0,-1.248926672E0,5.282370275E0
8.952197417E0,-4.367759580E0,-2.703660716E0,2.665833324E-2,5.136907210E0
8.962163417E0,-4.258642935E0,-2.550689954E0,1.113608068E0,5.087453372E0
8.972129417E0,-3.711182166E0,-1.944214407E0,2.464462234E0,4.860701270E0
8.982095417E0,-2.748952079E0,-1.011855406E0,3.487165102E0,4.554218851E0
8.992061417E0,-2.512937990E0,2.132233965E-1,2.113858652E0,3.290702047E0
9.002027417E0,-1.336470892E0,1.311108887E0,1.971489329E0,2.718810610E0
9.011992417E0,-5.703240392E-1,1.965461435E0,2.762570829E0,3.438038067E0
9.021958417E0,-6.797804810E-2,2.852072405E0,3.998528377E0,4.911941286E0
9.031924417E0,8.584882021E-3,3.580560631E0,4.501638014E0,5.751976438E0
9.041890417E0,7.395843409E-2,3.736520491E0,5.177150466E0,6.385134468E0
9.051856417E0,-1.333623444E-1,3.742528505E0,4.890629006E0,6.159753014E0
9.061822417E0,1.083476635E-1,4.010426876E0,3.931398248E0,5.617041493E0
9.071788417E0,1.634975783E-1,4.299888024E0,3.655917500E0,5.646370626E0
9.081754417E0,7.276068313E-1,4.534994041E0,1.993825401E0,5.007087215E0
9.091719417E0,9.561284443E-1,4.457186896E0,6.768747072E-1,4.608563334E0
9.101685417E0,9.544929781E-1,4.120724074E0,-5.067093296E-1,4.260067850E0
9.111651417E0,1.274931579E0,3.732983510E0,-1.620296348E0,4.264501925E0
9.121617417E0,1.775542116E0,3.240375472E0,-2.577593285E0,4.505171489E0
9.131583417E0,2.281696399E0,2.596934997E0,-3.563042958E0,4.964421916E0
9.141549417E0,2.365935188E0,1.713878549E0,-3.972912602E0,4.931436255E0
9.151515417E0,1.590769517E0,5.289315265E-1,-5.281333816E0,5.541011017E0
9.161481417E0,6.779136112E-1,-1.283902377E-1,-5.279380846E0,5.324275823E0
9.171446417E0,2.753445080E-1,-5.082399845E-3,-2.497240555E0,2.512379513E0
9.181412417E0,-3.332883686E-2,5.224954963E-1,7.291360974E-1,8.976367882E-1
9.191378417E0,-2.736336127E-1,1.151273493E0,3.901009684E0,4.076540514E0
9.201344417E0,-4.356845167E-1,1.407911296E0,5.935127370E0,6.115371789E0
9.211310417E0,-1.346786258E-1,1.560240619E0,6.084207396E0,6.282520892E0
9.221276417E0,1.011467736E0,1.617052751E0,5.044846103E0,5.393366183E0
9.231242417E0,2.284661814E0,1.176012477E0,3.411832792E0,4.271216214E0
9.241208417E0,2.515602859E0,1.920114523E-1,2.775748115E0,3.750987035E0
9.251173417E0,1.925159793E0,-9.012792957E-1,3.489111933E0,4.085639078E0
9.261139417E0,8.777079999E-1,-1.901788765E0,4.900848477E0,5.329679881E0
9.271105417E0,-1.705071290E-1,-2.711158016E0,5.413503109E0,6.056852845E0
9.281071417E0,-9.792060158E-1,-2.543558105E0,5.012639639E0,5.705706652E0
9.291037417E0,-1.217145301E0,-1.326311063E0,4.709434025E0,5.041756892E0
9.301003417E0,-6.635829628E-1,2.806681055E-1,4.695542210E0,4.750498246E0
9.310969417E0,2.106237245E-1,1.474888228E0,4.886069639E0,5.108163482E0
9.320935417E0,7.330750743E-1,2.255575132E0,4.489018553E0,5.077037110E0
9.330900417E0,1.019164718E0,2.362189754E0,3.418292795E0,4.278242956E0
9.340866417E0,1.038433048E0,1.515740384E0,2.243559981E0,2.899891980E0
9.350832417E0,7.215315011E-1,-2.558074987E-1,1.364618804E0,1.564681968E0
9.360798417E0,3.717110074E-1,-1.327129088E0,4.318350023E-1,1.444272190E0
9.370764417E0,-1.340360168E-1,-8.233587152E-1,-5.575150555E-1,1.003348526E0
9.380730417E0,-6.050204667E-1,9.651998878E-2,-8.806941730E-1,1.072841134E0
9.390696417E0,-6.360721055E-1,9.430868876E-1,-5.975231668E-1,1.284925887E0
9.400662417E0,-1.131017276E0,4.828139520E-1,-2.380582756E-1,1.252589770E0
9.410627417E0,-1.796036899E0,-1.743698180E-1,4.105066985E-1,1.850586158E0
9.420593417E0,-3.409877775E0,-2.242392585E0,8.481070554E-1,4.168318189E0
9.430559417E0,-4.737811148E0,-5.661356056E0,1.381588885E0,7.510432392E0
9.440525417E0,-7.152780209E0,-8.419595268E0,7.400671747E-1,1.107246805E1
9.450491417E0,-8.631440476E0,-8.541283427E0,7.376692316E-1,1.216550217E1
9.460457417E0,-7.529880595E0,-6.316918977E0,-6.633958519E-3,9.828662735E0
9.470423417E0,-5.017623805E0,-5.964276910E0,-1.985331443E-1,7.796702067E0
9.480389417E0,-2.047373909E0,-7.050583159E0,-7.008042911E-1,7.375200977E0
9.490354417E0,1.283488102E0,-7.216258752E0,-1.237222885E0,7.433199348E0
9.500320417E0,3.438712442E0,-6.794667487E0,-1.071113428E0,7.690223240E0
9.510286417E0,4.880264816E0,-7.785752413E0,-2.056319272E0,9.416123102E0
9.520252417E0,5.709983840E0,-7.863562481E0,-4.755156913E0,1.081901325E1
9.530218417E0,7.247281739E0,-6.326125419E0,-9.641671525E0,1.362001414E1
9.540184417E0,9.282351353E0,-3.374509429E0,-1.819808813E1,2.070554931E1
9.550150417E0,7.660662929E0,6.908128613E-1,-1.633572188E1,1.805599037E1
9.560116417E0,4.630558010E0,3.837122421E0,-9.195772215E0,1.098762042E1
9.570081417E0,1.527566086E0,4.979775948E0,-3.943728272E0,6.533346717E0
9.580047417E0,-3.761838350E-1,4.844274911E0,-1.247599354E0,5.016474643E0
9.590013417E0,-1.176700256E0,4.980534917E0,4.749517858E-1,5.139643056E0
9.599979417E0,-2.582791167E0,4.366494827E0,4.214936167E-1,5.090652626E0
9.609945417E0,-3.942393937E0,3.503022459E0,2.768223917E-1,5.281123643E0
9.619911417E0,-5.088620113E0,3.881098160E0,3.469737768E-1,6.409162846E0
9.629877417E0,-5.950456431E0,4.742149782E0,-8.894901395E-2,7.609456499E0
9.639843417E0,-6.462376068E0,5.541685771E0,-7.770095909E-1,8.548469426E0
9.649808417E0,-6.825934303E0,6.353364088E0,-1.472438537E0,9.440693279E0
9.659774417E0,-8.155906892E0,4.751639813E0,-2.375508834E0,9.733444424E0
9.669740417E0,-8.967551880E0,4.060095465E0,-3.340918345E0,1.039534017E1
9.679706417E0,-7.692484646E0,6.516486787E0,-2.483957435E0,1.038310958E1
9.689672417E0,-6.224894328E0,6.433728805E0,-1.828109170E0,9.136966612E0
9.699638417E0,-4.838955699E0,5.033898945E0,-2.432497845E0,7.394097417E0
9.709604417E0,-3.400516967E0,3.790052919E0,-2.329883888E0,5.599676393E0
9.719570417E0,-2.004281830E0,3.979825473E0,-2.157303318E0,4.950769037E0
9.729535417E0,-1.852471009E0,3.919416134E0,-2.327729189E0,4.920548226E0
9.739501417E0,3.915970954E-1,2.377414734E0,-6.207494769E-1,2.488127613E0
9.749467417E0,3.525364670E0,-8.965436357E-1,1.566188115E0,3.960420654E0
9.759433417E0,7.227488329E0,-6.364332880E0,4.879312012E0,1.079578651E1
9.769399417E0,1.254249041E1,-1.279259220E1,1.092744618E1,2.098507948E1
9.779365417E0,1.770198112E1,-1.461490736E1,1.780775959E1,2.905291645E1
9.789331417E0,1.694767861E1,-8.146273604E0,1.410681005E1,2.350718345E1
9.799297417E0,1.369199805E1,-1.245416003E-1,5.887319366E0,1.490459159E1
9.809262417E0,1.025685124E1,3.551098266E0,-9.210116020E-1,1.089318863E1
9.819228417E0,6.763020017E0,2.204653485E0,-6.606958416E0,9.708286988E0
9.829194417E0,3.330961121E0,-9.121902001E-1,-4.394400079E0,5.589109501E0
9.839160417E0,1.501652688E-2,-4.301003088E0,-3.022466117E0,5.256819807E0
9.849126542E0,-1.846402476E0,-9.371365855E0,-1.855212768E0,9.730031578E0
9.859092542E0,-3.194902845E0,-1.290620009E1,7.482892370E-1,1.331680674E1
9.869058542E0,-4.712121406E0,-1.135773226E1,1.120973221E0,1.234741880E1
9.879023542E0,-6.102168288E0,-3.160927014E0,-3.759099514E0,7.833182403E0
9.888989542E0,-6.895517923E0,8.377878892E-1,-7.635347993E0,1.032223789E1
9.898955542E0,-6.946108618E0,2.396286623E0,-8.175090437E0,1.099193878E1
9.908921542E0,-6.042927808E0,3.333735625E0,-6.838204100E0,9.715544505E0
9.918887542E0,-4.505581669E0,3.361163160E0,-4.972653455E0,7.504996092E0
9.928853542E0,-3.216469131E0,2.400677297E0,-2.626880343E0,4.796814098E0
9.938819542E0,-2.587773580E0,6.145733553E-1,-9.921976519E-1,2.838790005E0
9.948785542E0,-1.660263529E0,-1.937609392E0,-5.433466673E-2,2.552206378E0
9.958750542E0,-8.030494349E-1,-4.413304127E0,3.506908518E-1,4.499458388E0
9.968716542E0,-1.693853590E-1,-6.298280978E0,7.969363171E-1,6.350759180E0
9.978682542E0,3.053388239E-1,-7.793808707E0,1.412700750E0,7.926689685E0
9.988648542E0,-2.277095810E-2,-7.157064464E0,7.443131304E-1,7.195699570E0
9.998614542E0,-6.872280796E-1,-4.317868212E0,-2.583095223E-2,4.372291799E0
1.000858054E1,-1.020808517E0,-1.203901357E0,-2.819337353E-1,1.603407352E0
1.001854654E1,-1.278240664E0,9.286278927E-1,-4.629281563E-1,1.646375242E0
1.002851254E1,-1.709450307E0,1.678873023E0,-8.517311597E-1,2.542888308E0
1.003847754E1,-1.809527157E0,1.331134431E0,-7.174884439E-1,2.358197844E0
1.004844354E1,-1.856569907E0,1.134058120E0,-1.228501470E-1,2.178997889E0
1.005840954E1,-2.137657989E0,7.149963605E-1,-4.449814434E-1,2.297566094E0
1.006837554E1,-2.034435921E0,7.385910451E-2,-1.114340432E-1,2.038823737E0
1.007834154E1,-2.010928214E0,5.296934187E-2,1.280773532E0,2.384747130E0
1.008830754E1,-1.959467454E0,7.345903802E-1,2.749974757E0,3.455647102E0
1.009827354E1,-2.408157640E0,1.736620710E0,3.268283647E0,4.415512735E0
1.010823954E1,-3.565295890E0,2.376139457E0,5.996344210E0,7.369770511E0
1.011820454E1,-4.119996096E0,2.789182093E0,8.810357673E0,1.011811776E1
1.012817054E1,-2.429220188E0,4.438588657E0,7.947420325E0,9.421447331E0
1.013813654E1,-1.418983876E0,5.348998965E0,5.698317475E0,7.943307071E0
1.014810254E1,-1.498049926E0,4.816407666E0,4.599001756E-1,5.064922957E0
1.015806854E1,-1.234862656E0,4.364857607E0,-2.868149325E0,5.366856459E0
1.016803454E1,-3.342523552E-1,3.549338838E0,-5.505511386E0,6.558977546E0
1.017800054E1,1.850994879E0,8.005364478E-1,-1.403213994E1,1.417631799E1
1.018796654E1,3.698778175E0,-9.832297772E-1,-1.634699297E1,1.678904047E1
1.019793154E1,2.102136300E0,1.319508997E0,-6.907001855E0,7.339397498E0
1.020789754E1,5.066355085E-1,2.905271543E0,-4.408253887E-1,2.981880162E0
1.021786354E1,8.439403296E-2,2.487547041E0,3.272773139E0,4.111697540E0
1.022782954E1,1.408240494E-1,1.598969652E0,6.587913449E0,6.780644437E0
1.023779554E1,7.301067352E-1,1.095077657E0,8.485590452E0,8.587053991E0
1.024776154E1,1.099659535E0,1.739848373E0,8.113211108E0,8.370216122E0
1.025772754E1,1.180257263E0,2.099417637E0,6.078809831E0,6.538538872E0
1.026769354E1,1.680833595E0,1.247633852E0,2.748036990E0,3.454489702E0
1.027765854E1,1.963794394E0,3.310021073E-1,-1.421596850E0,2.446832324E0
1.028762454E1,2.223060813E0,-4.931699556E-1,-2.368927647E0,3.285884079E0
1.029759054E1,2.215826345E0,-6.907684225E-1,1.019540402E0,2.535056219E0
1.030755654E1,1.981046311E0,-2.718721390E-1,4.875326550E0,5.269465620E0
1.031752254E1,1.673307351E0,-1.635302496E-1,6.986949080E0,7.186386928E0
1.032748854E1,1.196761614E0,-6.531129384E-1,7.045994264E0,7.176686564E0
1.033745454E1,5.323895699E-1,-1.006105839E0,6.032425039E0,6.138879333E0
1.034742054E1,-6.292652886E-2,-1.497115248E0,4.874249785E0,5.099374941E0
1.035738554E1,-5.129350063E-1,-1.717509086E0,4.018965565E0,4.400570871E0
1.036735154E1,-4.613839066E-1,-1.032363930E0,3.711534169E0,3.879966015E0
1.037731754E1,-7.961247236E-2,-1.553201741E-1,3.924190385E0,3.928069842E0
1.038728354E1,1.750951651E-1,2.811341286E-2,4.110221305E0,4.114045194E0
1.039724954E1,7.462011963E-2,-3.620654404E-1,3.602622761E0,3.621539769E0
1.040721554E1,-3.530645290E-1,-1.052590034E0,2.517155002E0,2.751121525E0
1.041718154E1,-6.315308654E-1,-9.921222228E-1,1.410177677E0,1.836229511E0
1.042714754E1,-9.118838060E-1,-1.654224086E-1,4.784992915E-1,1.043004420E0
1.043711254E1,-1.106563050E0,7.681849730E-1,-1.253502703E-1,1.352886776E0
1.044707854E1,-8.943670097E-1,1.949707866E0,-5.131153929E-1,2.205570339E0
1.045704454E1,-6.472905734E-1,3.117123182E0,-4.671909226E-1,3.217718039E0
1.046701054E1,-8.337386924E-1,3.198484265E0,6.323807582E-2,3.305967461E0
1.047697654E1,-1.245321279E0,2.359471968E0,9.094054636E-1,2.818679009E0
1.048694254E1,-2.423121542E0,-3.058111328E-1,1.379750813E0,2.805129366E0
1.049690854E1,-4.094963581E0,-4.860417904E0,1.863088675E0,6.622951634E0
1.050687454E1,-5.839813077E0,-8.675181157E0,2.256666808E0,1.069835174E1
1.051683954E1,-7.446540231E0,-1.048346827E1,1.055207248E0,1.290222968E1
1.052680554E1,-6.695555427E0,-9.601957237E0,-2.673694906E-1,1.170895092E1
1.053677154E1,-3.509470768E0,-7.447915496E0,-7.105922377E-1,8.263944072E0
1.054673754E1,-1.290521425E-1,-5.084893683E0,-1.059216099E0,5.195645962E0
1.055670354E1,1.435278604E0,-5.623400025E0,-2.120830725E0,6.179043249E0
1.056666954E1,2.670973027E0,-6.318961410E0,-3.537491795E0,7.718628013E0
1.057663554E1,3.959956634E0,-6.132912363E0,-5.728367486E0,9.279443122E0
1.058660154E1,4.723042250E0,-5.140358031E0,-9.872034280E0,1.209080103E1
1.059656654E1,5.506145225E0,-3.195533175E0,-1.519062188E1,1.647070310E1
1.060653254E1,5.292300854E0,-6.889101774E-1,-1.384434608E1,1.483741770E1
1.061649854E1,4.322526397E0,1.814619058E0,-7.200267202E0,8.591910413E0
1.062646454E1,2.420171914E0,4.091331291E0,-4.543510510E0,6.575690958E0
1.063643054E1,7.128368376E-1,4.184544094E0,-4.526713214E0,6.205616662E0
1.064639654E1,-6.165273486E-1,3.810555596E0,-4.038757221E0,5.586770070E0
1.065636254E1,-1.154730805E0,3.635006395E0,-2.194223222E0,4.400146619E0
1.066632854E1,-1.894174228E0,3.686015165E0,-8.895515352E-2,4.145179951E0
1.067629354E1,-3.047457116E0,3.892441759E0,2.124188489E0,5.380545925E0
1.068625954E1,-4.464049188E0,4.131917399E0,3.222293250E0,6.883578309E0
1.069622554E1,-6.043017270E0,4.618387615E0,2.568694115E0,8.027811118E0
1.070619154E1,-7.346099099E0,5.471447262E0,7.156813619E-1,9.187715000E0
1.071615754E1,-7.868156054E0,6.531598331E0,-9.694706941E-1,1.027178319E1
1.072612354E1,-7.538271350E0,7.048742455E0,-2.206486003E0,1.055361955E1
1.073608954E1,-6.080082185E0,6.112061777E0,-2.590776710E0,9.002045462E0
1.074605554E1,-4.507451901E0,5.138222044E0,-3.079443725E0,7.496760771E0
1.075602054E1,-3.416716094E0,3.153067186E0,-3.329468620E0,5.718491308E0
1.076598654E1,-2.125464936E0,1.538865538E0,-2.910954452E0,3.919102468E0
1.077595254E1,-1.798232383E0,1.151157718E0,-2.587947827E0,3.355037667E0
1.078591854E1,-1.188194128E0,2.551198661E-1,-2.565536619E0,2.838814819E0
1.079588454E1,-6.160041690E-3,-3.402149802E-1,-1.943228274E0,1.972795049E0
1.080585054E1,1.706770382E0,-1.492164411E0,-8.010024709E-1,2.404417751E0
1.081581654E1,4.146954099E0,-3.961367567E0,1.386352319E0,5.900138478E0
1.082578254E1,7.561678339E0,-7.135556066E0,4.636129822E0,1.138370939E1
1.083574754E1,1.082099528E1,-8.918224769E0,8.696655056E0,1.650031760E1
1.084571783E1,1.297005169E1,-8.149821694E0,1.196624029E1,1.943792019E1
1.085568383E1,1.251494535E1,-3.386115568E0,1.164625493E1,1.742770465E1
1.086564983E1,1.008451040E1,2.463260046E0,8.593601974E0,1.347646077E1
1.087561583E1,7.360898986E0,5.291513819E0,5.164483058E0,1.043335218E1
1.088558183E1,5.036356530E0,4.769167426E0,7.669044328E-1,6.978394332E0
1.089554783E1,3.126941827E0,2.317657945E0,-3.157675377E0,5.012007315E0
1.090551383E1,1.553730475E0,1.064354047E0,-2.277287598E0,2.955159341E0
1.091547883E1,6.095580523E-1,4.312040877E-1,-2.458367096E0,2.569254126E0
1.092544483E1,-1.228736821E-1,-1.134804225E-1,-4.590239704E0,4.593286001E0
1.093541083E1,-1.262570419E0,-1.847220209E0,-6.560542048E0,6.931595670E0
1.094537683E1,-2.037165256E0,-7.144077213E0,-5.474372624E0,9.228035389E0
1.095534283E1,-1.738639900E0,-1.669500989E1,-1.390556175E0,1.684279877E1
1.096530883E1,-1.426187061E0,-2.191577123E1,-2.112938154E-1,2.196314375E1
1.097527483E1,-2.415764868E0,-1.292843004E1,-4.205403451E0,1.380817299E1
1.098524083E1,-2.945490446E0,-1.333109035E0,-5.350591747E0,6.251553863E0
1.099520683E1,-3.126134326E0,3.641092762E0,-4.485440642E0,6.568824102E0
1.100517183E1,-3.488093932E0,4.899442222E0,-3.334101661E0,6.876595615E0
1.101513783E1,-3.446401531E0,2.363045787E0,-2.042076624E0,4.650994070E0
1.102510383E1,-2.901684861E0,-7.913867247E-1,-8.672227728E-1,3.130198606E0
1.103506983E1,-2.419393357E0,-1.195477858E0,-6.009244922E-1,2.764731772E0
1.104503583E1,-2.409022443E0,-9.532984650E-1,-7.935151112E-1,2.709581762E0
1.105500183E1,-2.741093129E0,-1.056165606E0,-6.597547907E-1,3.010706514E0
1.106496783E1,-3.069232440E0,-1.458599639E0,-4.212117809E-1,3.424196262E0
1.107493383E1,-3.257392623E0,-1.994379424E0,2.906387776E-2,3.819555040E0
1.108489883E1,-3.457474695E0,-2.418573870E0,5.453508005E-1,4.254531505E0
1.109486483E1,-3.503908312E0,-2.592004040E0,1.378633410E0,4.571267711E0
1.110483083E1,-3.880807261E0,-2.068014581E0,1.945407824E0,4.808530015E0
1.111479683E1,-3.616605500E0,-1.203028952E0,1.892660092E0,4.255499527E0
1.112476283E1,-2.746267623E0,7.568051219E-3,2.018593037E0,3.408336981E0
1.113472883E1,-1.781133516E0,1.339497119E0,1.682345685E0,2.792306598E0
1.114469483E1,-7.376337098E-1,2.168655687E0,1.499334559E0,2.737731743E0
1.115466083E1,-8.439517316E-1,3.155047054E0,2.505381049E0,4.116249584E0
1.116462583E1,-1.072343975E0,3.297203976E0,4.924019238E0,6.022245521E0
1.117459183E1,-8.635179770E-1,2.485084194E0,7.867017016E0,8.295255480E0
1.118455783E1,-4.730721983E-1,2.030392426E0,9.167969874E0,9.402019056E0
1.119452383E1,-8.059305042E-1,2.539187311E0,4.007650618E0,4.812302947E0
1.120448983E1,-2.010983763E0,2.436262867E0,-1.254673900E0,3.399064437E0
1.121445583E1,-2.105530609E0,1.243611553E0,-3.585702965E0,4.340172184E0
1.122442183E1,-1.086144646E0,4.642250687E-1,-5.862763399E0,5.980569352E0
1.123438783E1,6.169522219E-1,3.826049548E-1,-1.156939094E1,1.159214489E1
1.124435383E1,1.877264665E0,3.963716394E-1,-1.623226358E1,1.634526274E1
1.125431883E1,1.491244059E0,1.338332938E0,-8.608555058E0,8.838674340E0
1.126428483E1,9.340201950E-1,2.715619442E0,-1.214506160E0,3.118013452E0
1.127425083E1,1.520986506E-1,3.266640580E0,2.811365844E0,4.312522763E0
1.128421683E1,-4.350404459E-1,2.859562688E0,6.077222897E0,6.730452964E0
1.129418283E1,-2.987754523E-1,1.991130711E0,8.201247371E0,8.444781035E0
1.130414883E1,2.074369919E-1,1.273063978E0,6.907453260E0,7.026850826E0
1.131411483E1,7.356434637E-1,8.768882203E-1,2.665788301E0,2.901125906E0
1.132408083E1,1.292082047E0,4.980962348E-1,-9.878128248E-1,1.700985024E0
1.133404583E1,1.758374106E0,5.861500400E-1,-6.538175279E-1,1.965433470E0
1.134401183E1,2.091726502E0,1.755796069E0,2.341146210E0,3.597096770E0
1.135397783E1,2.555629681E0,3.035020089E0,4.706782313E0,6.156004365E0
1.136394383E1,3.198704997E0,3.498446428E0,5.861867605E0,7.538722232E0
1.137390983E1,3.447238559E0,2.525422381E0,5.223626475E0,6.748887719E0
1.138387583E1,3.072799826E0,6.334218550E-1,2.741650369E0,4.166529583E0
1.139384183E1,2.163621819E0,-7.017974406E-1,1.228304712E0,2.585055413E0
1.140380783E1,1.264684626E0,-1.583471022E0,1.755350219E0,2.681056148E0
1.141377383E1,6.982981744E-1,-1.987707751E0,3.166290665E0,3.803156455E0
1.142373883E1,4.531293923E-1,-1.947385937E0,4.311529246E0,4.752570112E0
1.143370483E1,2.713380324E-1,-1.498424440E0,4.864812087E0,5.097577539E0
1.144367083E1,1.330189667E-1,-6.916566145E-1,5.047483782E0,5.096388471E0
1.145363683E1,1.135131669E-1,1.666433072E-1,5.116497883E0,5.120469297E0
1.146360283E1,3.160154377E-1,5.879895741E-1,4.780563065E0,4.826943206E0
1.147356883E1,7.025751203E-1,3.880218154E-1,3.778562848E0,3.862862919E0
1.148353483E1,8.618804643E-1,-3.493717200E-1,2.477871069E0,2.646647609E0
1.149350083E1,6.471382535E-1,-8.212595648E-1,1.160064197E0,1.561731133E0
1.150346583E1,4.651489288E-1,-4.940476227E-1,-1.253087550E-2,6.786778339E-1
1.151343183E1,3.085297957E-1,1.128875148E-1,-8.265676671E-1,8.894651956E-1
1.152339783E1,6.614280811E-2,7.002075827E-1,-1.359307193E0,1.530484098E0
1.153336383E1,-1.995084781E-1,1.257126222E0,-1.691566451E0,2.116971193E0
1.154332983E1,-2.168089092E-1,1.381514041E0,-1.372655509E0,1.959533183E0
1.155329583E1,-5.840026501E-1,1.512444309E0,-3.630360782E-2,1.621685800E0
1.156326183E1,-1.458663081E0,9.356901598E-1,7.095067021E-1,1.872595477E0
1.157322783E1,-2.854795161E0,-1.156190416E0,1.311562338E0,3.347659997E0
1.158319383E1,-4.527225722E0,-3.114622913E0,2.327632417E0,5.967790320E0
1.159315883E1,-6.511882689E0,-4.807676604E0,2.409254578E0,8.445287331E0
1.160312483E1,-7.378539451E0,-5.527765889E0,1.335012597E0,9.315648061E0
1.161309083E1,-6.775080484E0,-5.262361940E0,2.298821139E-1,8.581783878E0
1.162305683E1,-5.525980734E0,-6.404328420E0,2.077720374E-2,8.458860282E0
1.163302283E1,-2.983568976E0,-8.160130336E0,3.039701369E-1,8.693779890E0
1.164298883E1,3.762273967E-1,-7.207991958E0,5.016823322E-1,7.235218054E0
1.165295483E1,2.241814734E0,-6.303199655E0,3.798134941E-1,6.700769917E0
1.166292083E1,4.021700308E0,-7.586403290E0,-2.910036439E-1,8.591406833E0
1.167288683E1,5.435838304E0,-7.938554192E0,-3.027096527E0,1.008624281E1
1.168285183E1,6.076694893E0,-6.496280563E0,-8.437088968E0,1.226019381E1
1.169281783E1,5.859743897E0,-2.822918773E0,-1.410960736E1,1.553661767E1
1.170278383E1,4.800830099E0,1.185470933E0,-1.184433286E1,1.283516778E1
1.171274983E1,3.209511236E0,3.715090445E0,-7.545523067E0,9.002098519E0
1.172271583E1,1.576121803E0,3.891630750E0,-4.693558835E0,6.297495087E0
1.173268183E1,4.836484958E-1,3.472892926E0,-3.341692516E0,4.843739260E0
1.174264783E1,-4.841740143E-1,2.931732532E0,-2.623350379E0,3.963766810E0
1.175261383E1,-2.014940281E0,2.480525120E0,-2.092248366E0,3.819750310E0
1.176257983E1,-3.778611673E0,3.202003119E0,-1.706027493E0,5.238440603E0
1.177254483E1,-5.031299273E0,4.420720151E0,-1.723705380E0,6.915771777E0
1.178251083E1,-5.680120940E0,5.331129874E0,-1.799687024E0,7.995223137E0
1.179247683E1,-5.676957597E0,5.744385349E0,-2.061835535E0,8.335285020E0
1.180244283E1,-5.369223899E0,5.776475453E0,-2.188862495E0,8.184580194E0
1.181240883E1,-5.567015909E0,5.585368565E0,-2.052913269E0,8.148770522E0
1.182237483E1,-5.531969453E0,5.259722507E0,-1.368579707E0,7.755022714E0
1.183234083E1,-5.662757049E0,5.653238366E0,-7.012399086E-1,8.032288517E0
1.184230683E1,-5.526352032E0,5.936780378E0,-7.305177945E-1,8.143683705E0
1.185227267E1,-4.851737128E0,5.241326582E0,-1.409712238E0,7.279982561E0
1.186223767E1,-3.563455479E0,4.146773420E0,-2.110656278E0,5.860786182E0
1.187220367E1,-2.341144163E0,2.740204645E0,-2.352254750E0,4.303809928E0
1.188216967E1,-2.176085744E0,2.506512485E0,-2.465242837E0,4.134655518E0
1.189213567E1,-1.885314088E0,2.510455847E0,-1.903511939E0,3.671533123E0
1.190210167E1,-6.082946151E-2,5.742416006E-1,-7.001005787E-1,9.075210518E-1
1.191206767E1,2.512293920E0,-3.695149686E0,1.512639606E0,4.717396582E0
1.192203367E1,6.858005696E0,-1.037747345E1,5.508285306E0,1.360387461E1
1.193199967E1,1.406241916E1,-1.773534182E1,1.118061542E1,2.524480428E1
1.194196567E1,1.782653734E1,-1.848367901E1,1.215479195E1,2.841075132E1
1.195193167E1,1.410956409E1,-9.343937151E0,7.375901772E0,1.846057657E1
1.196189667E1,8.896649712E0,3.086951550E0,4.672027340E0,1.051225406E1
1.197186267E1,5.186508350E0,9.340655109E0,3.100796002E0,1.112486596E1
1.198182867E1,3.013325457E0,9.661721043E0,1.145394117E0,1.018532825E1
1.199179467E1,1.694337447E0,6.745685361E0,-7.903581995E-1,6.999979747E0
1.200176067E1,1.060221966E0,3.210399136E0,-8.726174140E-1,3.491732289E0
1.201172667E1,4.301840410E-1,1.169225029E0,-6.038992631E-1,1.384499837E0
1.202169267E1,-1.157794015E-1,-1.032984320E0,-1.752504086E0,2.037579949E0
1.203165867E1,-4.070088941E-1,-5.734228735E0,-2.322046280E0,6.199914060E0
1.204162467E1,-1.390087813E-2,-1.574882281E1,-2.361644209E0,1.592491685E1
1.205159067E1,-1.855442856E-1,-2.443642170E1,-2.755578144E0,2.459199754E1
1.206155567E1,-2.475053295E0,-1.523590271E1,-5.584563403E0,1.641480943E1
1.207152167E1,-3.906177453E0,-1.916544213E0,-6.642698936E0,7.940832020E0
1.208148767E1,-3.927243217E0,3.716780291E0,-5.321354499E0,7.586468791E0
1.209145367E1,-3.755330983E0,6.287943100E0,-3.690307022E0,8.201164865E0
1.210141967E1,-3.743077851E0,7.242499886E0,-1.895243391E0,8.369969170E0
1.211138567E1,-3.471506259E0,5.038841012E0,-7.902699065E-1,6.169748858E0
1.212135167E1,-3.206658964E0,2.184069532E0,-3.436934888E-2,3.879948800E0
1.213131767E1,-2.799192526E0,7.846320212E-2,-2.746103901E-1,2.813724602E0
1.214128367E1,-2.515834116E0,-2.602761748E0,-9.457090715E-1,3.741410919E0
1.215124867E1,-2.364084398E0,-5.427116597E0,-1.020821527E0,6.007043048E0
1.216121467E1,-2.413066085E0,-6.637018951E0,-6.981645656E-1,7.096502114E0
1.217118067E1,-2.551293971E0,-5.938130500E0,-1.545039028E-1,6.464856241E0
1.218114667E1,-2.610056149E0,-4.481396123E0,4.462521896E-1,5.205232496E0
1.219111267E1,-2.847462168E0,-3.090363400E0,7.386097562E-1,4.266606510E0
1.220107867E1,-3.127816570E0,-1.285364766E0,-6.902638078E-2,3.382331107E0
1.221104467E1,-2.417317303E0,3.808455276E-1,-5.061765021E-1,2.498935956E0
1.222101067E1,-1.202236362E0,1.488773026E0,6.865560883E-1,2.033021558E0
1.223097667E1,-7.686606440E-1,2.406719225E0,8.943386507E-1,2.680107878E0
1.224094267E1,-6.761481176E-1,3.360108322E0,3.128887780E0,4.640845069E0
1.225090767E1,-5.916262498E-1,3.679642285E0,6.495098841E0,7.488397554E0
1.226087367E1,-3.713417557E-1,3.244726970E0,7.562764751E0,8.237812725E0
1.227083967E1,-4.871775097E-1,3.281477889E0,5.755117328E0,6.642801708E0
1.228080567E1,-1.187702523E0,3.394620928E0,4.077381881E0,5.436831019E0
1.229077167E1,-1.353164985E0,2.520063992E0,2.411249063E0,3.741109467E0
1.230073767E1,-6.536464968E-1,2.252924590E0,6.166128641E-1,2.425517341E0
1.231070367E1,-4.014403713E-1,2.603697887E0,-9.887983730E-1,2.813915294E0
1.232066967E1,-3.226640508E-1,3.231132193E0,-2.271058852E0,3.962579419E0
1.233063567E1,-1.303730285E-1,3.672779993E0,-7.046815213E0,7.947572878E0
1.234060167E1,-4.810323054E-1,2.584865760E0,-1.619390702E1,1.640596073E1
1.235056667E1,-3.998691514E-1,7.651169389E-1,-1.201052477E1,1.204151172E1
1.236053267E1,-4.589424017E-1,7.005128074E-1,-2.841018536E0,2.961879917E0
1.237049867E1,-6.859947556E-1,1.588694340E0,3.436490208E0,3.847597102E0
1.238046467E1,-5.073225564E-1,1.581761296E0,7.684111433E0,7.861610108E0
1.239043067E1,3.219035473E-1,1.199754512E0,9.326721779E0,9.409079228E0
1.240039667E1,1.347940790E0,7.325918019E-1,8.182875420E0,8.325448052E0
1.241036267E1,1.844108906E0,8.484040940E-1,4.071430877E0,4.549403977E0
1.242032867E1,1.881587804E0,1.153962042E0,-1.247943462E-1,2.210785989E0
1.243029467E1,1.379055579E0,1.610941241E0,-9.180972035E-1,2.310806883E0
1.244026067E1,1.501347171E0,2.109542091E0,8.162828533E-1,2.714871794E0
1.245022567E1,2.251154053E0,1.969953851E0,3.412132169E0,4.537737176E0
1.246019167E1,1.980623850E0,1.126240393E0,4.601794094E0,5.134958339E0
1.247015767E1,1.068195376E0,5.258868814E-2,3.874503378E0,4.019400870E0
1.248012367E1,5.329193642E-1,-1.019882464E0,3.765868543E0,3.937756871E0
1.249008967E1,4.125146323E-1,-2.094677299E0,3.981496022E0,4.517759609E0
1.250005567E1,1.605075315E-1,-2.583434946E0,4.296511842E0,5.015965789E0
1.251002167E1,-2.834919817E-1,-2.156390567E0,4.738833826E0,5.214109129E0
1.251998767E1,-4.855451864E-1,-1.167006596E0,5.182230527E0,5.334151457E0
1.252995367E1,-3.905761716E-1,-9.206324100E-2,5.533005579E0,5.547537843E0
1.253991967E1,-2.424869567E-2,5.404347539E-1,5.682021870E0,5.707716729E0
1.254988467E1,5.168786609E-1,3.698919386E-1,5.329793200E0,5.367558025E0
1.255985067E1,9.278277013E-1,-1.541425449E-1,4.165196827E0,4.270068943E0
1.256981667E1,9.283127278E-1,-7.482734495E-1,2.687166891E0,2.939820330E0
1.257978267E1,4.349088836E-1,-1.809877551E0,1.305984387E0,2.273850854E0
1.258974867E1,5.010596037E-2,-1.773923022E0,-8.254397392E-2,1.776549184E0
1.259971467E1,-2.377244361E-1,-7.447312063E-1,-1.243459671E0,1.468785019E0
1.260968067E1,-3.762329516E-1,7.612016433E-1,-1.825068617E0,2.012921915E0
1.261964667E1,-4.857735202E-1,2.156382966E0,-1.749865823E0,2.819218652E0
1.262961267E1,-7.567367095E-1,2.810229145E0,-1.659676614E0,3.350308159E0
1.263957867E1,-1.157292324E0,1.758348963E0,-1.374420199E0,2.513990351E0
1.264954467E1,-1.670649207E0,-5.136749715E-1,-2.378162009E-1,1.763940842E0
1.265950967E1,-2.976323107E0,-4.560801312E0,1.206267725E0,5.578036363E0
1.266947567E1,-4.904294241E0,-7.680971478E0,1.947059078E0,9.318823097E0
1.267944167E1,-7.140226237E0,-8.653095054E0,1.420816101E0,1.130829798E1
1.268940767E1,-7.736921146E0,-7.318495563E0,2.764358908E-2,1.064993382E1
1.269937367E1,-6.151262680E0,-6.275672718E0,-5.466515136E-1,8.804597010E0
1.270933967E1,-3.216046962E0,-5.139578598E0,-6.917925623E-1,6.102196586E0
1.271930567E1,-6.614545763E-1,-2.848926603E0,-1.076449597E0,3.116512263E0
1.272927167E1,8.176877200E-1,-3.093367115E0,-1.146844519E0,3.398938903E0
1.273923767E1,2.485161377E0,-4.750002007E0,-2.368111230E0,5.860588446E0
1.274920367E1,3.651378599E0,-4.933398757E0,-4.984224510E0,7.906546840E0
1.275916867E1,4.566865459E0,-3.858613277E0,-8.586767163E0,1.046316046E1
1.276913467E1,5.461856659E0,-1.998127490E0,-1.311237642E1,1.434429528E1
1.277910067E1,5.199131320E0,6.930418199E-1,-1.178902522E1,1.290319298E1
1.278906667E1,4.266658298E0,4.085002849E0,-7.718933941E0,9.719751154E0
1.279903267E1,2.695455611E0,6.322655096E0,-5.051759266E0,8.530048071E0
1.280899867E1,7.885828386E-1,6.330126668E0,-3.680997670E0,7.364924329E0
1.281896467E1,-4.424547154E-1,5.582764215E0,-3.238765733E0,6.469360550E0
1.282893067E1,-1.291156140E0,4.116659675E0,-1.867530513E0,4.701238270E0
1.283889667E1,-2.855953202E0,3.032145597E0,7.630271441E-1,4.234688423E0
1.284885929E1,-5.298992407E0,3.281805918E0,2.001792232E0,6.546506149E0
1.285882529E1,-7.181153823E0,4.221193857E0,1.146582271E0,8.408454003E0
1.286879129E1,-7.620011331E0,4.983104183E0,-2.916965389E-1,9.109390038E0
1.287875629E1,-7.567527893E0,5.480485303E0,-1.555161728E0,9.472155276E0
1.288872229E1,-7.099801512E0,5.875299829E0,-2.565874588E0,9.566088124E0
1.289868829E1,-5.586028131E0,5.593605537E0,-3.092032488E0,8.488391961E0
1.290865429E1,-4.457331907E0,4.244189787E0,-2.763033929E0,6.746503626E0
1.291862029E1,-3.145345938E0,2.392660764E0,-2.265144393E0,4.555096676E0
1.292858629E1,-2.040793307E0,2.063728572E0,-1.804951857E0,3.417844956E0
1.293855229E1,-1.373329108E0,2.008743694E0,-1.278222392E0,2.748624484E0
1.294851829E1,-1.420620219E0,1.155877590E0,-1.116084072E0,2.144728063E0
1.295848429E1,2.438157365E-1,-2.824234396E-1,1.005370259E-1,3.864153286E-1
1.296845029E1,2.855921627E0,-2.651967822E0,2.079890568E0,4.417597361E0
1.297841629E1,5.876738829E0,-5.883592935E0,4.892386971E0,9.648221358E0
1.298838129E1,9.538671652E0,-8.510546953E0,8.314614943E0,1.524954058E1
1.299834729E1,1.349644026E1,-9.261756290E0,1.109047942E1,1.977201970E1
1.300831329E1,1.488373427E1,-6.454912097E0,9.927739534E0,1.901976468E1
1.301827929E1,1.352543192E1,-1.889727128E0,5.622678478E0,1.476898407E1
1.302824529E1,1.054591887E1,2.513739644E0,2.070687343E0,1.103734741E1
1.303821129E1,6.976288437E0,5.616130182E0,-5.516014740E-1,8.972947272E0
1.304817729E1,3.800894827E0,6.715048290E0,-5.558947921E-1,7.736129138E0
1.305814329E1,5.432741618E-1,4.153877202E0,-7.383466315E-1,4.253821620E0
1.306810929E1,-1.912247533E0,8.723197907E-1,-7.059401929E-1,2.217201840E0
1.307807529E1,-2.583926112E0,-4.892265934E-1,-5.787486345E-1,2.692761927E0
1.308804129E1,-2.872097949E0,-1.072514421E0,-1.486829996E0,3.407329930E0
1.309800729E1,-3.300925144E0,-2.937734115E0,-2.854996598E0,5.260930916E0
1.310797229E1,-2.908836298E0,-7.106374367E0,-5.868362693E0,9.664345086E0
1.311793829E1,-2.049997847E0,-1.352214228E1,-6.468800404E0,1.512931597E1
1.312790429E1,-1.494087706E0,-1.667247472E1,-4.921061132E0,1.744765182E1
1.313787029E1,-1.633435188E0,-1.140749206E1,-4.916564623E0,1.252883048E1
1.314783629E1,-1.653274937E0,-3.867231488E0,-3.825996339E0,5.685687767E0
1.315780229E1,-1.702180610E0,1.085325086E-1,-2.188873605E0,2.774953295E0
1.316776829E1,-2.166308907E0,6.031198293E-1,-1.585047432E0,2.751185775E0
1.317773429E1,-2.544761462E0,-5.543739313E-1,-1.849609966E0,3.194401099E0
1.318770029E1,-2.772989398E0,-1.061283674E0,-2.228688465E0,3.712525490E0
1.319766629E1,-3.151375587E0,-9.153009188E-1,-2.621872787E0,4.200376266E0
1.320763229E1,-3.744203147E0,-4.360876822E-1,-2.723931551E0,4.650702395E0
1.321759829E1,-3.831313212E0,-1.047966641E0,-2.410127859E0,4.646064066E0
1.322756329E1,-4.022045586E0,-1.999848910E0,-1.049317640E0,4.612733882E0
1.323752929E1,-4.223684186E0,-2.630314997E0,6.786480215E-1,5.021815232E0
1.324749529E1,-4.564879160E0,-2.892985958E0,1.654144417E0,5.651874313E0
1.325746129E1,-4.871740160E0,-2.544868466E0,1.715028697E0,5.757736632E0
1.326742729E1,-4.946899978E0,-1.604706940E0,1.250935190E0,5.348994542E0
1.327739329E1,-3.620908758E0,-9.387289578E-1,2.120930713E0,4.300062718E0
1.328735929E1,-1.766043314E0,1.474357885E-1,3.254753190E0,3.705949896E0
1.329732529E1,-1.163273514E0,1.660926164E0,2.628708767E0,3.319938369E0
1.330729129E1,-1.478575482E0,2.839948204E0,3.637621562E0,4.846006798E0
1.331725729E1,-1.852036561E0,3.643868435E0,6.970206163E0,8.080321191E0
1.332722329E1,-1.641690579E0,3.338902810E0,1.099310223E1,1.160567605E1
1.333718929E1,-1.326621257E0,3.359998394E0,1.080415881E1,1.139207447E1
1.334715429E1,-1.458861009E0,3.957835264E0,5.003944829E0,6.544631332E0
1.335712029E1,-1.848386144E0,3.235374933E0,-1.253002766E-1,3.728254612E0
1.336708629E1,-1.543865784E0,1.334240472E0,-3.518920161E0,4.067741178E0
1.337705229E1,-8.651683536E-1,9.606682956E-2,-9.519895073E0,9.559610208E0
1.338701829E1,6.940317535E-1,-3.843836778E-1,-2.081457212E1,2.082968659E1
1.339698429E1,1.465590862E0,7.839783025E-1,-1.565964926E1,1.574760914E1
1.340695029E1,4.239035466E-1,2.740909234E0,-4.220558265E0,5.050286102E0
1.341691629E1,-2.979264548E-1,3.627865775E0,2.737938556E0,4.554830161E0
1.342688229E1,-1.578277525E-1,2.938025306E0,6.955328507E0,7.552052499E0
1.343684829E1,5.143474013E-1,1.860183486E0,9.032001645E0,9.235902206E0
1.344681429E1,1.139904751E0,1.172393051E0,8.140775467E0,8.303379644E0
1.345678029E1,1.782120526E0,8.384427774E-1,4.541637647E0,4.950294171E0
1.346674629E1,2.090163249E0,4.265321624E-1,-1.351934731E-1,2.137519443E0
1.347671129E1,1.410996579E0,-4.017195028E-1,-2.377819362E0,2.793978315E0
1.348667729E1,7.661744079E-1,-6.530421871E-1,-7.509333479E-1,1.255941167E0
1.349664329E1,1.079513831E0,-3.154713178E-1,2.425523286E0,2.673581021E0
1.350660929E1,1.542355741E0,7.049923593E-1,4.476350561E0,4.786814160E0
1.351657529E1,1.907668432E0,2.093007334E0,5.197733835E0,5.919148213E0
1.352654129E1,2.631007600E0,2.676886316E0,5.564325020E0,6.711902433E0
1.353650729E1,3.171298513E0,2.437166262E0,4.961183556E0,6.372617666E0
1.354647329E1,2.978167318E0,1.536263527E0,3.681587069E0,4.978319952E0
1.355643929E1,2.301997932E0,4.798809886E-2,2.811689780E0,3.634156952E0
1.356640529E1,1.616969136E0,-1.386199999E0,2.915060366E0,3.610223894E0
1.357637129E1,8.673572588E-1,-2.182356298E0,3.630268396E0,4.323636924E0
1.358633729E1,2.134567370E-1,-2.125160589E0,4.250455078E0,4.756914933E0
1.359630329E1,-1.208920242E-1,-1.555276918E0,4.618314525E0,4.874662062E0
1.360626829E1,-2.738850430E-1,-9.369338626E-1,4.770388910E0,4.869236945E0
1.361623429E1,-1.942292829E-1,-6.891861659E-1,4.694377445E0,4.748671623E0
1.362620029E1,1.703937296E-1,-1.215846634E0,4.198857201E0,4.374667857E0
1.363616629E1,3.441960570E-1,-2.314540209E0,3.191274648E0,3.957246667E0
1.364613229E1,3.127473924E-1,-2.692476747E0,1.844439858E0,3.278597315E0
1.365609829E1,2.644131383E-1,-1.902232568E0,6.317068666E-1,2.021745933E0
1.366606429E1,-5.604117662E-2,-7.925210845E-1,-1.811812395E-1,8.148968797E-1
1.367603029E1,-4.560456911E-1,5.559784073E-1,-7.281227750E-1,1.023353525E0
1.368599629E1,-5.463685083E-1,1.763686886E0,-9.752524209E-1,2.088115721E0
1.369596229E1,-7.847489655E-1,2.180850055E0,-1.394361251E0,2.704844025E0
1.370592829E1,-7.832196262E-1,1.194831741E0,-1.074848630E0,1.787835409E0
1.371589429E1,-1.260568770E0,-4.396872282E-1,5.027555886E-1,1.426576905E0
1.372586029E1,-2.894464719E0,-3.272679584E0,1.402585944E0,4.588638687E0
1.373582529E1,-4.526538382E0,-5.499560675E0,1.883820563E0,7.367733522E0
1.374579129E1,-6.663864688E0,-6.427394516E0,1.955227053E0,9.462632069E0
1.375575729E1,-7.224896843E0,-5.931166466E0,-4.006222728E-1,9.356194112E0
1.376572329E1,-6.159035969E0,-5.398074061E0,-1.800298935E0,8.385344590E0
1.377568929E1,-4.330976501E0,-5.353271526E0,-2.352428120E0,7.276592027E0
1.378565529E1,-1.252489380E0,-3.921058032E0,-2.976747614E0,5.079808274E0
1.379562129E1,1.012750249E0,-3.162177148E0,-3.576279007E0,4.880040873E0
1.380558729E1,1.961026906E0,-3.530803165E0,-4.403278784E0,5.975036533E0
1.381555329E1,2.876092475E0,-3.362147246E0,-5.966359688E0,7.427879237E0
1.382551929E1,4.157949496E0,-2.441112548E0,-7.358745457E0,8.797653618E0
1.383548529E1,5.112693685E0,-4.199961448E-1,-8.356997901E0,9.805888404E0
1.384545129E1,5.020450934E0,2.835021340E0,-7.233185272E0,9.249932040E0
1.385542117E1,3.754680188E0,5.957370763E0,-5.886438190E0,9.178128584E0
1.386538717E1,2.183650579E0,7.116954904E0,-4.704170946E0,8.806168363E0
1.387535217E1,9.404139791E-1,6.416200022E0,-3.881948345E0,7.557878282E0
1.388531817E1,1.611985262E-1,5.383746044E0,-2.191449303E0,5.814908123E0
1.389528417E1,-1.072273808E0,4.533672570E0,3.528613383E-1,4.672094735E0
1.390525017E1,-2.882536399E0,4.179878601E0,1.258464358E0,5.231073862E0
1.391521617E1,-4.876334610E0,4.266875814E0,4.980979890E-1,6.498689872E0
1.392518217E1,-6.225304803E0,4.272535919E0,-8.059796208E-1,7.593325109E0
1.393514817E1,-6.935540360E0,4.091041853E0,-2.076086954E0,8.315556540E0
1.394511417E1,-7.276728317E0,3.997180594E0,-3.030258701E0,8.838025543E0
1.395508017E1,-6.697350522E0,3.555739785E0,-3.557633699E0,8.375831121E0
1.396504617E1,-5.221589305E0,2.663363460E0,-3.450173569E0,6.801631970E0
1.397501217E1,-4.151002126E0,1.719800609E0,-2.680427974E0,5.231942939E0
1.398497817E1,-3.291710517E0,1.299878139E0,-2.088973340E0,4.109604716E0
1.399494417E1,-2.282552431E0,1.264244038E0,-2.358196106E0,3.517022528E0
1.400491017E1,-2.044643552E0,1.142516702E0,-1.530366025E0,2.797844142E0
1.401487517E1,-1.526918068E0,6.054914600E-1,-8.304733148E-1,1.840593551E0
1.402484117E1,1.506495644E-1,-2.929402417E-1,2.233879039E-1,3.980093366E-1
1.403480717E1,2.869986227E0,-2.795835055E0,2.146353237E0,4.545365422E0
1.404477317E1,6.117055299E0,-6.190982231E0,3.978903367E0,9.569655089E0
1.405473917E1,1.063889544E1,-8.875988576E0,6.439714599E0,1.527871701E1
1.406470517E1,1.605905619E1,-9.461736327E0,9.939014136E0,2.112348792E1
1.407467117E1,1.672226961E1,-5.628663688E0,1.050940768E1,2.053688890E1
1.408463717E1,1.292134438E1,1.078976179E0,7.207856888E0,1.483504402E1
1.409460317E1,9.487845315E0,5.115338965E0,3.166706986E0,1.123449752E1
1.410456917E1,6.702168628E0,6.078093547E0,6.049172634E-1,9.067977194E0
1.411453517E1,4.170045046E0,4.917991928E0,-3.875359118E-1,6.459574628E0
1.412450117E1,1.329179999E0,3.337140459E0,-6.470335883E-1,3.649914845E0
1.413446717E1,-8.652974309E-1,1.560867441E0,-6.331458664E-1,1.893652687E0
1.414443317E1,-1.594883910E0,-3.001726627E-1,-4.641221577E-1,1.687947775E0
1.415439817E1,-1.879693160E0,-1.507580010E0,-1.042148661E0,2.625284307E0
1.416436417E1,-2.571309867E0,-4.491749788E0,-1.564555280E0,5.406966230E0
1.417433017E1,-3.466837257E0,-1.125325421E1,-2.250176983E0,1.198824371E1
1.418429617E1,-3.757981819E0,-1.856126805E1,-3.899712186E0,1.933522315E1
1.419426217E1,-4.201500435E0,-1.846885865E1,-6.754231067E0,2.010897768E1
1.420422817E1,-4.721789484E0,-7.867258506E0,-8.362653328E0,1.241462940E1
1.421419417E1,-4.192567059E0,-3.853975850E-1,-6.687669872E0,7.902599456E0
1.422416017E1,-3.643765232E0,3.147721077E0,-3.863727837E0,6.173618537E0
1.423412617E1,-3.423530146E0,3.871038026E0,-1.582309765E0,5.404553474E0
1.424409217E1,-3.170829566E0,1.427280782E0,-6.438024169E-1,3.536350113E0
1.425405817E1,-2.921829396E0,-3.066671652E-1,-7.049894357E-1,3.021281495E0
1.426402417E1,-2.643939887E0,-1.085685275E0,-1.546983812E0,3.249967624E0
1.427399017E1,-2.391598325E0,-1.708576294E0,-2.059263053E0,3.588807577E0
1.428395617E1,-2.499431507E0,-2.160473093E0,-1.861693530E0,3.792189954E0
1.429392217E1,-2.799461498E0,-2.708799250E0,-9.476588255E-1,4.009069131E0
1.430388717E1,-3.014139097E0,-3.105960263E0,4.506147972E-1,4.351445432E0
1.431385317E1,-3.296652291E0,-2.979734665E0,1.215372717E0,4.606936709E0
1.432381917E1,-3.590825711E0,-2.558343374E0,1.165499768E0,4.560431977E0
1.433378517E1,-3.904193785E0,-1.650408778E0,4.952281755E-1,4.267531979E0
1.434375117E1,-3.265192809E0,-5.126435226E-1,-4.629255250E-2,3.305515158E0
1.435371717E1,-1.809739849E0,5.691042370E-1,1.424157200E0,2.372185002E0
1.436368317E1,-8.263505892E-1,1.908927630E0,2.394084708E0,3.171514083E0
1.437364917E1,-1.023149011E0,3.137651587E0,3.522132913E0,4.826708158E0
1.438361517E1,-1.057934974E0,3.813883247E0,5.435396839E0,6.723724461E0
1.439358117E1,-7.691826542E-1,3.692169945E0,6.719733664E0,7.705749890E0
1.440354717E1,-1.071468354E0,3.817697386E0,7.427313416E0,8.419491810E0
1.441351317E1,-1.490361422E0,3.961414345E0,6.271192582E0,7.565833541E0
1.442347917E1,-1.760154583E0,3.453813461E0,2.694342594E0,4.720853058E0
1.443344517E1,-1.666478096E0,2.551362968E0,3.717659712E-2,3.047619454E0
1.444341117E1,-1.393432420E0,1.693319154E0,-2.965053768E0,3.687889304E0
1.445337617E1,-6.717073765E-1,1.544496406E0,-5.670445552E0,5.915286359E0
1.446334217E1,7.177079337E-1,1.347395537E0,-8.880979174E0,9.011235793E0
1.447330817E1,2.749597612E0,8.175220245E-1,-1.321219892E1,1.352001589E1
1.448327417E1,2.939916003E0,9.455257612E-1,-9.321883793E0,9.820114181E0
1.449324017E1,1.930498886E0,1.990461205E0,-2.506439395E0,3.737780116E0
1.450320617E1,9.532306373E-1,2.345967239E0,1.818712694E0,3.117679714E0
1.451317217E1,2.731573570E-1,1.737788984E0,5.016873608E0,5.316347081E0
1.452313817E1,-1.545331389E-1,9.731029844E-1,7.422903446E0,7.488010782E0
1.453310417E1,-6.091237503E-1,4.500163347E-1,6.432443587E0,6.476872466E0
1.454307017E1,-1.376709384E-1,-8.675864697E-2,2.984455706E0,2.988888793E0
1.455303617E1,5.887643667E-1,-3.782978958E-1,-2.596698770E-1,7.464457264E-1
1.456300217E1,8.953396940E-1,2.721568984E-1,-4.544211884E-1,1.040288980E0
1.457296817E1,1.140563148E0,1.060467988E0,1.699449960E0,2.305126203E0
1.458293417E1,1.489476738E0,1.574891403E0,3.313334105E0,3.959420005E0
1.459290017E1,2.081954343E0,1.728493665E0,3.942570523E0,4.781849701E0
1.460286617E1,2.448581488E0,1.435297900E0,4.379599315E0,5.218862091E0
1.461283117E1,2.297246192E0,7.964445662E-1,4.410384905E0,5.036184967E0
1.462279717E1,1.399921953E0,-2.049975336E-2,4.004148721E0,4.241863823E0
1.463276317E1,4.298832017E-1,-9.456631708E-1,3.607528574E0,3.754109857E0
1.464272917E1,-2.271490888E-1,-1.796144196E0,3.801178709E0,4.210307620E0
1.465269517E1,-6.460781533E-1,-2.216197643E0,4.269772525E0,4.853854797E0
1.466266117E1,-8.269927597E-1,-1.885349903E0,4.526435471E0,4.972633040E0
1.467262717E1,-8.826126444E-1,-7.599047309E-1,4.736365131E0,4.877459886E0
1.468259317E1,-6.908485293E-1,5.959640068E-1,5.073192819E0,5.154583414E0
1.469255917E1,-2.732786502E-1,1.634721867E0,5.205393687E0,5.462885707E0
1.470252517E1,2.849866031E-1,2.072552605E0,4.960622224E0,5.383722180E0
1.471249117E1,8.645120037E-1,1.967831311E0,4.266739866E0,4.777531806E0
1.472245717E1,1.179069402E0,1.305967430E0,3.034594996E0,3.507780263E0
1.473242317E1,1.016866470E0,-1.136347890E-2,1.635431427E0,1.925819955E0
1.474238917E1,7.076227292E-1,-9.232221419E-1,3.228367630E-1,1.207183758E0
1.475235517E1,3.817568528E-1,-6.294048178E-1,-7.774443313E-1,1.070657932E0
1.476232117E1,-2.858881707E-1,3.402711135E-1,-1.848107524E0,1.900794018E0
1.477228717E1,-9.248184317E-1,9.656010067E-1,-2.674301847E0,2.989910501E0
1.478225217E1,-7.854789904E-1,8.673479033E-1,-2.281731482E0,2.564287072E0
1.479221817E1,-4.861234760E-1,-2.273561168E-1,-4.806803030E-1,7.204584592E-1
1.480218417E1,-1.151907915E0,-3.006831831E0,1.547365635E0,3.572431933E0
1.481215017E1,-2.256759194E0,-6.701527773E0,2.254802423E0,7.422100142E0
1.482211617E1,-3.307139857E0,-8.268382763E0,2.658555295E0,9.293613065E0
1.483208217E1,-3.941499021E0,-7.643011354E0,2.016059731E0,8.832640258E0
1.484204817E1,-4.184752255E0,-6.973633801E0,1.420636591E0,8.256023749E0
1.485201008E1,-3.645681072E0,-6.739948073E0,-4.751087835E-1,7.677474771E0
1.486197608E1,-2.388043511E0,-6.723650129E0,-2.157446282E0,7.454179856E0
1.487194208E1,-5.418051220E-1,-6.226352039E0,-3.451669287E0,7.139680201E0
1.488190808E1,1.736647169E0,-5.382928019E0,-4.929685190E0,7.502909670E0
1.489187408E1,2.977343738E0,-4.923782426E0,-6.307219616E0,8.537518867E0
1.490184008E1,3.304658299E0,-3.535776222E0,-8.619934909E0,9.885633910E0
1.491180608E1,4.467730888E0,-1.739991045E0,-9.367431264E0,1.052316286E1
1.492177208E1,4.781933067E0,1.668404753E0,-7.074897636E0,8.700841042E0
1.493173808E1,4.168164581E0,5.253372431E0,-4.695756218E0,8.186674803E0
1.494170408E1,2.683770828E0,7.208327004E0,-3.079921442E0,8.285440250E0
1.495166908E1,7.424507922E-1,7.534489371E0,-2.597531413E0,8.004182200E0
1.496163508E1,-3.634170243E-1,6.548006203E0,-1.848609215E0,6.813649037E0
1.497160108E1,-1.823774629E0,4.848351590E0,-1.290924883E-1,5.181634096E0
1.498156708E1,-4.186431575E0,4.024101759E0,4.552022302E-1,5.824672813E0
1.499153308E1,-6.677496302E0,4.398490207E0,-1.739663601E-2,7.995997474E0
1.500149908E1,-8.208427752E0,4.922811788E0,-1.367562000E0,9.668639402E0
1.501146508E1,-9.081346298E0,5.092505588E0,-2.501652572E0,1.070806842E1
1.502143108E1,-9.077921584E0,5.133930187E0,-3.317822135E0,1.094412368E1
1.503139708E1,-7.730130774E0,4.909237477E0,-3.727927130E0,9.887010422E0
1.504136308E1,-5.966844422E0,3.702996064E0,-3.442993773E0,7.821100839E0
1.505132908E1,-4.852567725E0,2.814810439E0,-2.690739539E0,6.221788376E0
1.506129508E1,-3.891403001E0,2.726008190E0,-2.512346252E0,5.374571765E0
1.507126108E1,-3.501535512E0,2.387122867E0,-2.716037225E0,5.033484353E0
1.508122708E1,-2.921143225E0,1.632253173E0,-2.823533607E0,4.378318192E0
1.509119308E1,-2.105670942E0,1.000867903E0,-2.866104553E0,3.694609856E0
1.510115908E1,-1.266247879E0,4.482189006E-1,-2.986507494E0,3.274677219E0
1.511112508E1,-9.542173550E-2,-4.551297247E-1,-2.279543454E0,2.326492367E0
1.512109108E1,2.201711313E0,-2.673810096E0,4.473219377E-1,3.492404623E0
1.513105608E1,5.825555227E0,-6.331390836E0,4.292925160E0,9.615238429E0
1.514102208E1,1.017473177E1,-1.070856736E1,8.238784742E0,1.691378596E1
1.515098808E1,1.493477345E1,-1.269844735E1,1.271413426E1,2.336551375E1
1.516095408E1,1.629922122E1,-8.596321514E0,1.258381386E1,2.231398053E1
1.517092008E1,1.365538395E1,-1.452624954E0,7.494380395E0,1.564433980E1
1.518088608E1,1.051761484E1,3.841480350E0,3.384987640E0,1.169766363E1
1.519085208E1,7.746632202E0,6.510894510E0,-4.455578327E-1,1.012919442E1
1.520081808E1,5.321801811E0,6.890447803E0,-8.849790126E-1,8.751173252E0
1.521078408E1,2.164016360E0,5.367146968E0,4.600463560E-1,5.805245562E0
1.522075008E1,-1.514186048E0,3.299882001E0,-3.280504328E-1,3.645490049E0
1.523071608E1,-3.303728884E0,2.261000764E0,-4.717440033E-1,4.031040982E0
1.524068208E1,-3.337871361E0,1.229447258E0,-9.439639699E-1,3.680216537E0
1.525064808E1,-3.418565276E0,-1.216109759E0,-1.047818706E0,3.776696378E0
1.526061408E1,-3.483334299E0,-5.738102515E0,-1.862458638E0,6.966217804E0
1.527058008E1,-3.004526274E0,-1.267404692E1,-4.454719956E0,1.376601516E1
1.528054608E1,-2.082604115E0,-1.835695932E1,-5.838119139E0,1.937521175E1
1.529051208E1,-2.560875803E0,-1.451751263E1,-6.197513571E0,1.599141746E1
1.530047808E1,-3.019574668E0,-5.380483882E0,-6.443759703E0,8.921293466E0
1.531044308E1,-2.428143423E0,-5.045796275E-1,-4.540645375E0,5.173774396E0
1.532040908E1,-1.830748310E0,2.080234092E0,-1.742612059E0,3.273485916E0
1.533037508E1,-1.628182195E0,3.015472847E0,-4.963224819E-1,3.462714218E0
1.534034108E1,-1.812195241E0,1.556748077E0,-1.468810924E0,2.804446772E0
1.535030708E1,-2.556511441E0,1.971149021E-1,-2.286180044E0,3.435290996E0
1.536027308E1,-3.231817487E0,-1.287194944E0,-2.663649974E0,4.381386342E0
1.537023908E1,-3.827595260E0,-2.930365453E0,-2.331617002E0,5.354807654E0
1.538020508E1,-4.062629063E0,-3.743469322E0,-1.035405944E0,5.620550056E0
1.539017108E1,-4.260415226E0,-4.110146461E0,-3.819313556E-2,5.919957816E0
1.540013708E1,-4.539846060E0,-4.051128175E0,7.646170020E-1,6.132412323E0
1.541010308E1,-4.601988222E0,-3.597771910E0,6.742871681E-1,5.880214409E0
1.542006908E1,-4.524012970E0,-2.576340519E0,1.446712250E-1,5.208181409E0
1.543003508E1,-3.834290322E0,-9.958276033E-1,-2.684709598E-1,3.970583275E0
1.544000108E1,-2.811950273E0,7.712459904E-1,-3.831537160E-1,2.940865772E0
1.544996708E1,-1.216452698E0,1.751931059E0,4.763843536E-1,2.185397368E0
1.545993308E1,5.137103471E-1,2.198322705E0,2.423193755E0,3.311855826E0
1.546989908E1,7.719757229E-2,3.422988110E0,2.917920824E0,4.498562993E0
1.547986508E1,-3.363122562E-1,3.820437976E0,3.728540795E0,5.348912854E0
1.548983008E1,-6.280263367E-1,3.494637551E0,5.957432744E0,6.935265935E0
1.549979608E1,-1.038088062E0,3.031599467E0,7.734076476E0,8.371628341E0
1.550976208E1,-1.676991389E0,2.834412060E0,6.147361418E0,6.973969046E0
1.551972808E1,-1.951974539E0,2.658015597E0,2.281981743E0,4.010323203E0
1.552969408E1,-1.541296518E0,2.163193218E0,-4.206089330E-1,2.689221398E0
1.553966008E1,-8.309139025E-1,1.971294032E0,-2.115479646E0,3.008599709E0
1.554962608E1,2.668163440E-1,2.165510470E0,-3.827395577E0,4.405630881E0
1.555959208E1,8.100241399E-1,3.003185508E0,-6.631512043E0,7.324767183E0
1.556955808E1,3.403491738E-1,3.084795097E0,-1.167516473E1,1.208061546E1
1.557952408E1,2.143267661E-1,2.028511961E0,-9.303861505E0,9.524843077E0
1.558949008E1,4.178986754E-3,1.754964595E0,-2.064811768E0,2.709864541E0
1.559945608E1,4.209352076E-2,2.046154180E0,3.116335562E0,3.728279245E0
1.560942208E1,5.362224197E-1,1.570638723E0,6.116449528E0,6.337617479E0
1.561938808E1,1.135187583E0,7.213686562E-1,7.474881685E0,7.594924607E0
1.562935408E1,1.945483838E0,-3.814015979E-1,5.693700514E0,6.028980020E0
1.563932008E1,2.609447747E0,-1.087685022E0,1.552750628E0,3.225416371E0
1.564928608E1,2.909270746E0,-1.043508139E0,-8.734225756E-1,3.211795838E0
1.565925208E1,2.923221033E0,1.033939755E-1,2.171005391E-1,2.933094640E0
1.566921808E1,2.794319456E0,1.499718429E0,3.113339157E0,4.444126156E0
1.567918408E1,2.852796875E0,2.369367796E0,5.314213879E0,6.480217814E0
1.568914908E1,3.009967985E0,2.556038986E0,6.242451763E0,7.386572045E0
1.569911508E1,2.946899917E0,1.847406151E0,5.691620075E0,6.670207469E0
1.570908108E1,2.377598629E0,5.711057389E-1,3.748945824E0,4.475905696E0
1.571904708E1,1.620188321E0,-1.048099372E0,2.609066508E0,3.245111790E0
1.572901308E1,8.553969985E-1,-2.269799654E0,2.740021335E0,3.659427743E0
1.573897908E1,1.440481310E-1,-2.807202626E0,3.296587972E0,4.332277543E0
1.574894508E1,-2.248148438E-1,-2.701954499E0,3.745681323E0,4.623984040E0
1.575891108E1,-1.117308625E-1,-1.892938419E0,3.903491242E0,4.339693943E0
1.576887708E1,3.694086662E-1,-4.582661712E-1,4.010575980E0,4.053540469E0
1.577884308E1,1.067514248E0,9.096086544E-1,4.247125089E0,4.472700090E0
1.578880908E1,1.653223335E0,1.787585626E0,4.223572212E0,4.875158664E0
1.579877508E1,2.015081199E0,1.817711066E0,3.625650850E0,4.528793420E0
1.580874108E1,2.032383110E0,1.298363711E0,2.472830184E0,3.454159601E0
1.581870708E1,1.390971035E0,2.890278697E-3,1.180142220E0,1.824155814E0
1.582867308E1,8.036509672E-1,-8.259882081E-1,3.519497573E-2,1.152974450E0
1.583863908E1,1.315345779E-1,-5.636622334E-1,-1.009739299E0,1.163868511E0
1.584860467E1,-6.053408942E-1,1.672198427E-1,-1.630273890E0,1.747052670E0
1.585857067E1,-1.294416255E0,5.445968020E-1,-2.186019871E0,2.598226702E0
1.586853667E1,-1.703334265E0,-1.259531182E-1,-1.964920860E0,2.603483396E0
1.587850167E1,-1.698862022E0,-1.361901310E0,-4.103751361E-2,2.177749165E0
1.588846767E1,-2.484762597E0,-4.102481931E0,2.707297392E0,5.507618571E0
1.589843367E1,-4.040654057E0,-6.243064551E0,3.065481158E0,8.043625733E0
1.590839967E1,-5.703641950E0,-7.186786446E0,2.300913858E0,9.459156172E0
1.591836567E1,-6.590066979E0,-5.846788221E0,9.451874998E-1,8.860434227E0
1.592833167E1,-5.609052127E0,-4.161967995E0,-7.825705853E-1,7.028218841E0
1.593829767E1,-4.026111155E0,-4.056636837E0,-1.819709937E0,5.998101175E0
1.594826367E1,-2.327999330E0,-4.374664557E0,-2.312574083E0,5.468571089E0
1.595822967E1,-3.283913255E-1,-3.763003115E0,-2.179884680E0,4.361184532E0
1.596819567E1,1.690935537E0,-3.548975726E0,-2.142364851E0,4.477077043E0
1.597816167E1,3.264554586E0,-4.165022580E0,-3.143521022E0,6.155197328E0
1.598812767E1,4.647005350E0,-4.523290839E0,-5.251107219E0,8.344396070E0
1.599809367E1,5.610590529E0,-3.111799877E0,-8.582330296E0,1.071533564E1
1.600805967E1,5.859865519E0,-4.057850718E-2,-9.682759325E0,1.131792820E1
1.601802567E1,4.689010578E0,3.876639658E0,-7.786009106E0,9.881148366E0
1.602799167E1,2.959030259E0,6.622834775E0,-5.573455448E0,9.147743228E0
1.603795767E1,1.110332458E0,6.775398572E0,-4.073722401E0,7.983362586E0
1.604792367E1,-1.927144338E-1,5.691896648E0,-3.178282135E0,6.521986172E0
1.605788967E1,-1.665596336E0,3.750975392E0,-1.538648606E0,4.383088760E0
1.606785567E1,-3.899001750E0,2.085794794E0,-2.379869395E-1,4.428249355E0
1.607782067E1,-6.087360799E0,2.569817365E0,-2.229362065E-1,6.611325385E0
1.608778667E1,-7.151264026E0,3.678111484E0,-7.506842566E-1,8.076670608E0
1.609775267E1,-7.288575361E0,4.282620027E0,-1.769860961E0,8.636930757E0
1.610771867E1,-6.987037373E0,4.655879962E0,-2.869076108E0,8.872852258E0
1.611768467E1,-6.066811345E0,4.686353896E0,-3.383018005E0,8.379315220E0
1.612765067E1,-4.695801242E0,3.848726805E0,-3.338253769E0,6.928721783E0
1.613761667E1,-3.854284291E0,2.925723349E0,-2.937869770E0,5.660957807E0
1.614758267E1,-3.314730712E0,2.552747004E0,-2.474375018E0,4.860708662E0
1.615754867E1,-2.770363414E0,2.149827653E0,-2.305706820E0,4.196779280E0
1.616751467E1,-2.248489330E0,1.827609233E0,-2.308788595E0,3.704910870E0
1.617748067E1,-1.652777192E0,1.718992524E0,-1.975224531E0,3.096468907E0
1.618744667E1,-3.871999893E-1,1.527942939E0,-4.436273745E-1,1.637479375E0
1.619741267E1,-1.864579131E-1,6.910438263E-1,4.247198179E-1,8.322830330E-1
1.620737867E1,1.969162430E0,-1.699572752E0,1.274903220E0,2.896813151E0
1.621734467E1,5.108607066E0,-4.571066099E0,2.754442907E0,7.387791765E0
1.622731067E1,8.279135792E0,-7.133051704E0,4.782642919E0,1.192888047E1
1.623727667E1,1.189671924E1,-8.642648419E0,6.856433380E0,1.622461029E1
1.624724267E1,1.547512634E1,-7.991688425E0,8.821694840E0,1.952354781E1
1.625720867E1,1.493362505E1,-3.661175024E0,8.378634937E0,1.751053635E1
1.626717467E1,1.140326920E1,1.187570084E0,5.980416394E0,1.293098030E1
1.627714067E1,7.973170878E0,4.363540814E0,3.617508602E0,9.782551342E0
1.628710567E1,4.576491145E0,5.136830406E0,1.456634974E0,7.032288623E0
1.629707167E1,8.181045534E-1,3.899322762E0,2.233744553E-1,3.990477316E0
1.630703767E1,-2.835692015E0,2.950461164E0,-5.079125404E-2,4.092548111E0
1.631700367E1,-4.430601068E0,1.079805899E0,4.375021237E-1,4.581224150E0
1.632696967E1,-4.013982568E0,-1.710803499E0,2.045888132E-1,4.368153071E0
1.633693567E1,-2.973508549E0,-2.679834482E0,-1.351145357E0,4.224791086E0
1.634690167E1,-2.270570171E0,-4.330489427E0,-3.583314085E0,6.062076164E0
1.635686767E1,-1.537983924E0,-9.320264699E0,-7.860476321E0,1.228901203E1
1.636683367E1,-3.569750006E-1,-1.491931809E1,-7.383353464E0,1.665014690E1
1.637679967E1,-1.883603047E-1,-1.463967851E1,-4.408376679E0,1.529017499E1
1.638676567E1,-1.059950217E0,-7.412981890E0,-4.827818508E0,8.909748959E0
1.639673167E1,-1.302584816E0,-1.369867557E0,-3.627208548E0,4.090220798E0
1.640669767E1,-1.421203771E0,1.136597566E0,-1.782206480E0,2.547142345E0
1.641666367E1,-1.691692459E0,-4.664148510E-2,-1.264989558E0,2.112864734E0
1.642662967E1,-2.095613877E0,-1.676873860E0,-1.522621680E0,3.085754405E0
1.643659567E1,-2.751614609E0,-1.810478060E0,-1.897445745E0,3.801251652E0
1.644656167E1,-3.624633434E0,-1.461724976E0,-2.019021930E0,4.398983632E0
1.645652767E1,-4.224717974E0,-1.213096104E0,-1.606566062E0,4.679839594E0
1.646649367E1,-4.544747781E0,-1.022630655E0,-9.720183259E-1,4.758710485E0
1.647645967E1,-4.880967359E0,-1.110583888E0,-5.187915775E-1,5.032532527E0
1.648642567E1,-5.168080266E0,-1.509891415E0,1.642532578E-1,5.386632051E0
1.649639067E1,-5.243530397E0,-1.447213356E0,1.037270037E0,5.537595747E0
1.650635667E1,-4.979109950E0,-1.057076603E0,1.288817839E0,5.250714071E0
