"Time (s)","Linear Acceleration x (m/s^2)","Linear Acceleration y (m/s^2)","Linear Acceleration z (m/s^2)","Absolute acceleration (m/s^2)"
6.170083336E-3,7.769761156E-1,3.708918124E0,2.754041788E0,4.684496954E0
1.613508333E-2,9.039770548E-1,3.586366332E0,2.500958800E0,4.464750038E0
2.610008333E-2,9.643390314E-1,3.279462939E0,2.340310058E0,4.142689718E0
3.606608334E-2,1.043116960E0,2.876441261E0,2.290312271E0,3.821980850E0
4.603208333E-2,1.123411949E0,2.484212959E0,2.237757789E0,3.527170021E0
5.599708333E-2,1.223786568E0,2.056082168E0,2.230616877E0,3.271204533E0
6.596308333E-2,1.327024715E0,1.564817820E0,2.218721302E0,3.021981737E0
7.592908333E-2,1.351625998E0,1.057523330E0,2.181371042E0,2.775541038E0
8.589408334E-2,1.387407888E0,5.545961255E-1,2.094865287E0,2.573118358E0
9.586008333E-2,1.455991342E0,1.370680904E-1,1.937905554E0,2.427792492E0
1.058260833E-1,1.480024714E0,-2.310989195E-1,1.746127698E0,2.300617700E0
1.157910833E-1,1.522075550E0,-7.600386322E-1,1.191915150E0,2.077266094E0
1.257570833E-1,1.462329870E0,-1.660222744E0,1.107221155E0,2.474002202E0
1.357230833E-1,1.394663259E0,-2.637815221E0,9.141186118E-1,3.120699855E0
1.456890833E-1,1.352285564E0,-3.646269886E0,3.140960526E-1,3.901617185E0
1.556540833E-1,1.187637327E0,-4.413564329E0,-3.639581841E-1,4.585029778E0
1.656200833E-1,1.183775533E0,-4.973904759E0,-3.559267411E-1,5.125206036E0
1.755860833E-1,1.317616253E0,-5.264436532E0,-3.599192199E-1,5.438744932E0
1.855510833E-1,1.248478629E0,-4.878458903E0,-5.848861644E-1,5.069531732E0
1.955170833E-1,1.273306053E0,-4.446553735E0,-8.454325390E-1,4.701904358E0
2.054830833E-1,1.215609822E0,-3.845810798E0,-1.007295163E0,4.157236039E0
2.154480833E-1,1.184107363E0,-3.449615160E0,-1.184355869E0,3.834664760E0
2.254140833E-1,1.142121723E0,-3.531501907E0,-1.639772108E0,4.057684107E0
2.353800833E-1,1.035189013E0,-3.949421121E0,-2.233490199E0,4.653817997E0
2.453450833E-1,9.639319190E-1,-4.209652038E0,-2.850580196E0,5.174566888E0
2.553110833E-1,8.907315034E-1,-4.184776813E0,-3.560426036E0,5.566182996E0
2.652770833E-1,6.421792299E-1,-3.564308880E0,-5.397448994E0,6.499934430E0
2.752420833E-1,-7.502211571E-2,-1.912220782E0,-7.551686032E0,7.790390142E0
2.852080833E-1,-7.211651731E-1,-1.483959013E0,-7.096035905E0,7.285323543E0
2.951740833E-1,-7.853497669E-1,-1.489447795E0,-5.439019189E0,5.693694646E0
3.051390833E-1,-3.052863452E-1,-3.638938648E-1,-3.810314691E0,3.839806837E0
3.151050833E-1,3.180268434E-1,1.101897265E0,-2.343633031E0,2.609201877E0
3.250710833E-1,7.279763022E-1,1.970080150E0,-1.261844341E0,2.450187020E0
3.350360833E-1,8.812274390E-1,2.218997290E0,-5.559709521E-1,2.451451503E0
3.450020833E-1,6.477682909E-1,2.142276558E0,-1.676256394E-1,2.244337534E0
3.549680833E-1,8.438672394E-2,1.658677910E0,5.606310368E-3,1.660832610E0
3.649330833E-1,-5.636837219E-1,8.381299514E-1,9.113017157E-2,1.014152780E0
3.748990833E-1,-1.152798154E0,8.337544799E-2,-1.860502160E-1,1.170687718E0
3.848650833E-1,-1.767292864E0,-4.965964240E-1,-5.357979119E-1,1.912331425E0
3.948300833E-1,-2.427903103E0,-6.250796324E-1,-8.664263821E-1,2.652570960E0
4.047960833E-1,-3.061876642E0,-4.774333441E-1,-1.197860599E0,3.322333696E0
4.147620833E-1,-3.629426689E0,-2.288670373E-1,-1.292975209E0,3.859650646E0
4.247270833E-1,-4.269012972E0,3.017987734E-1,-1.113491124E0,4.422150691E0
4.346930833E-1,-4.790411530E0,8.930984563E-1,-8.445249049E-1,4.945592967E0
4.446590833E-1,-4.967951708E0,1.375958601E0,-3.897262788E-1,5.169689819E0
4.546240833E-1,-4.778319488E0,1.463751036E0,2.138759458E-1,5.002064289E0
4.645900833E-1,-4.306536309E0,1.275482971E0,5.599719094E-1,4.526221418E0
4.745560833E-1,-3.623596138E0,1.065913500E0,6.486982906E-1,3.832418301E0
4.845210833E-1,-3.091524657E0,1.120773831E0,7.392988506E-1,3.370492765E0
4.944870833E-1,-2.777522745E0,1.513942950E0,9.834926096E-1,3.312689778E0
5.044530833E-1,-2.477215011E0,2.155106519E0,1.273733777E0,3.521856904E0
5.144180833E-1,-2.117953457E0,2.608923544E0,1.432681856E0,3.653051629E0
5.243840833E-1,-1.737702152E0,2.807511359E0,1.561085834E0,3.652220939E0
5.343500833E-1,-1.518183351E0,3.156746839E0,1.848018062E0,3.960442154E0
5.443160833E-1,-1.094013756E0,3.371136171E0,1.871296120E0,4.007889014E0
5.542810833E-1,-6.346781293E-1,3.377054722E0,1.816234059E0,3.886646509E0
5.642470833E-1,-3.409457360E-1,3.266683849E0,1.616337344E0,3.660602925E0
5.742130833E-1,-7.092994183E-2,2.978233684E0,1.329737531E0,3.262377789E0
5.841780833E-1,3.285826756E-1,2.608527687E0,1.116828422E0,2.856516934E0
5.941440833E-1,7.696396141E-1,2.137829751E0,9.411307016E-1,2.459347104E0
6.041100833E-1,1.016677459E0,2.129358889E0,8.148811296E-1,2.496364074E0
6.140750833E-1,6.768706141E-1,3.320038522E0,1.663906198E0,3.774836878E0
6.240410833E-1,1.060955061E0,3.361884121E0,1.669417491E0,3.900621136E0
6.340070833E-1,1.119583776E0,3.241049071E0,1.666246254E0,3.812380292E0
6.439720833E-1,7.692767943E-1,3.412273087E0,2.213983010E0,4.139699890E0
6.539380833E-1,5.787620831E-1,2.955901414E0,2.313515777E0,3.797982881E0
6.639040833E-1,5.490130578E-1,2.156844311E0,2.008040567E0,2.997602315E0
6.738690833E-1,4.238326491E-1,1.685750518E0,1.809949764E0,2.509443579E0
6.838350833E-1,2.394532751E-1,1.374849384E0,1.601313508E0,2.124088900E0
6.938010833E-1,5.302986056E-3,1.089802884E0,1.405852784E0,1.778797486E0
7.037660833E-1,-1.619778138E-1,8.655060303E-1,9.076363885E-1,1.264571593E0
7.137320833E-1,4.232068509E-2,1.149825722E-1,1.071022797E0,1.078008285E0
7.236980833E-1,1.371499515E-1,-7.576517987E-1,8.041675687E-1,1.113342641E0
7.336630833E-1,-1.618083908E-1,-1.329744548E0,5.698512188E-1,1.455724194E0
7.436290833E-1,-5.211254936E-1,-2.196126491E0,2.679816940E-1,2.272962281E0
7.535950833E-1,-6.515923700E-1,-3.026472629E0,-4.196885812E-1,3.124139513E0
7.635600833E-1,-1.303289697E0,-3.029358814E0,-5.881281531E-1,3.349846800E0
7.735260833E-1,-1.651326206E0,-2.825248303E0,-6.723526168E-1,3.340802936E0
7.834920833E-1,-1.063933779E0,-2.708401639E0,-9.316950497E-1,3.055396895E0
7.934570833E-1,1.216083446E-1,-2.563136337E0,-1.103888242E0,2.793389647E0
8.034230833E-1,1.390671804E0,-2.861248441E0,-1.358718378E0,3.459310096E0
8.133890833E-1,2.945283455E0,-4.182692866E0,-2.413715419E0,5.656468541E0
8.233540833E-1,5.111155282E0,-5.682168050E0,-4.196078604E0,8.718831213E0
8.333200833E-1,6.435603422E0,-6.648819802E0,-5.799681298E0,1.092062724E1
8.432860833E-1,4.548579462E0,-6.072472619E0,-5.737324836E0,9.512170893E0
8.532520833E-1,4.914711202E-1,-4.441880055E0,-4.666038914E0,6.460941219E0
8.632170833E-1,-1.781240813E0,-4.188726023E0,-4.718863245E0,6.556364454E0
8.731830833E-1,-2.925264927E0,-2.615265434E0,-4.108100520E0,5.680957496E0
8.831490833E-1,-2.679651464E0,5.468631828E-1,-1.651992204E0,3.195100867E0
8.931140833E-1,-7.891629555E-1,2.050593386E0,-4.420562276E-1,2.241232945E0
9.030800833E-1,-4.887504838E-1,4.016771105E0,4.662394345E-2,4.046665410E0
9.130460833E-1,-6.409330420E-1,4.787272160E0,-3.245789409E-3,4.829987623E0
9.230110833E-1,-7.052921753E-1,4.726234245E0,-5.817236978E-1,4.813847697E0
9.329770833E-1,-8.397268260E-1,3.777138759E0,-1.133887382E0,4.032073777E0
9.429430833E-1,-8.017386353E-1,2.016408809E0,-1.283573763E0,2.521160632E0
9.529080833E-1,-1.265298876E0,-2.031825578E-1,-1.353866651E0,1.864194010E0
9.628740833E-1,-1.388502487E0,-2.858413126E0,-1.405107556E0,3.474592350E0
9.728400833E-1,-1.269898588E0,-4.904973688E0,-1.720816271E0,5.350945518E0
9.828050833E-1,-1.225944629E0,-4.990216151E0,-1.738094501E0,5.424589382E0
9.927710833E-1,-1.048427694E0,-4.135160265E0,-5.951699549E-1,4.307316835E0
1.002737083E0,-8.932194936E-1,-3.454179497E0,2.730170238E-1,3.578230758E0
1.012706458E0,-7.816918950E-1,-2.914648722E0,8.345853692E-1,3.130934706E0
1.022672458E0,-6.427179046E-1,-2.482414355E0,1.294672363E0,2.872567469E0
1.032638458E0,-5.042599310E-1,-2.094477324E0,1.563882850E0,2.662112490E0
1.042603458E0,-3.343258108E-1,-1.796433633E0,1.957153711E0,2.677573191E0
1.052569458E0,-2.804849415E-1,-1.408210673E0,2.336919550E0,2.742794576E0
1.062535458E0,-2.808322661E-1,-9.464139533E-1,2.786446473E0,2.956154610E0
1.072500458E0,-2.996670248E-1,-2.605589461E-1,3.246957098E0,3.271149902E0
1.082466458E0,-3.375100583E-1,6.220922899E-1,3.513381386E0,3.583958791E0
1.092432458E0,-4.299637471E-1,1.428402863E0,3.597990012E0,3.894962861E0
1.102397458E0,-4.667298697E-1,2.055874591E0,3.527426690E0,4.109403383E0
1.112363458E0,-5.462661821E-1,2.573294705E0,3.431127434E0,4.323527246E0
1.122329458E0,-5.469280869E-1,2.998464466E0,3.299962108E0,4.492178691E0
1.132294458E0,-4.634840803E-1,3.377464027E0,3.187375140E0,4.667059141E0
1.142260458E0,-3.474807304E-1,3.758161620E0,3.144929909E0,4.912749307E0
1.152226458E0,-2.306175475E-1,3.993958778E0,3.183909495E0,5.112941506E0
1.162192458E0,-1.653095573E-1,4.171920540E0,3.192548756E0,5.255912462E0
1.172157458E0,-3.176426813E-2,4.014477827E0,3.254863703E0,5.168285878E0
1.182123458E0,8.846822664E-2,3.712460368E0,3.229193841E0,4.921166678E0
1.192089458E0,1.774360979E-1,3.305477201E0,3.220498154E0,4.618362422E0
1.202054458E0,2.367230639E-1,2.787750694E0,3.194600544E0,4.246535574E0
1.212020458E0,2.928779688E-1,2.176885643E0,3.078477180E0,3.781749642E0
1.221986458E0,3.732862473E-1,1.577284083E0,2.994875445E0,3.405355581E0
1.231951458E0,4.384296383E-1,1.149529268E0,3.018916272E0,3.259983672E0
1.241917458E0,5.423638965E-1,7.607783049E-1,3.014798955E0,3.156256480E0
1.251883458E0,5.978881793E-1,4.016762334E-1,2.944287674E0,3.031112663E0
1.261848458E0,6.569659612E-1,-2.793039501E-2,2.587945780E0,2.670177474E0
1.271814458E0,7.694093800E-1,-7.227988851E-1,2.284701868E0,2.516801869E0
1.281780458E0,8.597757590E-1,-1.812926289E0,2.138486101E0,2.932411787E0
1.291745458E0,8.953655680E-1,-2.897168471E0,1.680445340E0,3.466866192E0
1.301711458E0,9.055324142E-1,-4.010788234E0,1.038206468E0,4.240788120E0
1.311677458E0,9.566777171E-1,-5.024967324E0,4.692744318E-1,5.136705885E0
1.321642458E0,1.031979914E0,-5.120298573E0,5.322819811E-1,5.250310860E0
1.331608458E0,1.390501942E0,-5.034480743E0,8.197384116E-1,5.286914324E0
1.341574458E0,1.503394866E0,-4.573627179E0,7.089813298E-1,4.866304165E0
1.351539458E0,1.589825191E0,-4.255947368E0,4.740612549E-1,4.567862324E0
1.361505458E0,1.617018253E0,-3.855906601E0,2.555192310E-1,4.189039726E0
1.371471458E0,1.618626237E0,-3.485266219E0,7.922567904E-2,3.843606148E0
1.381436458E0,1.608092770E0,-3.524610379E0,-3.547798097E-1,3.890335383E0
1.391402458E0,1.562987933E0,-4.206881627E0,-1.007771711E0,4.599607389E0
1.401368458E0,1.521967084E0,-5.102651092E0,-1.626259777E0,5.567598480E0
1.411333458E0,1.518737082E0,-5.566711269E0,-1.979965453E0,6.100418008E0
1.421299458E0,1.534293892E0,-5.797033094E0,-2.144688242E0,6.368621365E0
1.431265458E0,1.584390497E0,-5.979260985E0,-2.278707595E0,6.591992375E0
1.441231458E0,1.616163097E0,-5.739203546E0,-2.246230112E0,6.371498271E0
1.451196458E0,1.681912406E0,-4.502555442E0,-1.937775161E0,5.182355394E0
1.461162458E0,1.809021226E0,-2.322655560E0,-1.358696744E0,3.242428640E0
1.471128458E0,1.908102880E0,-3.331041813E-2,-7.567460650E-1,2.052956598E0
1.481093458E0,2.022199015E0,1.965500611E0,-2.382763767E-1,2.830063098E0
1.491059458E0,2.064051630E0,3.331482693E0,4.178040236E-2,3.919289689E0
1.501025458E0,1.931498175E0,4.133047081E0,1.392327297E-1,4.564224921E0
1.510990458E0,1.593185879E0,4.213090786E0,-9.994294882E-2,4.505370551E0
1.520956458E0,1.196636192E0,3.346334036E0,-8.189585392E-1,3.646996400E0
1.530922458E0,5.650489005E-1,2.022486990E0,-1.893487326E0,2.827548079E0
1.540887458E0,-2.239007047E-1,5.326819307E-1,-2.857826065E0,2.915656253E0
1.550853458E0,-1.068564773E0,-1.016096976E0,-3.976767964E0,4.241340257E0
1.560819458E0,-1.860137001E0,-2.054198195E0,-4.415639505E0,5.213224734E0
1.570784458E0,-2.894350406E0,-2.400206012E0,-4.081364712E0,5.549395560E0
1.580750458E0,-3.907329062E0,-1.877429849E0,-3.148029810E0,5.357429880E0
1.590716458E0,-4.176308291E0,-8.321166748E-1,-2.215265889E0,4.800142921E0
1.600681458E0,-4.447393979E0,6.852509898E-1,-9.901946881E-1,4.607533792E0
1.610647458E0,-4.934743617E0,1.649193141E0,-2.385395014E-1,5.208496297E0
1.620613458E0,-5.419512293E0,1.928499430E0,1.061804661E-1,5.753390117E0
1.630578458E0,-5.477706707E0,1.731992639E0,2.941105619E-1,5.752527296E0
1.640544458E0,-5.084223007E0,1.398674449E0,3.849635755E-1,5.287136347E0
1.650510458E0,-4.444733789E0,1.236922923E0,3.209115672E-1,4.624783347E0
1.660476458E0,-3.797570392E0,1.571527500E0,3.242878957E-1,4.122669306E0
1.670441458E0,-3.112432546E0,2.202107608E0,5.635400265E-1,3.854100625E0
1.680407458E0,-2.097720775E0,2.712647302E0,8.896538615E-1,3.542650396E0
1.690373458E0,-1.299912346E0,3.292995150E0,1.183909434E0,3.732992193E0
1.700338458E0,-9.216202971E-1,3.880875381E0,1.329172982E0,4.204435576E0
1.710304458E0,-5.594215402E-1,3.794257067E0,1.397523425E0,4.081961646E0
1.720270458E0,-4.127058363E-1,3.713965441E0,1.575080560E0,4.055211977E0
1.730235458E0,-2.826579130E-1,3.798012149E0,1.657909878E0,4.153728078E0
1.740201458E0,-1.253657654E-1,3.705216837E0,1.646554293E0,4.056536629E0
1.750167458E0,4.343838036E-2,3.617557719E0,1.542434386E0,3.932901547E0
1.760132458E0,2.863706025E-1,3.535299089E0,1.329032064E0,3.787700358E0
1.770098458E0,5.820841786E-1,3.452444043E0,1.360593288E0,3.756248921E0
1.780064458E0,9.080275673E-1,3.113896689E0,1.371236682E0,3.521527607E0
1.790029458E0,8.796406509E-1,3.300256807E0,1.591231155E0,3.767954253E0
1.799995458E0,7.199676633E-1,3.603931952E0,1.624534264E0,4.018182490E0
1.809961458E0,5.057040471E-1,3.717497744E0,1.552073813E0,4.060105809E0
1.819926458E0,1.369026142E-1,3.449493538E0,1.389741366E0,3.721441798E0
1.829892458E0,-2.901037574E-1,2.826123632E0,1.059195634E0,3.032001049E0
1.839858458E0,-6.009933431E-1,1.901799874E0,7.813894477E-1,2.142102992E0
1.849823458E0,-6.724740927E-1,1.130676675E0,4.410978690E-1,1.387522425E0
1.859789458E0,-4.689354394E-1,3.692177546E-1,1.959708944E-1,6.281932729E-1
1.869755458E0,-3.725496443E-1,-2.850541019E-1,1.956340948E-1,5.082536547E-1
1.879720458E0,-7.128241199E-1,-9.597748411E-1,-1.378329062E-1,1.203446668E0
1.889686458E0,-6.799345551E-1,-2.114109936E0,-2.347361800E-1,2.233130738E0
1.899652458E0,-9.882386483E-1,-2.737780974E0,4.312026259E-1,2.942447279E0
1.909618458E0,-1.269557695E0,-3.003069733E0,1.377685869E-1,3.263308864E0
1.919583458E0,-1.431798780E0,-3.172674655E0,-1.733497712E-1,3.485105788E0
1.929549458E0,-1.251834200E0,-2.953415762E0,-2.579908490E-1,3.218122559E0
1.939515458E0,-3.523459062E-1,-2.530671426E0,-5.526414013E-1,2.614164881E0
1.949480458E0,8.427032049E-1,-2.160857840E0,-7.949237055E-1,2.451807291E0
1.959446458E0,2.281950460E0,-2.823902274E0,-1.699658998E0,4.008810630E0
1.969412458E0,4.781602700E0,-5.293730498E0,-4.616447509E0,8.496993266E0
1.979377458E0,7.364041280E0,-6.944812875E0,-8.464741035E0,1.319512678E1
1.989343458E0,6.594879822E0,-5.020471984E0,-8.994340314E0,1.223093359E1
1.999309458E0,3.290418282E0,-2.309278300E0,-6.748746378E0,7.855265522E0
2.009274458E0,8.901748484E-1,-6.383335161E-1,-4.694757514E0,4.820853561E0
2.019237458E0,-4.964540443E-1,9.545415831E-1,-2.169914593E0,2.422012715E0
2.029203458E0,-1.491658919E0,2.948666069E0,2.502055737E-1,3.313952436E0
2.039168458E0,-1.755574167E0,3.794077558E0,1.683867423E0,4.506936284E0
2.049134458E0,-1.495390174E0,3.539076975E0,1.598640161E0,4.161358909E0
2.059100458E0,-1.825158957E0,2.870061949E0,7.819259298E-1,3.489966901E0
2.069065458E0,-2.671539037E0,1.682003623E0,-4.699611872E-1,3.191726889E0
2.079031458E0,-3.145243904E0,4.633169961E-1,-1.529368490E0,3.527915792E0
2.088997458E0,-2.811438934E0,-2.960860437E-1,-1.790406323E0,3.346253222E0
2.098963458E0,-2.270747780E0,-6.721374393E-1,-1.178892231E0,2.645345178E0
2.108928458E0,-2.207871208E0,-1.379376299E0,-6.030888391E-1,2.672281870E0
2.118894458E0,-2.457947266E0,-2.715963843E0,-6.046149623E-1,3.712616815E0
2.128860458E0,-2.531374261E0,-4.362073163E0,-9.454444849E-1,5.131218491E0
2.138825458E0,-2.690330234E0,-5.628519262E0,-1.372029272E0,6.387532401E0
2.148791458E0,-2.890489197E0,-5.970466772E0,-1.009153408E0,6.709678970E0
2.158757458E0,-3.042506863E0,-5.398033715E0,-9.908428520E-2,6.197211768E0
2.168722458E0,-3.079439047E0,-4.174155346E0,7.860017315E-1,5.246362208E0
2.178688458E0,-2.660578724E0,-2.808576137E0,1.166019586E0,4.040591632E0
2.188654458E0,-2.181698048E0,-1.823251303E0,1.995322873E0,3.473523435E0
2.198619458E0,-1.643564027E0,-1.048647256E0,2.920565520E0,3.511504910E0
2.208585458E0,-1.499315410E0,-3.039879709E-1,3.119452421E0,3.474383224E0
2.218551458E0,-1.329738700E0,3.340362275E-1,3.172936610E0,3.456488383E0
2.228516458E0,-9.876170893E-1,7.818288660E-1,2.916580350E0,3.176961572E0
2.238482458E0,-7.428121501E-1,1.416765735E0,3.103053027E0,3.491122044E0
2.248448458E0,-8.971127160E-1,2.274447606E0,3.445227994E0,4.224632418E0
2.258413458E0,-7.383133024E-1,2.727733703E0,3.389611033E0,4.413060236E0
2.268379458E0,-5.608513306E-1,3.011489723E0,3.311562983E0,4.511105625E0
2.278345458E0,-4.694184195E-1,3.200651243E0,3.151798341E0,4.516453787E0
2.288311458E0,-4.288722181E-1,3.313606585E0,3.031901184E0,4.511800613E0
2.298276458E0,-3.933417584E-1,3.286747400E0,2.933519149E0,4.423003596E0
2.308242458E0,-3.271452838E-1,3.173673944E0,2.846541232E0,4.275748744E0
2.318208458E0,-2.060979795E-1,3.081746943E0,2.755065051E0,4.138843321E0
2.328173458E0,-9.131041199E-2,2.900092664E0,2.718025571E0,3.975743711E0
2.338139458E0,7.217496023E-2,2.662156595E0,2.684388294E0,3.781299707E0
2.348105458E0,1.609248765E-1,2.420273656E0,2.740440872E0,3.659731897E0
2.358070458E0,3.603732562E-1,2.093416055E0,2.842812462E0,3.548780404E0
2.368036458E0,5.326328140E-1,1.858490717E0,2.951632361E0,3.528430112E0
2.378002458E0,7.608312222E-1,1.665075349E0,3.000392000E0,3.514781959E0
2.387967458E0,9.193276039E-1,1.451304068E0,3.041940853E0,3.493544174E0
2.397933458E0,9.608432736E-1,1.136440276E0,2.984524704E0,3.334981860E0
2.407899458E0,9.410748607E-1,6.992170644E-1,2.819525633E0,3.053563688E0
2.417864458E0,9.183432251E-1,2.611079997E-1,2.676435496E0,2.841626054E0
2.427830458E0,9.742769592E-1,-2.171135491E-1,2.389509992E0,2.589616166E0
2.437796458E0,1.019639512E0,-7.679358816E-1,2.068523288E0,2.430674566E0
2.447761458E0,1.040345380E0,-1.499663465E0,1.707365921E0,2.499281378E0
2.457727458E0,1.041511753E0,-2.350818089E0,1.255569401E0,2.861388988E0
2.467693458E0,1.065751239E0,-3.258143406E0,6.636320794E-1,3.491666034E0
2.477658458E0,1.168639138E0,-4.124652818E0,4.214713973E-1,4.307681099E0
2.487624458E0,1.243525014E0,-4.656279911E0,2.863580310E-1,4.827970381E0
2.497590458E0,1.335540015E0,-4.739299849E0,2.201038152E-1,4.928800653E0
2.507556458E0,1.620182181E0,-5.023588550E0,7.248521349E-1,5.327930446E0
2.517521458E0,1.689531620E0,-4.802604729E0,7.113705021E-1,5.140581414E0
2.527487458E0,1.754861391E0,-4.350964622E0,6.260099244E-1,4.733108923E0
2.537453458E0,1.757102337E0,-3.812215036E0,3.615456229E-1,4.213206302E0
2.547418458E0,1.726612616E0,-3.734546471E0,-3.915120184E-2,4.114554810E0
2.557384458E0,1.674316288E0,-4.209102400E0,-6.440646645E-1,4.575445043E0
2.567350458E0,1.631529872E0,-4.799356601E0,-1.274042509E0,5.226748303E0
2.577315458E0,1.586717689E0,-5.154390180E0,-1.783059297E0,5.680203482E0
2.587281458E0,1.494585158E0,-5.425748933E0,-2.165216939E0,6.029983472E0
2.597247458E0,1.445132624E0,-5.652005773E0,-2.502424697E0,6.347889958E0
2.607212458E0,1.486689955E0,-5.318458958E0,-2.755886292E0,6.171803785E0
2.617178458E0,1.450654735E0,-4.116758493E0,-2.926145518E0,5.254943124E0
2.627144458E0,1.158669928E0,-2.094189641E0,-3.849979278E0,4.533264464E0
2.637109458E0,4.918116474E-1,1.174138445E0,-5.262342060E0,5.414122619E0
2.647075458E0,3.180590031E-1,3.887520742E0,-4.083678747E0,5.647159565E0
2.657041458E0,8.159274888E-1,4.860785109E0,-1.615368168E0,5.186750800E0
2.667006458E0,1.202043112E0,5.172314234E0,-4.766159034E-1,5.331501186E0
2.676972458E0,1.281665232E0,4.957305098E0,-4.532783501E-1,5.140330813E0
2.686938458E0,1.027291178E0,4.022311342E0,-1.068403098E0,4.286700465E0
2.696904458E0,-3.995724052E-2,2.835023094E0,-2.321783009E0,3.664645803E0
2.706869458E0,-1.884696476E0,1.362334589E0,-3.354265784E0,4.081560399E0
2.716835458E0,-3.216584613E0,3.642745185E-1,-5.374883419E0,6.274430992E0
2.726801458E0,-3.727651142E0,-8.671455896E-1,-6.283212118E0,7.357042818E0
2.736766458E0,-3.815313476E0,-1.937506481E0,-5.358554485E0,6.857452475E0
2.746732458E0,-3.405938798E0,-1.864981127E0,-3.501277649E0,5.228529323E0
2.756698458E0,-2.858055276E0,-5.359511089E-1,-1.577958560E0,3.308425119E0
2.766663458E0,-2.644639799E0,6.701756984E-1,-2.266994745E-2,2.728327154E0
2.776629458E0,-2.613344331E0,1.372691177E0,6.949567831E-1,3.032625033E0
2.786595458E0,-2.505640958E0,1.485154184E0,1.149364961E0,3.131287175E0
2.796560458E0,-2.507814660E0,1.654812900E0,1.530345267E0,3.371868435E0
2.806526458E0,-2.457505217E0,1.703280471E0,1.571570769E0,3.377918136E0
2.816492458E0,-2.319936020E0,1.730337292E0,1.439703777E0,3.232478499E0
2.826457458E0,-2.045298148E0,1.770909952E0,1.320132602E0,3.010334974E0
2.836423458E0,-1.696127572E0,1.581181837E0,1.036201166E0,2.539822356E0
2.846389458E0,-1.358989689E0,1.555171083E0,9.334237790E-1,2.266426708E0
2.856354458E0,-1.099266310E0,2.000526018E0,1.303197019E0,2.628462143E0
2.866320458E0,-1.119545916E0,2.666502246E0,1.703780408E0,3.356558500E0
2.876286458E0,-1.114519357E0,2.638637924E0,1.550062079E0,3.256878251E0
2.886252458E0,-1.028265617E0,2.285324596E0,1.504476893E0,2.922924804E0
2.896217458E0,-9.675317574E-1,2.100400554E0,1.715099448E0,2.879125962E0
2.906183458E0,-8.247830969E-1,1.691028800E0,1.917783531E0,2.686585050E0
2.916149458E0,-8.061624925E-1,2.078037878E0,2.283677143E0,3.191131567E0
2.926114458E0,-7.263627630E-1,2.765113199E0,2.429807833E0,3.751988802E0
2.936080458E0,-2.042692629E-1,2.601391160E0,2.256432334E0,3.449702709E0
2.946046458E0,-1.782699108E-1,2.957010046E0,2.184735822E0,3.680863918E0
2.956011458E0,4.214760751E-2,2.677838827E0,1.810661663E0,3.232815006E0
2.965977458E0,-5.904342949E-2,2.625710900E0,1.587999983E0,3.069134699E0
2.975943458E0,-3.206051731E-1,2.516137002E0,1.622909322E0,3.011240236E0
2.985908458E0,-3.731418210E-1,2.128444385E0,1.382058417E0,2.565072277E0
2.995874458E0,-2.475259410E-1,1.478270257E0,1.222803943E0,1.934373679E0
3.005840458E0,-1.829323344E-1,1.044064209E0,1.106466571E0,1.532254086E0
3.015804125E0,-2.113531646E-1,7.585300505E-1,9.722411048E-1,1.251115807E0
3.025770125E0,-1.708935021E-1,4.469927394E-1,9.130646512E-1,1.030870581E0
3.035736125E0,-1.087796997E-1,1.078489691E-1,1.070097475E0,1.081005564E0
3.045701125E0,-1.416534770E-1,-5.254658818E-2,1.024004166E0,1.035090037E0
3.055667125E0,4.294048995E-2,-6.698418224E-1,6.751920247E-1,9.520589388E-1
3.065633125E0,-1.533666193E-1,-1.188923714E0,8.646558452E-1,1.478069907E0
3.075598125E0,-5.678147797E-1,-2.018320264E0,5.642636195E-1,2.171272379E0
3.085564125E0,-8.790594377E-1,-3.020386262E0,-1.185903043E-1,3.147942555E0
3.095530125E0,-1.043496883E0,-3.834022812E0,-8.657674009E-1,4.066714873E0
3.105496125E0,-1.045437720E0,-4.226843437E0,-1.522896792E0,4.612847288E0
3.115461125E0,-7.531979746E-1,-4.169300403E0,-1.925160670E0,4.653667011E0
3.125427125E0,1.617329617E-1,-4.218883622E0,-2.217044028E0,4.768691727E0
3.135393125E0,2.262059841E0,-5.061783732E0,-4.406062643E0,7.081804663E0
3.145358125E0,4.812214920E0,-5.920633292E0,-7.559798459E0,1.074066403E1
3.155324125E0,6.491191732E0,-5.432326466E0,-1.068138014E1,1.362855908E1
3.165290125E0,5.150861970E0,-2.930115777E0,-1.070141972E1,1.223263428E1
3.175255125E0,1.512018632E0,-8.857485062E-1,-6.448446246E0,6.682305721E0
3.185221125E0,-1.871735246E0,-2.039573139E-1,-1.643178695E0,2.499005330E0
3.195187125E0,-3.733861762E0,1.185428249E0,8.990965301E-1,4.019370393E0
3.205152125E0,-2.990560200E0,3.350221265E0,1.557111482E0,4.753107299E0
3.215118125E0,-1.667105356E0,3.806271341E0,1.232885713E0,4.334391419E0
3.225084125E0,-8.445694900E-1,3.155747550E0,6.831418991E-1,3.337472558E0
3.235049125E0,-4.944586819E-1,2.863855129E0,5.095158470E-1,2.950552828E0
3.245015125E0,-4.696088925E-2,2.479660317E0,2.783865219E-1,2.495680201E0
3.254981125E0,-2.087803897E-1,1.537786142E0,-1.865320265E-1,1.563064191E0
3.264947125E0,-9.500335260E-1,-8.288486660E-1,-6.734176871E-1,1.429351319E0
3.274912125E0,-1.775790330E0,-3.337079648E0,-1.100606492E0,3.937113984E0
3.284878125E0,-2.421092266E0,-5.378516879E0,-1.622328109E0,6.117358913E0
3.294844125E0,-2.890302963E0,-5.641673158E0,-1.197581102E0,6.451087330E0
3.304809125E0,-2.800538847E0,-4.756489493E0,-1.627204102E-1,5.522109023E0
3.314775125E0,-2.501683270E0,-3.385645452E0,7.468429282E-1,4.275370003E0
3.324741125E0,-2.350530991E0,-2.048920498E0,1.077257390E0,3.299023284E0
3.334706125E0,-2.151682682E0,-1.294023322E0,2.398793909E0,3.472527457E0
3.344672125E0,-1.733342030E0,-1.041951025E0,2.743450727E0,3.408321936E0
3.354638125E0,-1.420929537E0,-6.855673242E-1,2.787383489E0,3.202897129E0
3.364603125E0,-1.041713336E0,-6.054417586E-1,2.495838978E0,2.771450631E0
3.374569125E0,-7.791740839E-1,-2.284413600E-1,2.828858667E0,2.943083258E0
3.384535125E0,-7.437627612E-1,2.296148962E-1,3.145172276E0,3.240063995E0
3.394500125E0,-5.331806982E-1,6.495560771E-1,3.061064172E0,3.174321757E0
3.404466125E0,-3.139970885E-1,1.114253016E0,3.052751185E0,3.264880358E0
3.414432125E0,-2.282200429E-1,1.539954289E0,2.967436801E0,3.351003546E0
3.424397125E0,-1.432852887E-1,1.917331249E0,2.873933683E0,3.457771624E0
3.434363125E0,-1.367225200E-2,2.238549210E0,2.783231381E0,3.571787566E0
3.444329125E0,1.779771115E-1,2.558638074E0,2.710894892E0,3.731923868E0
3.454295125E0,3.286098652E-1,2.839334831E0,2.685332034E0,3.921838199E0
3.464260125E0,5.167462215E-1,3.107838389E0,2.675095314E0,4.133015974E0
3.474226125E0,6.595689954E-1,3.292441419E0,2.679949965E0,4.296199899E0
3.484192125E0,8.384379534E-1,3.254029890E0,2.676213594E0,4.295789558E0
3.494157125E0,9.083526725E-1,3.150211406E0,2.687154027E0,4.239072215E0
3.504123125E0,9.762499559E-1,2.869905828E0,2.660894181E0,4.033581694E0
3.514089125E0,1.064290605E0,2.543532377E0,2.602647142E0,3.791575344E0
3.524054125E0,1.169269761E0,2.187792454E0,2.483511878E0,3.510193562E0
3.534020125E0,1.211974900E0,1.848619448E0,2.363380247E0,3.236022746E0
3.543986125E0,1.282437649E0,1.577381732E0,2.237020163E0,3.022753490E0
3.553951125E0,1.346907587E0,1.351770424E0,2.118953769E0,2.851562450E0
3.563917125E0,1.384751352E0,1.045996129E0,2.022197553E0,2.664756490E0
3.573883125E0,1.379556978E0,4.231746912E-1,1.804151373E0,2.310241643E0
3.583848125E0,1.286902437E0,-5.632581908E-1,1.392206844E0,1.977780971E0
3.593814125E0,1.138088167E0,-1.898123730E0,7.960571882E-1,2.351983294E0
3.603780125E0,1.009857120E0,-3.371229141E0,-4.690636396E-2,3.519545075E0
3.613746125E0,9.473942390E-1,-4.649829263E0,-2.996996230E-1,4.754817334E0
3.623711125E0,9.624902880E-1,-5.111248838E0,-1.044382882E-1,5.202130294E0
3.633677125E0,1.100158888E0,-4.849126346E0,-3.683628917E-2,4.972497643E0
3.643643125E0,1.225296904E0,-4.624538301E0,-1.425065857E-1,4.786231830E0
3.653608125E0,1.337601744E0,-4.227694792E0,-5.221154273E-2,4.434558346E0
3.663574125E0,1.529997650E0,-3.913102310E0,6.345377961E-1,4.249223543E0
3.673540125E0,1.574653129E0,-3.346653879E0,5.563584763E-1,3.740208472E0
3.683505125E0,1.534188642E0,-3.021855667E0,2.027656513E-1,3.395064119E0
3.693471125E0,1.432792953E0,-3.602260233E0,-4.286903697E-1,3.900378170E0
3.703437125E0,1.260849437E0,-4.667491363E0,-1.229028889E0,4.988559806E0
3.713402125E0,1.216281959E0,-5.260059307E0,-2.063494098E0,5.779755497E0
3.723368125E0,1.246071476E0,-5.333262938E0,-2.735118152E0,6.121867280E0
3.733334125E0,1.242030466E0,-5.318462466E0,-3.495788576E0,6.484537026E0
3.743299125E0,1.129214287E0,-5.117076173E0,-4.807215843E0,7.111182576E0
3.753265125E0,6.502311382E-1,-2.928675023E0,-7.298101645E0,7.890641643E0
3.763231125E0,-1.212493256E-1,-4.711358929E-1,-7.491761427E0,7.507540190E0
3.773196125E0,-1.387778163E-1,1.862338185E-3,-4.348130185E0,4.350344682E0
3.783162125E0,5.631824693E-1,7.816914564E-1,-1.603558693E0,1.870726198E0
3.793128125E0,1.459812936E0,2.551657668E0,-4.077716634E-2,2.940012490E0
3.803094125E0,1.856204748E0,3.947685667E0,1.001288903E0,4.475745487E0
3.813059125E0,1.779535764E0,4.475767593E0,1.236663891E0,4.972783996E0
3.823025125E0,1.375154609E0,3.832649885E0,1.006317216E0,4.194392648E0
3.832991125E0,5.829422575E-1,2.317377863E0,4.324331725E-1,2.428386354E0
3.842956125E0,-4.063589761E-1,6.353561139E-1,-2.161679082E-1,7.845594773E-1
3.852922125E0,-1.215376225E0,-7.557608092E-1,-1.072719659E0,1.788586379E0
3.862888125E0,-1.927938975E0,-1.725694603E0,-1.906215399E0,3.213818243E0
3.872853125E0,-2.495763256E0,-2.322488329E0,-2.532404833E0,4.246864786E0
3.882819125E0,-3.187631540E0,-1.700921119E0,-2.279611866E0,4.272090560E0
3.892785125E0,-3.718558137E0,-5.422672713E-1,-1.483387156E0,4.040070032E0
3.902750125E0,-3.876446700E0,6.337253255E-1,-5.098348126E-1,3.960855759E0
3.912716125E0,-4.004433480E0,1.499472261E0,4.732479072E-1,4.302077189E0
3.922682125E0,-4.427214653E0,2.223547593E0,1.061226956E0,5.066615847E0
3.932647125E0,-4.652795556E0,2.127644486E0,1.205611375E0,5.256317754E0
3.942613125E0,-4.298483523E0,1.598667351E0,9.691993833E-1,4.687434836E0
3.952579125E0,-3.519291167E0,1.419452530E0,9.297528970E-1,3.907006047E0
3.962544125E0,-2.615755723E0,1.569481559E0,9.299797690E-1,3.189092776E0
3.972510125E0,-1.810932974E0,2.081892947E0,1.146255412E0,2.987918665E0
3.982476125E0,-1.047202410E0,2.303460320E0,1.444217535E0,2.913473292E0
3.992442125E0,-3.873283356E-1,2.280900008E0,1.623436157E0,2.826317930E0
4.002407125E0,-9.512542784E-3,2.795557312E0,1.980703372E0,3.426137332E0
4.012373250E0,3.577794313E-2,3.456164042E0,2.245276724E0,4.121603755E0
4.022339250E0,1.713146478E-1,3.569183704E0,2.175073006E0,4.183224068E0
4.032304250E0,2.357613431E-1,3.629798280E0,2.068713615E0,4.184566284E0
4.042270250E0,1.815725644E-1,3.665551080E0,2.029929034E0,4.194024940E0
4.052236250E0,3.258781922E-1,3.309101890E0,1.842967529E0,3.801694521E0
4.062201250E0,3.717605625E-1,3.211844568E0,1.852070182E0,3.726166314E0
4.072167250E0,5.125644390E-1,3.032950759E0,1.732860658E0,3.530484198E0
4.082133250E0,5.157650587E-1,3.104484426E0,1.878606309E0,3.665105566E0
4.092098250E0,3.363702898E-1,3.307217333E0,2.012389726E0,3.885941825E0
4.102064250E0,1.102293706E-1,3.125226254E0,1.936649280E0,3.678287657E0
4.112030250E0,-1.105468744E-1,2.782261913E0,1.824890277E0,3.329178050E0
4.121996250E0,-3.017230520E-1,2.271588317E0,1.611649339E0,2.801528846E0
4.131961250E0,-3.426968309E-1,1.692767762E0,1.125400733E0,2.061414714E0
4.141927250E0,-1.152661622E-1,1.034669487E0,8.422282648E-1,1.339095100E0
4.151893250E0,-1.729042134E-1,6.335276896E-1,7.857886004E-1,1.024068809E0
4.161858250E0,-6.318507081E-1,1.680454695E-1,8.026087010E-1,1.035207865E0
4.171824250E0,-6.333626519E-1,-9.253253853E-1,2.201771978E-1,1.142739391E0
4.181790250E0,-6.514406347E-1,-1.910340317E0,-1.120194957E-1,2.021465656E0
4.191755250E0,-1.201362350E0,-2.534821780E0,-7.148981273E-2,2.806012071E0
4.201721250E0,-1.347702955E0,-3.600508992E0,-5.697687730E-1,3.886464294E0
4.211687250E0,-1.550080497E0,-4.127612094E0,-9.117712471E-1,4.502361376E0
4.221652250E0,-1.726173782E0,-3.909491655E0,-1.064222777E0,4.404131134E0
4.231618250E0,-1.195146906E0,-3.328915765E0,-1.242837381E0,3.748959996E0
4.241584250E0,3.992521240E-1,-3.142104242E0,-2.755537214E0,4.198238519E0
4.251549250E0,2.670738846E0,-3.531014249E0,-5.650925792E0,7.178709489E0
4.261515250E0,6.634082479E0,-5.434960636E0,-1.111044649E1,1.403537918E1
4.271481250E0,9.577577271E0,-3.728259544E0,-1.799834724E1,2.072608041E1
4.281447250E0,7.974460189E0,2.576780230E-1,-1.762997967E1,1.935134612E1
4.291412250E0,4.696047117E0,2.270213052E0,-7.809856390E0,9.391516527E0
4.301378250E0,2.235950415E0,2.833399322E0,-2.214065748E-1,3.616164660E0
4.311344250E0,-3.261679217E-1,3.361853131E0,1.923617005E0,3.886996832E0
4.321309250E0,-2.669283474E0,2.768906288E0,2.309317184E0,4.486074247E0
4.331275250E0,-4.149238021E0,1.972303262E0,2.088341256E0,5.046516176E0
4.341241250E0,-4.256812171E0,6.158117956E-1,1.057280378E0,4.429166494E0
4.351206250E0,-3.417219247E0,-1.509873873E0,-7.944962740E-2,3.736765812E0
4.361172250E0,-2.695987415E0,-2.861730836E0,-9.846260923E-1,4.053065514E0
4.371138250E0,-1.916486180E0,-2.769723144E0,-1.070072624E0,3.534026173E0
4.381103250E0,-1.435815232E0,-1.907213227E0,-3.267187294E-1,2.409517130E0
4.391069250E0,-1.620120493E0,-1.571517559E0,7.312527895E-3,2.257102418E0
4.401035250E0,-2.498801177E0,-1.928011188E0,3.359497288E-1,3.173971752E0
4.411000250E0,-3.586730028E0,-2.538321923E0,5.993474981E-1,4.434741019E0
4.420966250E0,-4.397019632E0,-3.067247018E0,8.415567121E-1,5.426785753E0
4.430932250E0,-4.947175967E0,-3.268619862E0,1.131019907E0,6.036359157E0
4.440897250E0,-5.092335434E0,-3.127511930E0,1.460426894E0,6.151914967E0
4.450863250E0,-5.227707832E0,-2.209127775E0,1.729791162E0,5.933072742E0
4.460829250E0,-4.626759658E0,-1.377634413E0,3.088438789E0,5.730901820E0
4.470795250E0,-3.740942155E0,-5.421614367E-1,3.002021327E0,4.827081860E0
4.480760250E0,-3.104261062E0,2.576973188E-1,2.814118421E0,4.197869357E0
4.490726250E0,-2.275721714E0,5.497049296E-1,2.573305814E0,3.478934843E0
4.500692250E0,-1.789803621E0,1.188322036E0,3.083130687E0,3.757818662E0
4.510657250E0,-1.385217667E0,1.704513649E0,3.094168768E0,3.794479560E0
4.520623250E0,-8.826861732E-1,2.071054548E0,3.130215975E0,3.855730005E0
4.530589250E0,-5.484362300E-1,2.459724235E0,3.156908515E0,4.039442657E0
4.540554250E0,-3.659953541E-1,2.815651853E0,3.197926440E0,4.276515109E0
4.550520250E0,-2.931181432E-1,3.019929010E0,3.244290767E0,4.441994153E0
4.560486250E0,-2.202315769E-1,2.983382158E0,3.180407013E0,4.366240925E0
4.570451250E0,-1.430363435E-1,2.677360525E0,3.011540594E0,4.032132876E0
4.580417250E0,3.494632289E-2,2.380511420E0,2.924234940E0,3.770836227E0
4.590383250E0,2.030452944E-1,2.193477702E0,2.882425302E0,3.627802012E0
4.600348250E0,2.902752270E-1,2.086421615E0,2.922397745E0,3.602474628E0
4.610314250E0,4.392159426E-1,2.054464243E0,3.012794237E0,3.672963801E0
4.620280250E0,5.696601610E-1,2.015049917E0,3.067716549E0,3.714272969E0
4.630246250E0,7.291520311E-1,1.851470550E0,3.081914758E0,3.668488034E0
4.640211250E0,8.739774764E-1,1.541711962E0,3.059153302E0,3.535411055E0
4.650177250E0,9.688136132E-1,1.052560798E0,2.917413871E0,3.249274957E0
4.660143250E0,1.046778194E0,6.158188123E-1,2.726568061E0,2.984820059E0
4.670108250E0,1.071039169E0,2.521494806E-1,2.584336587E0,2.808825351E0
4.680074250E0,1.051621735E0,-1.901222169E-2,2.413128358E0,2.632386410E0
4.690040250E0,1.078285331E0,-2.392528617E-1,2.199112079E0,2.460901283E0
4.700005250E0,1.141879356E0,-6.141277975E-1,1.914059731E0,2.311853384E0
4.709971250E0,1.158250829E0,-1.227543989E0,1.525714273E0,2.275129286E0
4.719937250E0,1.106036216E0,-2.069810261E0,1.057745524E0,2.574151553E0
4.729902250E0,1.014655053E0,-3.032276575E0,5.468497342E-1,3.243959114E0
4.739868250E0,1.005260916E0,-3.920024244E0,2.420133322E-2,4.046940238E0
4.749834250E0,1.002587862E0,-4.674146079E0,-1.120934629E-1,4.781776755E0
4.759799250E0,1.050498485E0,-4.983884202E0,-3.282846138E-1,5.103961167E0
4.769765250E0,1.162498685E0,-4.958399112E0,-4.278498325E-1,5.110790587E0
4.779731250E0,1.223093088E0,-4.628970491E0,-3.418685728E-1,4.800020690E0
4.789697250E0,1.412830851E0,-4.021893266E0,-1.104825550E-1,4.264261114E0
4.799662250E0,1.564534230E0,-2.927959909E0,1.110158211E-1,3.321602188E0
4.809628250E0,1.668428142E0,-2.028775086E0,2.622482067E-1,2.639764182E0
4.819594250E0,1.666861088E0,-1.957220369E0,-2.864454469E-1,2.586733163E0
4.829559250E0,1.651001393E0,-2.852208645E0,-1.627199425E0,3.675415313E0
4.839525250E0,1.684890978E0,-3.917317568E0,-3.407823063E0,5.458707958E0
4.849491250E0,2.024203148E0,-3.199797549E0,-7.568130741E0,8.462429063E0
4.859456250E0,1.664174877E0,-6.758381420E-1,-1.148879876E1,1.162835897E1
4.869422250E0,4.235685012E-1,-1.233517504E0,-9.236322656E0,9.327948966E0
4.879388250E0,1.059322518E-1,-2.886926488E0,-5.295832572E0,6.032529223E0
4.889353250E0,5.167415437E-1,-3.297344309E0,-3.194183053E0,4.619773446E0
4.899319250E0,1.179321709E0,-1.539494698E0,-1.470006387E0,2.433467156E0
4.909285250E0,1.543715218E0,8.959396183E-1,3.334246087E-1,1.815746801E0
4.919251250E0,1.440165122E0,3.082124673E0,9.632349309E-1,3.535730421E0
4.929216250E0,7.412024117E-1,4.032542215E0,1.013374074E0,4.223470699E0
4.939182250E0,2.290661350E-1,3.599669332E0,-3.421322823E-1,3.623140225E0
4.949148250E0,-6.510108644E-1,2.530374972E0,-9.986950779E-1,2.797142203E0
4.959113250E0,-1.269194583E0,6.835243070E-1,-1.827659811E0,2.327745852E0
4.969079250E0,-1.989745214E0,-6.837710595E-1,-2.642526615E0,3.377806357E0
4.979045250E0,-2.537503898E0,-1.362144554E0,-2.708921749E0,3.953810928E0
4.989010250E0,-2.547432177E0,-1.373060136E0,-2.177463348E0,3.621608961E0
4.998976250E0,-2.234027558E0,-1.102441056E0,-1.491163952E0,2.903416151E0
5.008942250E0,-1.825626149E0,-7.654508150E-1,-8.593991983E-1,2.158099342E0
5.018907625E0,-1.624710557E0,-1.154421633E-1,-2.773179433E-1,1.652245905E0
5.028873625E0,-1.427778088E0,8.044552517E-1,5.154612958E-1,1.717963582E0
5.038839625E0,-1.336127953E0,1.407165191E0,1.038180156E0,2.200720295E0
5.048804625E0,-1.594352837E0,1.649599523E0,1.220445469E0,2.598581670E0
5.058770625E0,-1.922595789E0,1.792532955E0,1.232148671E0,2.903056891E0
5.068736625E0,-2.085350113E0,1.916151280E0,1.031561400E0,3.014040435E0
5.078702625E0,-1.960883796E0,2.395869132E0,9.723665276E-1,3.245111835E0
5.088667625E0,-1.645525914E0,2.657350768E0,8.330683091E-1,3.234698046E0
5.098633625E0,-1.384365436E0,2.791046770E0,8.026861766E-1,3.217252683E0
5.108599625E0,-1.005659258E0,2.802130752E0,1.112261162E0,3.178114564E0
5.118564625E0,-6.525144759E-1,2.849610727E0,1.490120809E0,3.281237033E0
5.128530625E0,-6.684381983E-1,3.279545969E0,2.045940464E0,3.922767362E0
5.138496625E0,-6.083250207E-1,3.596334665E0,2.365439637E0,4.347296519E0
5.148461625E0,-6.245947520E-1,3.632641781E0,2.539077676E0,4.475837392E0
5.158427625E0,-5.363631915E-1,3.279772257E0,2.380334541E0,4.087858126E0
5.168393625E0,-2.553957085E-1,2.637476082E0,2.153998764E0,3.414852519E0
5.178358625E0,-2.385264914E-1,2.593985077E0,2.226986049E0,3.427115453E0
5.188324625E0,-1.975021340E-1,2.491732478E0,2.203268572E0,3.331985930E0
5.198290625E0,-8.776188299E-2,2.253283609E0,2.070587648E0,3.061424893E0
5.208255625E0,-1.038029882E-1,2.027468818E0,1.952806306E0,2.816887881E0
5.218221625E0,-1.185629685E-1,1.755039439E0,1.817268139E0,2.529166681E0
5.228187625E0,-1.948403352E-1,1.495144737E0,1.618179510E0,2.211769759E0
5.238153625E0,-2.687580581E-1,1.251000094E0,1.384547284E0,1.885259481E0
5.248118625E0,-2.940732859E-1,1.129392042E0,1.123331111E0,1.619838963E0
5.258084625E0,-4.195324606E-1,1.077210905E0,1.136122187E0,1.620852999E0
5.268050625E0,-4.964699779E-1,7.195747304E-1,1.092175976E0,1.398970548E0
5.278015625E0,-5.044699922E-1,1.604984683E-1,9.777138063E-1,1.111833629E0
5.287981625E0,-8.201556104E-1,-5.175277019E-1,8.378381753E-1,1.281586109E0
5.297947625E0,-9.933166628E-1,-1.556364500E0,4.268938127E-1,1.895042685E0
5.307912625E0,-9.936553627E-1,-2.709210309E0,4.538608789E-2,2.886040778E0
5.317878625E0,-1.242454973E0,-3.461889051E0,-3.245953131E-1,3.692388424E0
5.327844625E0,-1.426417003E0,-3.660309051E0,-7.073251060E-1,3.991595749E0
5.337809625E0,-1.392282127E0,-3.130540203E0,-7.923722729E-1,3.516615604E0
5.347775625E0,-9.278886585E-1,-2.272222740E0,-8.409813461E-1,2.594460092E0
5.357741625E0,4.686239290E-1,-2.474298420E0,-2.579914337E0,3.605234950E0
5.367707625E0,2.324130666E0,-3.411021198E0,-5.744553164E0,7.073651109E0
5.377672625E0,5.464660984E0,-5.339348720E0,-1.002760296E1,1.260650568E1
5.387638625E0,6.827721212E0,-4.297100072E0,-1.448944132E1,1.658393065E1
5.397604625E0,5.173305337E0,-1.581273639E0,-1.346937701E1,1.451508289E1
5.407569625E0,2.784987300E0,4.790085840E-1,-6.599681556E0,7.179233951E0
5.417535625E0,9.252277368E-1,1.654204790E0,-6.213368297E-1,1.994617584E0
5.427501625E0,-1.008806814E0,2.352749425E0,1.517227039E0,2.975751826E0
5.437466625E0,-2.559369560E0,2.094322373E0,1.403646922E0,3.592601207E0
5.447432625E0,-2.560116250E0,1.951859057E0,8.783058777E-1,3.336970214E0
5.457398625E0,-2.516396911E0,1.824849347E0,5.989607048E-1,3.165609337E0
5.467363625E0,-2.309972364E0,1.343370899E0,2.966111237E-1,2.688604816E0
5.477329625E0,-1.761094816E0,7.618617940E-1,6.488070488E-3,1.918835699E0
5.487295625E0,-1.123608415E0,-2.071621728E-1,-6.565092936E-1,1.317731569E0
5.497260625E0,-1.416666186E0,-1.505876132E0,-1.064361356E0,2.325396977E0
5.507226625E0,-2.399598193E0,-2.747165755E0,-1.177439783E0,3.832930422E0
5.517192625E0,-3.019445737E0,-3.845551767E0,-1.142773103E0,5.021080692E0
5.527158625E0,-3.120876803E0,-4.533619945E0,-7.183014992E-1,5.550634096E0
5.537123625E0,-3.042847756E0,-4.516527364E0,-2.410926881E-1,5.451244590E0
5.547089625E0,-3.030986387E0,-3.832027157E0,4.149286553E-1,4.903414769E0
5.557055625E0,-2.988193247E0,-2.870095278E0,1.076313065E0,4.280793805E0
5.567020625E0,-2.474410686E0,-1.638740659E0,1.853803005E0,3.499252030E0
5.576986625E0,-2.091344971E0,-5.589575636E-1,1.885931993E0,2.871044553E0
5.586952625E0,-1.658558334E0,-1.062854236E-1,2.628630707E0,3.109953655E0
5.596917625E0,-1.258548265E0,2.054606330E-1,2.788312319E0,3.066079483E0
5.606883625E0,-1.057882203E0,5.727546537E-1,2.829326444E0,3.074451297E0
5.616849625E0,-9.768678604E-1,8.658749896E-1,3.083045902E0,3.348011701E0
5.626814625E0,-8.144301631E-1,1.107404172E0,3.222953985E0,3.503865420E0
5.636780625E0,-6.982322471E-1,1.399971946E0,3.171445278E0,3.536313740E0
5.646746625E0,-5.441328254E-1,1.691311221E0,3.116798662E0,3.587624294E0
5.656712625E0,-3.729718132E-1,2.008351931E0,3.026235232E0,3.651121079E0
5.666677625E0,-2.310563810E-1,2.319631380E0,2.954797459E0,3.763629208E0
5.676643625E0,-7.650438488E-2,2.506959797E0,2.888571310E0,3.825512326E0
5.686609625E0,8.554608062E-2,2.612116708E0,2.764709156E0,3.804482691E0
5.696574625E0,2.264907289E-1,2.692387285E0,2.717544930E0,3.832140105E0
5.706540625E0,3.650505902E-1,2.787354253E0,2.751707287E0,3.933763930E0
5.716506625E0,4.780261056E-1,2.900307257E0,2.822108933E0,4.074873001E0
5.726471625E0,5.948043577E-1,2.846149760E0,2.872833529E0,4.087484944E0
5.736437625E0,6.874032037E-1,2.691709008E0,2.899146877E0,4.015329770E0
5.746403625E0,7.300785224E-1,2.420507544E0,2.897812834E0,3.845671677E0
5.756368625E0,7.823200321E-1,2.035485350E0,2.833475043E0,3.575444877E0
5.766334625E0,9.273184088E-1,1.577855941E0,2.692282619E0,3.255446898E0
5.776300625E0,1.065767319E0,1.241561519E0,2.493000154E0,2.982010187E0
5.786266625E0,1.123451125E0,1.068855234E0,2.380628656E0,2.841124204E0
5.796231625E0,1.134244646E0,8.311472064E-1,2.229480178E0,2.635886656E0
5.806197625E0,1.145637946E0,4.469278353E-1,1.977972722E0,2.329078548E0
5.816163625E0,1.132523665E0,-1.446747333E-1,1.638498876E0,1.997052628E0
5.826128625E0,1.072122366E0,-9.385699135E-1,1.208227127E0,1.868200375E0
5.836094625E0,9.712169650E-1,-1.762615677E0,7.545311397E-1,2.149277473E0
5.846060625E0,8.700270975E-1,-2.668588532E0,1.203731203E-1,2.809413033E0
5.856025625E0,8.375216947E-1,-3.612567705E0,-1.536408538E-1,3.711562141E0
5.865991625E0,8.458275184E-1,-4.231307201E0,-9.476757824E-2,4.316059049E0
5.875957625E0,9.360237435E-1,-4.363284706E0,-2.409789598E-1,4.469056358E0
5.885922625E0,1.032881409E0,-4.401495091E0,-3.856832215E-1,4.537483288E0
5.895888625E0,1.151871955E0,-4.153412349E0,-4.720360717E-1,4.335949860E0
5.905854625E0,1.288879234E0,-3.856927525E0,5.485565364E-2,4.066953252E0
5.915819625E0,1.405268647E0,-3.315075406E0,1.438368273E-1,3.603497461E0
5.925785625E0,1.456636729E0,-2.495747761E0,-1.021157742E-1,2.891535073E0
5.935751625E0,1.511499107E0,-2.269633008E0,-6.606780660E-1,2.805772451E0
5.945717625E0,1.523144421E0,-2.990303507E0,-1.804513900E0,3.810269598E0
5.955682625E0,1.568479346E0,-3.964648440E0,-3.799846713E0,5.711164483E0
5.965648625E0,1.734587048E0,-3.755566626E0,-6.310673566E0,7.545705651E0
5.975614625E0,1.449604575E0,-1.674258986E0,-9.015009052E0,9.283042862E0
5.985579625E0,6.150648138E-1,-9.223889136E-1,-9.058428136E0,9.126019194E0
5.995545625E0,1.817267847E-1,-2.229695356E0,-6.502695544E0,6.876744531E0
6.005511625E0,2.146068478E-1,-3.133167942E0,-4.523899534E0,5.507128512E0
6.015476583E0,8.153439367E-1,-2.237341175E0,-2.661442358E0,3.571240218E0
6.025442583E0,1.219727723E0,-1.433146709E-1,-8.109572093E-1,1.471708670E0
6.035408583E0,1.424512126E0,2.064860008E0,4.117050853E-1,2.542121698E0
6.045373583E0,1.337006789E0,3.582391394E0,1.095101631E0,3.977481972E0
6.055339583E0,9.919251716E-1,3.805254511E0,1.531056143E0,4.219953833E0
6.065305583E0,7.503079882E-1,3.103781590E0,3.267619988E-1,3.209859131E0
6.075271583E0,2.179523322E-1,1.807677829E0,-4.579129994E-1,1.877468153E0
6.085236583E0,-4.155443671E-1,-9.795548022E-2,-1.010032391E0,1.096557261E0
6.095202583E0,-1.104907411E0,-1.668794762E0,-1.711058145E0,2.633138113E0
6.105168583E0,-1.618139456E0,-2.817437008E0,-2.174822745E0,3.909754541E0
6.115133583E0,-1.871767698E0,-3.113082172E0,-1.862893086E0,4.082299055E0
6.125099583E0,-2.079779179E0,-2.782055506E0,-1.188724616E0,3.671291392E0
6.135065583E0,-2.430984293E0,-1.554913221E0,-4.091884437E-1,2.914596874E0
6.145030583E0,-2.626949340E0,-7.847723544E-2,3.481639776E-1,2.651082735E0
6.154996583E0,-2.896043467E0,1.239282274E0,8.750729522E-1,3.269348710E0
6.164962583E0,-3.263110616E0,1.990174692E0,9.333655992E-1,3.934445010E0
6.174927583E0,-3.551842031E0,2.286464218E0,7.928400502E-1,4.297917610E0
6.184893583E0,-3.563375664E0,2.194438400E0,5.920835021E-1,4.226555204E0
6.194859583E0,-3.398141536E0,2.130825371E0,4.560807744E-1,4.036804718E0
6.204825583E0,-2.955302074E0,2.191361010E0,3.220006111E-1,3.693177198E0
6.214790583E0,-2.422964544E0,2.204630681E0,4.962648869E-2,3.276219836E0
6.224756583E0,-1.768071275E0,2.051244181E0,4.873361886E-3,2.708080958E0
6.234722583E0,-1.115146178E0,2.209369265E0,5.607710776E-1,2.537583053E0
6.244687583E0,-7.883957277E-1,3.062329509E0,1.345144359E0,3.436399743E0
6.254653583E0,-4.497049704E-1,3.873288619E0,1.951478696E0,4.360374799E0
6.264619583E0,-2.643558356E-1,4.160684531E0,2.285066149E0,4.754230440E0
6.274584583E0,-3.783236235E-1,4.389601269E0,2.523963208E0,5.077609511E0
6.284550583E0,-2.932635927E-1,4.107262614E0,2.183046269E0,4.660611626E0
6.294516583E0,-2.483300793E-1,3.901313739E0,2.092452726E0,4.433990880E0
6.304481583E0,-2.442870221E-1,3.853378850E0,1.882219888E0,4.295457649E0
6.314447583E0,-4.536687979E-1,4.042063236E0,1.920227667E0,4.497928954E0
6.324413583E0,-6.832933420E-1,3.925686688E0,1.884225483E0,4.407744484E0
6.334379583E0,-8.756489030E-1,3.497680442E0,1.410176507E0,3.871579427E0
6.344344583E0,-1.007793638E0,2.811293923E0,1.019034618E0,3.155543232E0
6.354310583E0,-1.156590220E0,1.991366354E0,6.078639677E-1,2.381751351E0
6.364276583E0,-1.138079104E0,1.402171084E0,2.414248100E-1,1.821975229E0
6.374241583E0,-1.064516746E0,1.137197490E0,5.179653659E-1,1.641554798E0
6.384207583E0,-8.633807136E-1,9.020616531E-1,6.864563933E-1,1.424908370E0
6.394173583E0,-6.641685614E-1,6.833319336E-1,7.077773881E-1,1.187017793E0
6.404138583E0,-3.185998705E-1,2.031907439E-3,5.004047155E-1,5.932241444E-1
6.414104583E0,-7.070106719E-1,-6.658762407E-1,7.867063209E-1,1.249864830E0
6.424070583E0,-9.806855075E-1,-1.785066061E0,4.276112661E-1,2.081119002E0
6.434035583E0,-1.112235288E0,-2.832536273E0,-3.748035997E-2,3.043309687E0
6.444001583E0,-1.240444408E0,-3.621592298E0,-5.085358536E-1,3.861766670E0
6.453967583E0,-1.122186664E0,-4.130076111E0,-7.812704569E-1,4.350541934E0
6.463933583E0,-6.573138705E-1,-4.306945614E0,-1.194263099E0,4.517533220E0
6.473898583E0,4.367694676E-2,-3.997120367E0,-1.400913348E0,4.235733362E0
6.483864583E0,1.006727252E0,-3.884331670E0,-1.787380974E0,4.392751192E0
6.493830583E0,3.092973597E0,-5.054889280E0,-4.302851978E0,7.323450447E0
6.503795583E0,5.549442102E0,-6.374970134E0,-7.773621780E0,1.148328121E1
6.513761583E0,6.154950519E0,-5.481456526E0,-9.466807033E0,1.255190093E1
6.523727583E0,4.594021975E0,-3.188700703E0,-8.178151454E0,9.907321096E0
6.533692583E0,2.569159846E0,-1.571795302E0,-5.697673112E0,6.444734415E0
6.543658583E0,1.799968129E-1,4.962783355E-1,-3.261141273E0,3.303594019E0
6.553624583E0,-2.293755112E0,2.944392924E0,-6.357262427E-1,3.786147126E0
6.563589583E0,-2.701280023E0,4.361825241E0,9.437537625E-1,5.216618096E0
6.573555583E0,-2.223319990E0,4.410999155E0,9.729269832E-1,5.034545882E0
6.583521583E0,-1.922984775E0,3.813823020E0,8.688933223E-1,4.358680085E0
6.593487583E0,-1.629843974E0,2.814122221E0,1.162619430E-1,3.254103885E0
6.603452583E0,-1.349138885E0,1.492901745E0,-5.810097528E-1,2.094398167E0
6.613418583E0,-1.362090175E0,-8.381831610E-1,-7.502264196E-1,1.766544745E0
6.623384583E0,-1.727670231E0,-3.849343101E0,-1.345320945E0,4.428563558E0
6.633349583E0,-2.036904324E0,-6.182485058E0,-2.019656938E0,6.815505473E0
6.643315583E0,-2.257221416E0,-7.033317500E0,-2.123236270E0,7.685748880E0
6.653281583E0,-2.240652161E0,-5.683794161E0,-1.560925913E0,6.305753553E0
6.663246583E0,-2.309474766E0,-3.413627302E0,-1.919605815E-1,4.125939156E0
6.673212583E0,-2.217480084E0,-2.232122535E0,1.009769120E0,3.304424702E0
6.683178583E0,-2.157626523E0,-1.584373832E0,1.421718034E0,3.030985783E0
6.693143583E0,-1.989437065E0,-1.205618100E0,2.029984875E0,3.087428288E0
6.703109583E0,-1.625700198E0,-7.404890513E-1,3.038636884E0,3.524845994E0
6.713075583E0,-1.633322190E0,-6.600863278E-2,3.265843312E0,3.652099541E0
6.723041583E0,-1.287523850E0,5.028851044E-1,3.241565380E0,3.523968956E0
6.733006583E0,-9.406053293E-1,1.067480553E0,2.813715840E0,3.152974777E0
6.742972583E0,-7.246824194E-1,1.798516411E0,3.109546360E0,3.664574253E0
6.752938583E0,-8.964553428E-1,2.643399897E0,3.588809298E0,4.546509362E0
6.762903583E0,-7.532691644E-1,3.092516345E0,3.384880051E0,4.646341005E0
6.772869583E0,-6.188675505E-1,3.389268386E0,3.240841495E0,4.730030743E0
6.782835583E0,-5.725988254E-1,3.572016095E0,3.132746650E0,4.785527136E0
6.792800583E0,-5.368492413E-1,3.651882044E0,3.033306854E0,4.777593541E0
6.802766583E0,-5.372253634E-1,3.651555185E0,2.979701335E0,4.743531006E0
6.812732583E0,-4.123172888E-1,3.540480307E0,2.964458229E0,4.636056400E0
6.822697583E0,-2.009956992E-1,3.347658430E0,2.961170632E0,4.473896260E0
6.832663583E0,-9.670534551E-2,3.134126301E0,2.969316973E0,4.318442182E0
6.842629583E0,4.659061432E-3,2.785725803E0,2.991913245E0,4.088011109E0
6.852595583E0,7.424999088E-2,2.423161595E0,3.022390980E0,3.874541575E0
6.862560583E0,1.842308548E-1,1.996337657E0,3.051112211E0,3.650834257E0
6.872526583E0,3.392482893E-1,1.549841346E0,2.937615416E0,3.338664693E0
6.882492583E0,5.259409681E-1,1.080231577E0,2.694180626E0,2.949936170E0
6.892457583E0,6.599166124E-1,6.563575584E-1,2.538752863E0,2.703989881E0
6.902423583E0,7.175043775E-1,2.093999022E-1,2.396988581E0,2.510819609E0
6.912389583E0,7.467623828E-1,-3.015368181E-1,2.199830994E0,2.342612839E0
6.922354583E0,8.169590838E-1,-8.315658671E-1,1.927360100E0,2.252474393E0
6.932320583E0,8.455629319E-1,-1.347963302E0,1.644648685E0,2.288416709E0
6.942286583E0,8.865144914E-1,-1.836011682E0,1.315536398E0,2.426413578E0
6.952251583E0,8.975889717E-1,-2.389567003E0,9.558598378E-1,2.725686052E0
6.962217583E0,9.037073520E-1,-3.156346890E0,4.187349004E-1,3.309766092E0
6.972183583E0,8.964936420E-1,-3.894961324E0,3.319885325E-1,4.010566163E0
6.982149583E0,9.761505532E-1,-4.091089216E0,1.975563669E-1,4.210571148E0
6.992114583E0,1.101364730E0,-3.896469905E0,4.647308528E-2,4.049400170E0
7.002080583E0,1.207016900E0,-3.542161966E0,-1.017631871E-1,3.743548709E0
7.012046583E0,1.281730867E0,-3.267867326E0,-1.874965248E-1,3.515244774E0
7.022011083E0,1.343872298E0,-2.942066901E0,-6.622614920E-2,3.235140848E0
7.031977083E0,1.394416215E0,-2.559954867E0,-1.275254345E-1,2.917880778E0
7.041943083E0,1.367151233E0,-2.359797658E0,-5.537883326E-1,2.782881420E0
7.051908083E0,1.327317076E0,-2.704346595E0,-1.165873113E0,3.230250956E0
7.061874083E0,1.288939753E0,-3.372467582E0,-2.061066042E0,4.157270319E0
7.071840083E0,1.367991478E0,-3.604774536E0,-3.398542947E0,5.139639511E0
7.081805083E0,1.481769523E0,-3.128745693E0,-6.370192375E0,7.250106304E0
7.091771083E0,1.060005181E0,-1.506019388E0,-9.564474245E0,9.740168016E0
7.101737083E0,2.043066850E-1,-1.659440972E0,-8.703576990E0,8.862716174E0
7.111703083E0,-2.802395046E-2,-2.917914977E0,-6.080837646E0,6.744746076E0
7.121668083E0,4.160729554E-1,-3.001812581E0,-4.296390220E0,5.257657691E0
7.131634083E0,1.344451464E0,-1.293388315E0,-2.597038493E0,3.197657269E0
7.141600083E0,1.870844422E0,9.649145436E-1,-8.620386314E-1,2.274693283E0
7.151565083E0,1.668821952E0,2.793076338E0,7.523811185E-1,3.339508869E0
7.161531083E0,1.217326857E0,3.441485192E0,7.238393971E-1,3.721511584E0
7.171497083E0,6.688518888E-1,3.121138465E0,-4.106207192E-1,3.218303520E0
7.181462083E0,-2.086923891E-1,1.804640200E0,-5.181934074E-1,1.889127622E0
7.191428083E0,-7.173361239E-1,-7.809307337E-2,-9.984196740E-1,1.231873162E0
7.201394083E0,-1.169061892E0,-1.617402415E0,-1.603041361E0,2.559773014E0
7.211359083E0,-1.597382133E0,-2.511927007E0,-1.640145745E0,3.398747568E0
7.221325083E0,-1.872237960E0,-2.518957699E0,-1.460141842E0,3.461565696E0
7.231291083E0,-2.100117110E0,-1.770104790E0,-1.088732551E0,2.954505274E0
7.241257083E0,-2.188093001E0,-7.421028829E-1,-4.431136966E-1,2.352619268E0
7.251222083E0,-2.117631714E0,2.731187654E-1,-2.068891078E-2,2.135271872E0
7.261188083E0,-2.053990180E0,9.732462412E-1,3.927449039E-1,2.306584589E0
7.271154083E0,-2.356239774E0,1.493125108E0,5.969437078E-1,2.852653195E0
7.281119083E0,-2.780819405E0,1.786983363E0,4.462133056E-1,3.335471843E0
7.291085083E0,-2.862144819E0,1.572867681E0,9.367707253E-2,3.267194684E0
7.301051083E0,-2.575617803E0,1.697496405E0,-8.347689718E-2,3.085817478E0
7.311016083E0,-2.119646957E0,2.390804273E0,9.845951021E-2,3.196645518E0
7.320982083E0,-1.752224297E0,2.874144475E0,3.931878304E-1,3.389040147E0
7.330948083E0,-1.460382894E0,3.156921671E0,6.834497550E-1,3.544852070E0
7.340913083E0,-1.285492820E0,3.413034979E0,1.078168094E0,3.803123190E0
7.350879083E0,-9.791571915E-1,3.327480274E0,1.509312833E0,3.782710537E0
7.360845083E0,-6.691366482E-1,3.067423019E0,2.009786838E0,3.727743414E0
7.370811083E0,-5.926699778E-1,3.414807270E0,2.603864533E0,4.335005986E0
7.380776083E0,-4.815509534E-1,3.764845573E0,2.488478210E0,4.538554540E0
7.390742083E0,-2.479581964E-1,3.466232362E0,2.304453177E0,4.169742738E0
7.400708083E0,-5.787515581E-2,3.200478165E0,2.303113580E0,3.943442935E0
7.410673083E0,1.913150489E-2,3.083053211E0,2.290744673E0,3.840975693E0
7.420639083E0,-7.205684647E-2,3.077521745E0,2.388579700E0,3.896363082E0
7.430605083E0,-2.562131493E-1,3.029731282E0,2.271594457E0,3.795399609E0
7.440570083E0,-5.029801217E-1,2.727869943E0,2.033141202E0,3.439175276E0
7.450536083E0,-7.014262886E-1,2.173471454E0,1.615988850E0,2.797748553E0
7.460502083E0,-7.595999448E-1,1.451009368E0,1.091283107E0,1.968074968E0
7.470467083E0,-6.588667448E-1,8.456067860E-1,7.110737559E-1,1.286383345E0
7.480433083E0,-4.801970306E-1,6.349690282E-1,6.114678991E-1,1.003826602E0
7.490399083E0,-3.206079505E-1,7.040369242E-1,7.267021939E-1,1.061392259E0
7.500365083E0,-3.422175054E-1,5.045041984E-1,7.385521612E-1,9.576516078E-1
7.510330083E0,-4.838490553E-1,-1.029846704E-1,5.671989217E-1,7.526156838E-1
7.520296083E0,-6.832480261E-1,-1.038802299E0,4.422354448E-1,1.319662938E0
7.530262083E0,-7.656116134E-1,-2.219901270E0,1.481497335E-1,2.352885703E0
7.540227083E0,-1.174912762E0,-2.886119573E0,4.319639334E-1,3.145901941E0
7.550193083E0,-1.379201613E0,-3.195317997E0,2.329557028E-1,3.488054265E0
7.560159083E0,-1.235456295E0,-3.303904885E0,-2.557633522E-1,3.536602132E0
7.570124083E0,-1.044760758E0,-2.882124170E0,-4.668653789E-1,3.100988239E0
7.580090083E0,-5.446530814E-1,-2.399345301E0,-8.492802992E-1,2.602841117E0
7.590056083E0,1.255302330E0,-4.655509833E0,-3.962127413E0,6.240834029E0
7.600021083E0,3.754587802E0,-5.375222558E0,-7.209415171E0,9.745030231E0
7.609987083E0,4.693671101E0,-3.515660046E0,-9.692614222E0,1.132860029E1
7.619953083E0,4.253357636E0,-3.051779963E0,-1.124745377E1,1.240603194E1
7.629919083E0,2.996506526E0,-1.837395133E0,-9.485407026E0,1.011573125E1
7.639884083E0,2.031889898E0,3.211361003E-1,-5.109927952E0,5.508454286E0
7.649850083E0,1.277902257E0,1.503415623E0,-2.549806439E0,3.224097640E0
7.659816083E0,-1.664068750E0,2.722157214E0,-1.569989097E0,3.555858612E0
7.669781083E0,-3.382321894E0,4.155103363E0,1.054019971E0,5.460397738E0
7.679747083E0,-3.289900219E0,3.938238321E0,1.898621328E0,5.471556220E0
7.689713083E0,-2.787534347E0,2.055833661E0,6.695786977E-1,3.527766349E0
7.699678083E0,-1.762695199E0,-2.973736006E-1,-1.357201318E0,2.244442211E0
7.709644083E0,-1.103777583E0,-2.165462523E0,-2.441257851E0,3.444893726E0
7.719610083E0,-1.362446124E0,-2.738568009E0,-1.704841385E0,3.501785021E0
7.729575083E0,-1.613451305E0,-2.443132176E0,-3.627545348E-1,2.950205212E0
7.739541083E0,-1.730631992E0,-2.881883850E0,-2.492483845E-1,3.370825770E0
7.749507083E0,-1.909694931E0,-3.703284917E0,-9.097516188E-1,4.264844887E0
7.759473083E0,-2.181784148E0,-3.381369383E0,-5.875141954E-1,4.066818646E0
7.769438083E0,-2.296456233E0,-2.577412899E0,2.207005236E-1,3.459115089E0
7.779404083E0,-2.339828540E0,-1.944367020E0,8.490926036E-1,3.158531138E0
7.789370083E0,-2.245115341E0,-1.287440527E0,1.307447068E0,2.899562698E0
7.799335083E0,-2.180838653E0,-7.991670299E-1,1.615083994E0,2.828996550E0
7.809301083E0,-2.254410367E0,-1.698306245E-1,2.831628493E0,3.623441522E0
7.819267083E0,-2.055818312E0,1.982323050E-1,2.635794423E0,3.348596306E0
7.829232083E0,-1.962653602E0,2.716756725E-1,2.194507689E0,2.956633361E0
7.839198083E0,-2.004286947E0,5.656105256E-1,1.861993200E0,2.793581949E0
7.849164083E0,-1.364720837E0,9.537527937E-1,3.479535655E0,3.857366424E0
7.859129083E0,-1.295828358E0,1.472245871E0,3.753911572E0,4.235390316E0
7.869095083E0,-1.156218483E0,2.056904286E0,3.769792317E0,4.447362200E0
7.879061083E0,-8.506345144E-1,2.354699471E0,3.600851054E0,4.385694585E0
7.889027083E0,-7.286835229E-1,2.679442134E0,3.394706297E0,4.385706405E0
7.898992083E0,-3.428111440E-1,2.690155987E0,2.852308340E0,3.935749177E0
7.908958083E0,-3.722186919E-1,3.064698801E0,3.317036854E0,4.531408058E0
7.918924083E0,-2.795065561E-1,3.078261418E0,3.105741285E0,4.381717266E0
7.928889083E0,1.035807940E-1,2.796931407E0,2.826792261E0,3.977977974E0
7.938855083E0,3.284704091E-1,2.628724555E0,2.711418802E0,3.790762129E0
7.948821083E0,4.731932357E-1,2.614977166E0,2.706332017E0,3.792921091E0
7.958786083E0,5.636723198E-1,2.602714970E0,2.746074957E0,3.825281606E0
7.968752083E0,6.146807979E-1,2.450949318E0,2.786078390E0,3.761278751E0
7.978718083E0,6.830506825E-1,2.175760639E0,2.792201595E0,3.605118908E0
7.988683083E0,7.941170821E-1,1.751005445E0,2.717892255E0,3.329201153E0
7.998649083E0,8.841491465E-1,1.292146951E0,2.640242693E0,3.069567548E0
8.008615083E0,9.836582319E-1,8.516475445E-1,2.524521909E0,2.840087662E0
8.018581458E0,1.090966626E0,4.332856965E-1,2.361610003E0,2.637261170E0
8.028546458E0,1.181749619E0,-1.192831993E-2,2.229421706E0,2.523290628E0
8.038512458E0,1.222448871E0,-5.110986882E-1,2.038263363E0,2.431073970E0
8.048478458E0,1.190633294E0,-1.065733990E0,1.785447592E0,2.396084239E0
8.058443458E0,1.194806013E0,-1.719255649E0,1.403366255E0,2.520483732E0
8.068409458E0,1.136453725E0,-2.457832076E0,9.538407943E-1,2.870936753E0
8.078375458E0,1.096884008E0,-3.300975430E0,4.371509984E-1,3.505808653E0
8.088340458E0,1.100974866E0,-4.017209061E0,3.641441256E-1,4.181233699E0
8.098306458E0,1.133892059E0,-4.393289108E0,2.543275684E-2,4.537328202E0
8.108272458E0,1.223396559E0,-4.605041930E0,-2.297058204E-1,4.770311843E0
8.118237458E0,1.298930306E0,-4.651024434E0,-4.259000784E-1,4.847745775E0
8.128203458E0,1.348990366E0,-4.495308988E0,-5.303445062E-1,4.723223814E0
8.138169458E0,1.378994768E0,-4.135537410E0,-5.611482230E-1,4.395359322E0
8.148135458E0,1.378101606E0,-3.747365906E0,-7.857292512E-1,4.069310227E0
8.158100458E0,1.365361108E0,-3.683383334E0,-1.129165170E0,4.087363174E0
8.168066458E0,1.289814497E0,-4.113081179E0,-1.670213882E0,4.622842484E0
8.178032458E0,1.272563456E0,-4.443771045E0,-2.323334422E0,5.173432292E0
8.187997458E0,1.369291898E0,-4.346033081E0,-3.010891846E0,5.461541316E0
8.197963458E0,1.434162078E0,-4.078745159E0,-4.821946149E0,6.476430159E0
8.207929458E0,1.068334832E0,-2.469910085E0,-9.362575736E0,9.741643575E0
8.217894458E0,1.595968276E-1,-1.111477343E0,-9.794125979E0,9.858283660E0
8.227860458E0,-1.187473020E-1,-1.672371504E0,-5.627188436E0,5.871641769E0
8.237826458E0,5.431654036E-1,-1.207299759E0,-2.687505444E0,2.995878315E0
8.247791458E0,1.460859880E0,1.315348703E0,-8.477154382E-1,2.140765112E0
8.257757458E0,1.878839613E0,3.695626819E0,8.190534103E-1,4.225937099E0
8.267723458E0,1.694214071E0,5.019732896E0,1.286350168E0,5.451859905E0
8.277689458E0,7.488605100E-1,5.088383886E0,1.124626561E0,5.264715333E0
8.287654458E0,6.408139050E-2,4.268099052E0,-3.594154823E-1,4.283684796E0
8.297620458E0,-6.444862488E-1,2.830919518E0,-1.396451630E0,3.221730125E0
8.307586458E0,-1.078659553E0,6.632485020E-1,-2.134556479E0,2.481881619E0
8.317551458E0,-1.429189021E0,-1.417467400E0,-2.728164643E0,3.390380128E0
8.327517458E0,-2.137629484E0,-2.450282151E0,-2.777218689E0,4.276246728E0
8.337483458E0,-2.596301744E0,-2.629565384E0,-2.483387332E0,4.452258921E0
8.347448458E0,-2.863807182E0,-1.978831093E0,-1.628019789E0,3.842865143E0
8.357414458E0,-2.908721400E0,-6.257087928E-1,-3.012389025E-1,2.990470958E0
8.367380458E0,-2.822967889E0,6.021269721E-1,6.909230813E-1,2.968009316E0
8.377345458E0,-2.985984461E0,1.666490375E0,1.368510126E0,3.683220511E0
8.387311458E0,-3.332675233E0,2.345470226E0,1.650088643E0,4.396674575E0
8.397277458E0,-3.492624940E0,2.568854329E0,1.401932810E0,4.556627825E0
8.407243458E0,-3.089151857E0,2.363677871E0,8.681279218E-1,3.985408180E0
8.417208458E0,-2.239086423E0,2.111959915E0,4.061318117E-1,3.104645831E0
8.427174458E0,-1.240897860E0,2.054558383E0,2.170474756E-1,2.410009804E0
8.437140458E0,-4.973059836E-1,2.355080125E0,2.876271692E-1,2.424137996E0
8.447105458E0,-2.892269674E-1,3.081083869E0,9.058038712E-1,3.224470607E0
8.457071458E0,-3.878656948E-1,3.853844873E0,1.520989722E0,4.161246188E0
8.467037458E0,-7.122212720E-1,4.300438832E0,1.784916372E0,4.710303572E0
8.477002458E0,-8.085749075E-1,4.006216296E0,1.765919646E0,4.452194356E0
8.486968458E0,-8.706501183E-1,3.344710849E0,1.768584807E0,3.882398036E0
8.496934458E0,-1.029691753E0,2.959068266E0,1.867609158E0,3.647507926E0
8.506899458E0,-1.028191211E0,2.656236289E0,1.978322678E0,3.467928634E0
8.516865458E0,-1.026215875E0,2.625296917E0,2.047365723E0,3.483821082E0
8.526831458E0,-8.587238449E-1,2.559127486E0,2.035974762E0,3.381084643E0
8.536797458E0,-5.393063875E-1,2.339624180E0,1.925987759E0,3.078006096E0
8.546762458E0,-3.299727049E-1,2.180736035E0,1.760241999E0,2.821868802E0
8.556728458E0,-2.596862492E-1,2.003576510E0,1.563745440E0,2.554810283E0
8.566694458E0,-1.993197410E-1,1.718273317E0,1.307157046E0,2.168144620E0
8.576659458E0,-1.393568368E-1,1.494686900E0,1.087152633E0,1.853485933E0
8.586625458E0,-1.319421288E-1,1.514276826E0,9.185788679E-1,1.776015250E0
8.596591458E0,1.546164617E-2,1.143511899E0,1.089173431E0,1.579290121E0
8.606556458E0,4.564482719E-3,7.335051370E-1,1.125236718E0,1.343208209E0
8.616522458E0,-1.647710288E-1,1.447068930E-1,9.802611458E-1,1.004490662E0
8.626488458E0,-2.826986973E-1,-8.154947948E-1,5.163357469E-1,1.005759871E0
8.636453458E0,-2.445602332E-1,-1.941901833E0,3.034617215E-2,1.957476265E0
8.646419458E0,-5.735424198E-1,-2.583667080E0,3.796509415E-2,2.646833549E0
8.656385458E0,-8.213871802E-1,-3.071634768E0,-4.273820552E-1,3.208157177E0
8.666351458E0,-7.935626198E-1,-3.498717738E0,-9.870447931E-1,3.720890333E0
8.676316458E0,-5.925084485E-1,-3.735455128E0,-1.339714927E0,4.012421633E0
8.686282458E0,-1.313337260E-1,-3.674869788E0,-1.501433125E0,3.971928742E0
8.696248458E0,1.567399658E0,-4.796340607E0,-3.127327158E0,5.936480444E0
8.706213458E0,4.543157046E0,-6.556434964E0,-6.982744932E0,1.060121890E1
8.716179458E0,6.394671158E0,-5.113729227E0,-1.014242123E1,1.303498194E1
8.726145458E0,5.804388891E0,-3.082138706E0,-1.054413430E1,1.242454335E1
8.736110458E0,3.537920396E0,-9.955381662E-1,-7.072680371E0,7.970620089E0
8.746076458E0,2.094039660E0,6.378289014E-1,-3.620118799E0,4.230494998E0
8.756042458E0,5.341972001E-1,1.693703316E0,-6.392731637E-1,1.887503046E0
8.766007458E0,-1.912840587E0,2.753192480E0,1.224993433E0,3.569262789E0
8.775973458E0,-3.238646742E0,3.067207257E0,1.608928337E0,4.741860760E0
8.785939458E0,-3.111228312E0,2.329139537E0,7.295395553E-1,3.954347045E0
8.795905458E0,-2.455774441E0,1.559826636E-1,-1.330853764E0,2.797557942E0
8.805870458E0,-1.901655010E0,-2.136498340E0,-3.668515911E0,4.651765893E0
8.815836458E0,-1.535451202E0,-2.596302913E0,-3.782399791E0,4.837865996E0
8.825802458E0,-1.563244334E0,-1.425902009E0,-2.218504955E0,3.065728889E0
8.835767458E0,-1.717166877E0,-1.140404103E0,-1.096400005E0,2.334796902E0
8.845733458E0,-1.877117461E0,-2.128802235E0,-9.163189191E-1,2.982450214E0
8.855699458E0,-2.226475002E0,-2.939503482E0,-6.710440099E-1,3.748089075E0
8.865664458E0,-2.523398952E0,-3.490846217E0,-1.548167288E-1,4.310164474E0
8.875630458E0,-2.622256657E0,-3.272447450E0,3.953436989E-1,4.212058752E0
8.885596458E0,-2.565255952E0,-2.311461065E0,1.007422924E0,3.596983640E0
8.895561458E0,-2.446821330E0,-1.253678119E0,1.861771298E0,3.320366819E0
8.905527458E0,-2.208907773E0,-1.455629253E-1,2.833290271E0,3.595552236E0
8.915493458E0,-1.938582515E0,3.012555671E-1,2.540155317E0,3.209555440E0
8.925459458E0,-2.046804537E0,4.925659382E-1,1.449390274E0,2.555926873E0
8.935424458E0,-1.587188536E0,1.109005725E0,3.038819025E0,3.603259942E0
8.945390458E0,-1.306406702E0,1.787078673E0,4.081472008E0,4.643141437E0
8.955356458E0,-1.335580069E0,2.451351022E0,3.990567100E0,4.870063833E0
8.965321458E0,-1.062486739E0,2.896552175E0,3.902851264E0,4.975051815E0
8.975287458E0,-9.441532736E-1,3.203489481E0,3.514989078E0,4.848599641E0
8.985253458E0,-6.754811695E-1,3.348127962E0,3.209035858E0,4.686592237E0
8.995218458E0,-9.558441965E-1,3.641037798E0,3.536160091E0,5.164806150E0
9.005184458E0,-8.625678045E-1,3.397837481E0,3.091152482E0,4.673814976E0
9.015150458E0,-5.644074610E-1,3.016542887E0,2.805257843E0,4.157830965E0
9.025115583E0,-3.478799491E-1,2.872339439E0,2.658278429E0,3.929096400E0
9.035081583E0,-2.410814323E-1,2.684897001E0,2.572865811E0,3.726450140E0
9.045047583E0,-7.090304464E-2,2.416456593E0,2.515694660E0,3.488983997E0
9.055013583E0,7.076636598E-2,2.177158123E0,2.549295393E0,3.353197336E0
9.064978583E0,1.884870431E-1,1.910149698E0,2.636081814E0,3.260847522E0
9.074944583E0,3.854690672E-1,1.643117300E0,2.756018732E0,3.231727110E0
9.084910583E0,6.167160675E-1,1.408747448E0,2.842610441E0,3.231925463E0
9.094875583E0,7.851892608E-1,1.095181738E0,2.854415677E0,3.156522465E0
9.104841583E0,8.734651141E-1,6.640758830E-1,2.729070084E0,2.941387701E0
9.114807583E0,9.180173890E-1,9.705910206E-2,2.494252043E0,2.659599528E0
9.124772583E0,9.852100830E-1,-5.894811988E-1,2.223352296E0,2.502283442E0
9.134738583E0,9.937192436E-1,-1.125274433E0,1.952567155E0,2.462973605E0
9.144704583E0,1.042063438E0,-1.575954427E0,1.690846367E0,2.535446706E0
9.154669583E0,1.090426636E0,-1.992960305E0,1.453270779E0,2.696834623E0
9.164635583E0,1.146819961E0,-2.427600802E0,1.089999058E0,2.897678316E0
9.174601583E0,1.182589133E0,-3.066906710E0,8.638214475E-1,3.398620502E0
9.184567583E0,1.164716534E0,-3.770572336E0,4.883179361E-1,3.976460078E0
9.194532583E0,1.277129839E0,-4.403994191E0,-7.576997459E-2,4.586062205E0
9.204498583E0,1.404734796E0,-4.761556690E0,-2.815840718E-1,4.972423107E0
9.214464583E0,1.542215700E0,-4.804258906E0,-4.655477089E-1,5.067155768E0
9.224429583E0,1.662996079E0,-4.688960000E0,-4.903007269E-1,4.999229605E0
9.234395583E0,1.746579980E0,-4.225196861E0,-4.962391591E-1,4.598813265E0
9.244361583E0,1.814579005E0,-3.491995779E0,-5.501364541E-1,3.973585485E0
9.254326583E0,1.831999030E0,-2.961639286E0,-6.680701160E-1,3.545961842E0
9.264292583E0,1.770698575E0,-3.206354032E0,-1.170666368E0,3.845326952E0
9.274258583E0,1.640090781E0,-4.154101151E0,-2.011316762E0,4.898147533E0
9.284223583E0,1.664229257E0,-4.758880420E0,-2.793122239E0,5.763517477E0
9.294189583E0,1.754389521E0,-4.614366485E0,-3.375478313E0,5.980310568E0
9.304155583E0,1.737621168E0,-4.061841443E0,-5.084827609E0,6.735974692E0
9.314121583E0,1.052862514E0,-2.033059925E0,-9.197907618E0,9.478573558E0
9.324086583E0,2.762540424E-1,-8.912869889E-1,-8.918070402E0,8.966754624E0
9.334052583E0,2.407833704E-1,-1.322822614E0,-4.617857273E0,4.809619745E0
9.344018583E0,1.061961659E0,-2.015558624E-1,-2.344432784E0,2.581618176E0
9.353983583E0,1.731069948E0,2.599248156E0,-9.159593153E-1,3.254485460E0
9.363949583E0,1.675568177E0,4.704734618E0,1.157200523E-1,4.995542781E0
9.373915583E0,7.780147272E-1,5.521139824E0,5.039283939E-1,5.598413677E0
9.383880583E0,1.514428854E-4,4.826949611E0,-8.811729138E-1,4.906720725E0
9.393846583E0,-5.447777733E-1,3.196384529E0,-1.910645542E0,3.763538663E0
9.403812583E0,-7.385963076E-1,9.775743502E-1,-2.358248731E0,2.657538935E0
9.413778583E0,-1.045910467E0,-1.248926672E0,-2.651190727E0,3.111681026E0
9.423743583E0,-1.652386014E0,-2.546293432E0,-2.594954838E0,3.993467214E0
9.433709583E0,-1.958277838E0,-2.950764050E0,-2.093173103E0,4.113785873E0
9.443675583E0,-2.071519109E0,-2.372808298E0,-1.184416680E0,3.365152821E0
9.453640583E0,-2.125082236E0,-1.182608137E0,-6.130250126E-2,2.432754511E0
9.463606583E0,-2.208890378E0,1.279791784E-1,7.548965907E-1,2.337828957E0
9.473572583E0,-2.540923057E0,1.450485458E0,1.281021746E0,3.193934057E0
9.483537583E0,-2.904041873E0,2.251705445E0,1.483142742E0,3.962745135E0
9.493503583E0,-3.218781704E0,2.483468024E0,1.373244324E0,4.291150086E0
9.503469583E0,-2.957331643E0,2.333470570E0,8.833786297E-1,3.869270364E0
9.513434583E0,-2.240714141E0,2.232528332E0,5.516710559E-1,3.210813537E0
9.523400583E0,-1.424055166E0,2.267533273E0,4.927656206E-1,2.722583005E0
9.533366583E0,-8.245075469E-1,2.692565625E0,7.490882590E-1,2.913907267E0
9.543332583E0,-7.572109187E-1,3.287007017E0,1.290854424E0,3.611660096E0
9.553297583E0,-9.242185074E-1,3.893478470E0,1.905216110E0,4.432065305E0
9.563263583E0,-1.002237175E0,4.167393041E0,2.178322012E0,4.807986159E0
9.573229583E0,-8.990930218E-1,3.764962517E0,2.163892253E0,4.434607164E0
9.583194583E0,-8.918722951E-1,3.344487485E0,2.146201502E0,4.072740308E0
9.593160583E0,-7.997042428E-1,3.379322857E0,2.248181036E0,4.136866909E0
9.603126583E0,-8.442622188E-1,3.528360783E0,1.942869840E0,4.115440648E0
9.613091583E0,-8.810062681E-1,3.134507539E0,2.012124262E0,3.827525781E0
9.623057583E0,-8.282879180E-1,2.820217944E0,1.944814039E0,3.524484611E0
9.633023583E0,-8.098446304E-1,2.458797451E0,1.953160647E0,3.242895272E0
9.642988583E0,-7.019493221E-1,1.957040275E0,1.802919072E0,2.751955063E0
9.652954583E0,-5.782589301E-1,1.657097408E0,1.654330505E0,2.411879895E0
9.662920583E0,-3.364078581E-1,1.372340344E0,1.374260277E0,1.971060521E0
9.672886583E0,-1.060933426E-1,1.162124171E0,1.257447527E0,1.715506534E0
9.682851583E0,1.723583758E-2,9.664891988E-1,1.211465023E0,1.549853524E0
9.692817583E0,-1.489037320E-2,4.704599547E-1,9.411412266E-1,1.052283755E0
9.702783583E0,-1.473986587E-1,-4.045419538E-1,1.040269951E0,1.125851734E0
9.712748583E0,-2.510464033E-1,-1.341547737E0,1.103074894E0,1.754864339E0
9.722714583E0,-3.853130928E-1,-2.119744313E0,8.439742434E-1,2.313887347E0
9.732680583E0,-4.463659179E-1,-2.829145473E0,6.080741751E-1,2.927978969E0
9.742645583E0,-7.342122115E-1,-3.001811997E0,6.377625355E-1,3.155421349E0
9.752611583E0,-6.821540120E-1,-3.035542245E0,3.175599432E-1,3.127410292E0
9.762577583E0,-5.528787982E-1,-2.989118276E0,-7.237098813E-2,3.040680943E0
9.772542583E0,-3.273293249E-1,-2.553196070E0,-1.629484516E-1,2.579245405E0
9.782508583E0,3.584989312E-1,-1.894094414E0,-2.370391059E-1,1.942241661E0
9.792474583E0,1.787375273E0,-2.254201621E0,-1.147219618E0,3.097135478E0
9.802440583E0,4.382391652E0,-4.220262396E0,-4.664643769E0,7.666477207E0
9.812405583E0,6.969637814E0,-5.560653554E0,-1.020937535E1,1.355463258E1
9.822371583E0,7.563685103E0,-4.004184389E0,-1.452098237E1,1.685531827E1
9.832337583E0,5.015628735E0,-7.243039584E-1,-1.222520646E1,1.323392688E1
9.842302583E0,2.635513465E0,8.034343278E-1,-5.897854879E0,6.509695086E0
9.852268583E0,7.907822688E-1,1.887411046E0,-2.727574074E-1,2.064474184E0
9.862234583E0,-2.357101507E0,2.620782282E0,2.384449520E0,4.255587714E0
9.872199583E0,-4.198534727E0,3.184926910E0,2.608990787E0,5.880330450E0
9.882165583E0,-3.766795619E0,3.109034144E0,1.386125155E0,5.077025260E0
9.892131583E0,-2.557708367E0,5.501808929E-1,-3.881659493E-1,2.644852341E0
9.902096583E0,-2.212405578E0,-2.587619213E0,-2.128514844E0,4.015107355E0
9.912062583E0,-2.331996194E0,-3.849644818E0,-2.735458460E0,5.266944509E0
9.922028583E0,-2.637360892E0,-3.442113767E0,-2.812547859E0,5.168582506E0
9.931994583E0,-3.105288710E0,-2.855043375E0,-1.884958431E0,4.620298577E0
9.941959583E0,-3.846857158E0,-2.667080535E0,-7.114868617E-1,4.734748370E0
9.951925583E0,-4.471291550E0,-2.952485470E0,-1.218621138E-1,5.359521336E0
9.961891583E0,-4.770289507E0,-3.081503699E0,3.019882232E-2,5.679105475E0
9.971856583E0,-4.695923449E0,-3.339055422E0,6.767241414E-1,5.801632849E0
9.981822583E0,-4.463818223E0,-2.333503314E0,1.135997057E0,5.163467843E0
9.991788583E0,-3.358339539E0,-1.657483324E0,2.422880052E0,4.460498086E0
1.000175358E1,-2.559115499E0,-8.687845641E-1,2.540783308E0,3.709371723E0
1.001171958E1,-2.022101659E0,7.379244626E-2,2.631801067E0,3.319746572E0
1.002168558E1,-1.490463164E0,5.876223689E-1,2.747835846E0,3.180783288E0
1.003165058E1,-8.184303895E-1,9.646970272E-1,2.198393749E0,2.536415528E0
1.004161658E1,-3.764415510E-1,1.903226595E0,2.869939157E0,3.464178182E0
1.005158258E1,-1.305044447E-1,2.889267129E0,3.433352884E0,4.489187897E0
1.006154858E1,1.758623198E-1,3.558642928E0,3.197041172E0,4.787059567E0
1.007151358E1,3.184424342E-1,4.053889230E0,3.282414029E0,5.225865032E0
1.008147958E1,4.034111023E-1,4.192950636E0,3.176701340E0,5.275889210E0
1.009144558E1,4.544967636E-1,4.207960439E0,3.069617771E0,5.228389008E0
1.010141058E1,4.756306475E-1,4.109795043E0,2.992919551E0,5.106290949E0
1.011137658E1,4.625672369E-1,3.923803884E0,2.904389783E0,4.903640013E0
1.012134258E1,4.820647775E-1,3.591573277E0,2.798362513E0,4.578495147E0
1.013130758E1,4.304592986E-1,3.254933869E0,2.758069058E0,4.287987247E0
1.014127358E1,4.310513292E-1,2.881746440E0,2.692528787E0,3.967364246E0
1.015123958E1,4.970489985E-1,2.424839162E0,2.653005118E0,3.628407202E0
1.016120558E1,5.895852792E-1,2.050936033E0,2.639974013E0,3.394615177E0
1.017117058E1,7.021685927E-1,1.675733069E0,2.632048697E0,3.198249895E0
1.018113658E1,8.553102404E-1,1.216363528E0,2.644683068E0,3.034047523E0
1.019110258E1,9.898064330E-1,7.127013284E-1,2.586883634E0,2.860004702E0
1.020106758E1,1.103589449E0,2.062242794E-1,2.472742476E0,2.715675510E0
1.021103358E1,1.207997039E0,-3.018034512E-1,2.324079357E0,2.636605209E0
1.022099958E1,1.276928257E0,-7.484260619E-1,2.197987660E0,2.649874920E0
1.023096458E1,1.354667281E0,-1.325370246E0,1.946578436E0,2.716780694E0
1.024093058E1,1.411481898E0,-2.190723664E0,1.588221593E0,3.051884524E0
1.025089658E1,1.353160307E0,-3.165267987E0,1.095816745E0,3.612586135E0
1.026086158E1,1.244697234E0,-4.097176752E0,5.764553565E-1,4.320697782E0
1.027082758E1,1.172436320E0,-4.789167243E0,-2.319005728E-2,4.930645757E0
1.028079358E1,1.228017906E0,-5.132852545E0,-1.554944211E-1,5.279998271E0
1.029075958E1,1.307443267E0,-4.952591658E0,2.633211708E-1,5.129026230E0
1.030072458E1,1.415652132E0,-4.426761494E0,3.254431593E-1,4.658991472E0
1.031069058E1,1.418614332E0,-3.918488181E0,1.323733610E-1,4.169477060E0
1.032065658E1,1.558225669E0,-3.361269579E0,4.795558834E-1,3.735796336E0
1.033062158E1,1.716951261E0,-2.908948857E0,7.646009222E-1,3.463310505E0
1.034058758E1,1.610907035E0,-2.860071396E0,1.831304088E-1,3.287638456E0
1.035055358E1,1.341332560E0,-3.694172616E0,-7.424057686E-1,3.999656320E0
1.036051858E1,1.147546770E0,-4.682603492E0,-1.535654247E0,5.059829346E0
1.037048458E1,1.097391693E0,-5.076212322E0,-2.025760554E0,5.574576745E0
1.038045058E1,1.087420436E0,-5.175751812E0,-2.551692459E0,5.872139681E0
1.039041558E1,1.000687809E0,-5.234033350E0,-3.102139692E0,6.166015883E0
1.040038158E1,9.758324647E-1,-4.481440562E0,-3.221808808E0,5.604963024E0
1.041034758E1,9.341865483E-1,-2.234905225E0,-3.368828859E0,4.149278703E0
1.042031358E1,5.177306002E-1,9.502737004E-1,-4.280391068E0,4.415066566E0
1.043027858E1,3.749298996E-1,3.400905515E0,-3.310437102E0,4.760853343E0
1.044024458E1,6.699882951E-1,4.711146090E0,-1.531334616E0,4.998876624E0
1.045021058E1,8.565267536E-1,5.055530720E0,-8.343371549E-1,5.195011783E0
1.046017558E1,6.157930845E-1,4.268349897E0,-1.255125890E0,4.491475589E0
1.047014158E1,-1.986395636E-1,2.628890616E0,-2.263895866E0,3.475017703E0
1.048010758E1,-1.445444573E0,6.406168538E-1,-3.257065179E0,3.620521171E0
1.049007258E1,-2.690916125E0,-7.235005510E-1,-4.137883898E0,4.988643683E0
1.050003858E1,-3.101804062E0,-1.334136976E0,-4.950566182E0,5.992429844E0
1.051000458E1,-3.329032125E0,-1.442025121E0,-4.867733356E0,6.070973510E0
1.051996958E1,-3.500777712E0,-1.384618328E0,-3.452909482E0,5.108345759E0
1.052993558E1,-3.687985385E0,-5.242800665E-1,-1.854969817E0,4.161372226E0
1.053990158E1,-4.350343941E0,8.970950282E-1,-3.670194939E-1,4.457014157E0
1.054986758E1,-4.812150601E0,2.059441393E0,6.278096974E-1,5.271834337E0
1.055983258E1,-4.952540202E0,2.879727396E0,1.271704793E0,5.868365821E0
1.056979858E1,-4.635494229E0,3.025044739E0,1.317163386E0,5.689782228E0
1.057976458E1,-3.747861750E0,2.612899650E0,1.294471804E0,4.748617644E0
1.058972958E1,-2.708194063E0,2.404614812E0,1.109145766E0,3.787702708E0
1.059969558E1,-1.654039314E0,2.354452134E0,1.313001630E0,3.162793731E0
1.060966158E1,-6.895985408E-1,2.380030194E0,1.471149226E0,2.881730368E0
1.061962658E1,1.617111808E-1,2.253819214E0,1.746529694E0,2.855909229E0
1.062959258E1,5.305874580E-1,2.585171569E0,2.218684756E0,3.447781481E0
1.063955858E1,8.256584251E-1,2.743275602E0,2.709307080E0,3.943046756E0
1.064952358E1,7.248033106E-1,3.590703796E0,2.905317736E0,4.675399955E0
1.065948958E1,7.238776964E-1,4.107152687E0,2.918320774E0,5.090117705E0
1.066945558E1,4.994864103E-1,4.969959058E0,3.013876849E0,5.833818078E0
1.067942158E1,4.031175721E-1,4.280401009E0,2.790284000E0,5.125428897E0
1.068938658E1,-8.758149639E-2,4.727892516E0,2.823196223E0,5.507365529E0
1.069935258E1,-4.415795334E-1,5.128896319E0,2.403692706E0,5.681400229E0
1.070931858E1,-4.416004372E-1,3.667660171E0,1.575156866E0,4.015950850E0
1.071928358E1,-3.085502610E-1,2.233507156E0,1.077649154E0,2.499016842E0
1.072924958E1,-6.945156106E-1,1.335984696E0,8.382682380E-1,1.723339978E0
1.073921558E1,-1.244694749E0,6.551805139E-1,7.312326166E-1,1.585316266E0
1.074918058E1,-1.238926910E0,1.983749771E-1,5.438755479E-1,1.367513485E0
1.075914658E1,-9.014892107E-1,-1.999724364E-1,1.279286000E-1,9.322218079E-1
1.076911258E1,-5.414904687E-1,-5.042726487E-1,1.246015343E-1,7.503521668E-1
1.077907758E1,-3.023715082E-1,-8.999817985E-1,2.455336484E-1,9.806541384E-1
1.078904358E1,-1.176100186E-1,-1.229080052E0,3.417887583E-1,1.281128193E0
1.079900958E1,-1.860240497E-1,-2.051741195E0,3.053781465E-1,2.082667206E0
1.080897558E1,-3.294001164E-1,-2.916262554E0,3.230966717E-2,2.934984776E0
1.081894058E1,-3.245787947E-1,-3.348432602E0,-3.317052349E-1,3.380440895E0
1.082890658E1,-5.739733596E-1,-3.145072289E0,3.287597001E-3,3.197019851E0
1.083887258E1,-9.003204985E-1,-2.697390747E0,2.102895561E-1,2.851440958E0
1.084883758E1,-7.330230340E-1,-2.459515489E0,-4.481294382E-1,2.605256073E0
1.085880358E1,2.201723738E-1,-2.881919518E0,-1.891871010E0,3.454433658E0
1.086876958E1,1.864514665E0,-3.394940770E0,-4.364967242E0,5.835664212E0
1.087873458E1,4.099076512E0,-4.319303704E0,-8.305914871E0,1.021993320E1
1.088870058E1,5.364906900E0,-4.006688166E0,-1.450669411E1,1.597748260E1
1.089866658E1,3.903207360E0,-2.139137188E0,-1.510351240E1,1.574569853E1
1.090863158E1,2.089255469E0,1.611065787E-1,-9.943367972E0,1.016176709E1
1.091859758E1,1.428103486E0,1.305972692E0,-4.392023771E0,4.799470496E0
1.092856358E1,-1.109555290E0,2.327679487E0,3.487799817E-1,2.602086127E0
1.093852958E1,-3.892274528E0,2.722658320E0,2.595616158E0,5.412937518E0
1.094849458E1,-4.593220029E0,3.538135573E0,2.600452682E0,6.354402232E0
1.095846058E1,-3.587045486E0,2.232020209E0,1.102594545E0,4.366294111E0
1.096842658E1,-1.992114067E0,-9.874801183E-1,-1.162601303E0,2.509039105E0
1.097839158E1,-8.468088274E-1,-3.904774121E0,-3.030972938E0,5.015091532E0
1.098835758E1,-2.584538023E-1,-4.971586338E0,-3.160557762E0,5.896829186E0
1.099832358E1,-4.411591186E-1,-4.822912694E0,-1.909843012E0,5.206016572E0
1.100828858E1,-1.417151358E0,-4.677980683E0,-1.317354298E0,5.062335784E0
1.101825458E1,-2.602910559E0,-4.175577974E0,-2.210919946E-1,4.925390996E0
1.102822046E1,-3.544410513E0,-3.354438862E0,7.332595539E-1,4.934853142E0
1.103818546E1,-4.101321843E0,-2.412174677E0,1.586137353E0,5.015501893E0
1.104815146E1,-4.263867422E0,-1.165976316E0,1.884749393E0,4.805449660E0
1.105811746E1,-3.955135605E0,-4.381447327E-1,1.483642971E0,4.246912399E0
1.106808346E1,-4.042455000E0,1.899812990E-1,1.575722584E0,4.342860461E0
1.107804846E1,-3.430615802E0,7.887174708E-1,3.253460079E0,4.793349822E0
1.108801446E1,-2.925190083E0,1.384321874E0,3.532838873E0,4.791036900E0
1.109798046E1,-2.586410009E0,2.204503212E0,3.433755465E0,4.831151803E0
1.110794546E1,-2.158023695E0,2.797709087E0,3.272799160E0,4.816166187E0
1.111791146E1,-1.613422946E0,3.333382453E0,3.509056785E0,5.101769468E0
1.112787746E1,-1.104942056E0,3.796155074E0,3.449433019E0,5.246930383E0
1.113784246E1,-7.104444493E-1,4.118168256E0,3.226503830E0,5.279618174E0
1.114780846E1,-5.021929403E-1,4.204025847E0,3.151181459E0,5.277876056E0
1.115777446E1,-3.811704867E-1,4.144639771E0,3.082730445E0,5.179435951E0
1.116774046E1,-3.283416241E-1,3.928368806E0,2.990193287E0,4.947842519E0
1.117770546E1,-3.201944062E-1,3.642801903E0,2.965518037E0,4.708166032E0
1.118767146E1,-3.148404032E-1,3.267167999E0,2.926436417E0,4.397447136E0
1.119763746E1,-2.992961651E-1,2.902114046E0,2.927016753E0,4.132707491E0
1.120760246E1,-1.959925291E-1,2.592824405E0,3.009349350E0,3.977101328E0
1.121756846E1,-1.037107484E-1,2.366808470E0,3.108197408E0,3.908123511E0
1.122753446E1,9.393902779E-2,2.088466972E0,3.177070884E0,3.803195792E0
1.123749946E1,3.121477604E-1,1.749058907E0,3.253810911E0,3.707280504E0
1.124746546E1,5.087380211E-1,1.291232446E0,3.219023779E0,3.505454278E0
1.125743146E1,7.262054729E-1,7.250740367E-1,3.073329584E0,3.240132941E0
1.126739646E1,9.008433858E-1,1.101001471E-1,2.881122542E0,3.020680048E0
1.127736246E1,9.859674436E-1,-4.776473522E-1,2.711532238E0,2.924497542E0
1.128732846E1,1.020080538E0,-1.007653012E0,2.534983163E0,2.912399103E0
1.129729446E1,1.089005762E0,-1.539504054E0,2.291889265E0,2.967955978E0
1.130725946E1,1.129754862E0,-2.051026080E0,2.040080970E0,3.105637518E0
1.131722546E1,1.164389382E0,-2.560249566E0,1.737419440E0,3.305950209E0
1.132719146E1,1.228616807E0,-3.174195516E0,1.337275761E0,3.656955413E0
1.133715646E1,1.213706407E0,-3.800183221E0,1.011901014E0,4.115631108E0
1.134712246E1,1.270702288E0,-4.233212809E0,7.035115519E-1,4.475455674E0
1.135708846E1,1.434288378E0,-4.427594138E0,4.172719270E-1,4.672781705E0
1.136705346E1,1.566254480E0,-4.344391183E0,2.370265344E-1,4.624183109E0
1.137701946E1,1.703674866E0,-4.165151219E0,4.980132043E-2,4.500385861E0
1.138698546E1,1.768166438E0,-3.896697362E0,-1.077621379E-1,4.280452729E0
1.139695046E1,1.789640923E0,-3.546024052E0,-2.530552143E-1,3.980092731E0
1.140691646E1,1.864300803E0,-3.306653076E0,-3.949510583E-1,3.816485083E0
1.141688246E1,1.887719779E0,-3.363952281E0,-6.331704247E-1,3.909036416E0
1.142684846E1,1.847614312E0,-3.994597294E0,-1.122334453E0,4.542039279E0
1.143681346E1,1.848621787E0,-4.817096468E0,-1.744053983E0,5.446424992E0
1.144677946E1,1.954720684E0,-4.998590534E0,-2.267895216E0,5.826679070E0
1.145674546E1,2.089908310E0,-4.518127162E0,-2.990345022E0,5.807181171E0
1.146671046E1,2.210723480E0,-3.241765940E0,-5.484666063E0,6.743730906E0
1.147667646E1,1.929355170E0,-7.076774007E-1,-9.209212625E0,9.435720208E0
1.148664246E1,1.297820797E0,-4.041151071E-1,-6.799509566E0,6.934044864E0
1.149660746E1,1.102882521E0,-7.426425809E-1,-3.084085537E0,3.358489460E0
1.150657346E1,1.624672843E0,7.191584086E-1,-1.808984681E0,2.535582032E0
1.151653946E1,1.623073337E0,3.586175712E0,-1.081896279E0,4.082342814E0
1.152650546E1,3.969075367E-1,5.147129692E0,-1.812098762E0,5.471213904E0
1.153647046E1,-1.408134075E0,5.022600955E0,-3.542176584E0,6.305265806E0
1.154643646E1,-2.212130905E0,3.047792162E0,-4.635756769E0,5.972671180E0
1.155640246E1,-2.562822341E0,7.324386048E-1,-4.513593231E0,5.241855446E0
1.156636746E1,-2.610710453E0,-9.142378950E-1,-3.889217019E0,4.772593532E0
1.157633346E1,-2.479001336E0,-1.875722462E0,-2.854634070E0,4.220511586E0
1.158629946E1,-2.241433641E0,-2.362123096E0,-1.722124000E0,3.683661407E0
1.159626446E1,-1.981175973E0,-1.973967964E0,-7.985679826E-1,2.908490774E0
1.160623046E1,-1.779953548E0,-1.034344382E0,9.497281551E-2,2.060854864E0
1.161619646E1,-1.703511436E0,3.132558078E-1,8.459772071E-1,1.927630112E0
1.162616146E1,-1.753733756E0,1.514559832E0,1.470958314E0,2.744666087E0
1.163612746E1,-2.330224634E0,2.451469721E0,1.836568629E0,3.848718613E0
1.164609346E1,-2.620061905E0,2.606633189E0,1.764458134E0,4.095433246E0
1.165605846E1,-2.620404259E0,2.580882636E0,1.456158719E0,3.955739106E0
1.166602446E1,-2.196685192E0,2.633627445E0,1.156097738E0,3.619113335E0
1.167599046E1,-1.494132291E0,2.558670818E0,9.147825631E-1,3.100976427E0
1.168595646E1,-9.347130901E-1,2.745222141E0,8.072955367E-1,3.010259000E0
1.169592146E1,-5.149888408E-1,2.971038101E0,9.854789087E-1,3.172294057E0
1.170588746E1,-2.580151150E-1,3.326642368E0,1.237748257E0,3.558811879E0
1.171585346E1,-2.472917600E-1,4.123332517E0,1.725507784E0,4.476650687E0
1.172581846E1,-3.873368141E-1,4.426743368E0,1.778017827E0,4.786171126E0
1.173578446E1,-3.993934804E-1,4.150108087E0,1.717323729E0,4.509114445E0
1.174575046E1,-3.879115954E-1,3.690147393E0,1.632824446E0,4.053859748E0
1.175571546E1,-4.218080507E-1,3.184744477E0,1.600882569E0,3.589337601E0
1.176568146E1,-6.979761390E-1,3.160163952E0,1.639806606E0,3.628053555E0
1.177564746E1,-9.575138690E-1,2.981263127E0,1.492790940E0,3.468888501E0
1.178561346E1,-1.036477154E0,2.406529775E0,1.354779109E0,2.949762174E0
1.179557846E1,-1.011271269E0,1.752702307E0,1.258831270E0,2.383126334E0
1.180554446E1,-1.078959076E0,1.321347361E0,1.203179518E0,2.087523051E0
1.181551046E1,-8.876386186E-1,7.980139589E-1,1.294162779E0,1.760564084E0
1.182547546E1,-6.637165716E-1,5.464012527E-1,1.426475036E0,1.665504442E0
1.183544146E1,-4.306968418E-1,5.411288184E-1,1.527385992E0,1.676671743E0
1.184540746E1,-1.901824433E-1,3.935345703E-1,1.584306882E0,1.643492353E0
1.185537246E1,-5.037814826E-3,-1.023023003E-1,1.551998676E0,1.555374885E0
1.186533846E1,9.013672963E-2,-7.253085101E-1,1.320265919E0,1.509072285E0
1.187530446E1,9.234741569E-2,-1.296602529E0,1.283306253E0,1.826631080E0
1.188526946E1,5.989741534E-2,-1.953124979E0,1.106094396E0,2.245379633E0
1.189523546E1,1.252111065E-1,-2.559520419E0,7.675403175E-1,2.675059015E0
1.190520146E1,5.911330372E-2,-2.918040107E0,4.907030153E-1,2.959601646E0
1.191516746E1,-7.098695219E-2,-3.026950346E0,1.378399229E-1,3.030918572E0
1.192513246E1,-1.288362341E-1,-2.963723819E0,-3.999071583E-1,2.993356541E0
1.193509846E1,2.602775489E-1,-2.959455351E0,-1.099310164E0,3.167744184E0
1.194506446E1,9.061873023E-1,-2.963755978E0,-2.056253783E0,3.719301621E0
1.195502946E1,2.606899238E0,-4.107087783E0,-5.539841559E0,7.372512339E0
1.196499546E1,5.428063846E0,-6.082481298E0,-1.266576843E1,1.506260754E1
1.197496146E1,5.714913628E0,-5.812371510E0,-1.777673309E1,1.955648588E1
1.198492646E1,1.366821450E0,-2.704926054E0,-1.159216584E1,1.198178345E1
1.199489246E1,-1.980419928E0,-1.335812203E0,-3.696751530E0,4.401412184E0
1.200485846E1,-3.871351144E0,5.080745083E-1,1.589436936E0,4.215662363E0
1.201482446E1,-3.924594136E0,2.336635083E0,3.085088042E0,5.511811940E0
1.202478946E1,-3.227265137E0,3.590218477E0,3.006674249E0,5.687266392E0
1.203475546E1,-2.813085510E0,3.880133370E0,2.318739679E0,5.324043459E0
1.204472146E1,-1.560863201E0,2.473157043E0,1.226485643E-1,2.927087694E0
1.205468646E1,-2.812484416E-1,6.701844692E-2,-2.617294418E0,2.633215188E0
1.206465246E1,-7.323038265E-2,-1.907085757E0,-3.053189434E0,3.600597797E0
1.207461846E1,-7.978771341E-1,-3.351272010E0,-1.948238461E0,3.957684311E0
1.208458346E1,-1.575858825E0,-4.967806113E0,-1.378331109E0,5.390939181E0
1.209454946E1,-1.884745154E0,-5.490574674E0,-1.144797994E0,5.916860400E0
1.210451546E1,-2.133728660E0,-4.745968598E0,-5.921764728E-1,5.237145110E0
1.211448146E1,-2.213069383E0,-3.330496852E0,5.479624593E-1,4.036105578E0
1.212444646E1,-1.957122720E0,-1.938969455E0,1.328820395E0,3.058708148E0
1.213441246E1,-1.846640312E0,-9.767189026E-1,2.017327115E0,2.904077985E0
1.214437846E1,-1.984562973E0,-3.005919081E-1,2.597797754E0,3.282894890E0
1.215434346E1,-2.066489773E0,1.142136633E-1,2.887324976E0,3.552473823E0
1.216430946E1,-1.990471876E0,4.891441476E-1,3.196289220E0,3.797038986E0
1.217427546E1,-1.713466467E0,9.479564488E-1,3.464515912E0,3.979630544E0
1.218424046E1,-1.537647270E0,1.590584745E0,3.596374426E0,4.222348632E0
1.219420646E1,-1.263706679E0,2.100337404E0,3.630975909E0,4.380908334E0
1.220417246E1,-8.924222258E-1,2.561392697E0,3.584341733E0,4.494958914E0
1.221413746E1,-6.725311030E-1,3.069619233E0,3.553221682E0,4.743442278E0
1.222410346E1,-5.507784784E-1,3.420735177E0,3.476268231E0,4.908077719E0
1.223406946E1,-4.355247416E-1,3.517038819E0,3.350677933E0,4.877118664E0
1.224403546E1,-3.366033013E-1,3.482278876E0,3.238932087E0,4.767625092E0
1.225400046E1,-1.862577921E-1,3.321951731E0,3.083962745E0,4.536615642E0
1.226396646E1,-1.118451025E-1,3.211912395E0,2.988916255E0,4.388907716E0
1.227393246E1,-1.501564980E-3,3.127676822E0,3.010458567E0,4.341108768E0
1.228389746E1,1.420744765E-1,3.012815872E0,3.059725159E0,4.296412769E0
1.229386346E1,2.272229464E-1,2.819281220E0,3.137413021E0,4.224137465E0
1.230382946E1,3.674339153E-1,2.414321190E0,3.168049507E0,4.000061521E0
1.231379446E1,5.669831595E-1,1.894675042E0,3.128366209E0,3.701072622E0
1.232376046E1,7.269258499E-1,1.277890270E0,2.986102282E0,3.328397749E0
1.233372646E1,8.744091471E-1,5.455539912E-1,2.738917380E0,2.926412297E0
1.234369246E1,1.004735105E0,-1.009896004E-1,2.456731045E0,2.656166215E0
1.235365746E1,1.128093814E0,-5.526992887E-1,2.236748852E0,2.565368898E0
1.236362346E1,1.237147602E0,-7.384770244E-1,2.064804459E0,2.517796648E0
1.237358946E1,1.346318042E0,-8.918126535E-1,1.888840690E0,2.485079723E0
1.238355446E1,1.325561888E0,-1.207171705E0,1.647328464E0,2.434762599E0
1.239352046E1,1.290196612E0,-1.805615516E0,1.213482605E0,2.529307162E0
1.240348646E1,1.249477772E0,-2.597210986E0,6.877778640E-1,2.963062267E0
1.241345146E1,1.149319061E0,-3.485898303E0,4.897335470E-1,3.703006917E0
1.242341746E1,1.081122400E0,-3.988917893E0,1.016731399E-1,4.134081401E0
1.243338346E1,1.129644642E0,-4.188071135E0,-2.557960966E-1,4.345281175E0
1.244334946E1,1.203156129E0,-3.998008559E0,-4.557679483E-1,4.199926373E0
1.245331446E1,1.284932656E0,-3.734568690E0,-6.140243018E-1,3.996883921E0
1.246328046E1,1.331891353E0,-3.360504763E0,-7.191885218E-1,3.685669406E0
1.247324646E1,1.392522009E0,-2.954040830E0,-7.585730276E-1,3.352746308E0
1.248321146E1,1.480170602E0,-2.734958523E0,-1.089972161E0,3.295290950E0
1.249317746E1,1.460104712E0,-2.904865161E0,-1.786983655E0,3.709913471E0
1.250314346E1,1.486659550E0,-3.558757533E0,-2.974351718E0,4.870490729E0
1.251310846E1,1.608764323E0,-4.418624509E0,-5.203793889E0,7.013689189E0
1.252307446E1,1.679629361E0,-3.686770041E0,-9.537945428E0,1.036271350E1
1.253304046E1,8.176258126E-1,-2.207357823E0,-1.112340392E1,1.136974297E1
1.254300646E1,-1.129553425E-1,-3.231821580E0,-8.145381904E0,8.763827702E0
1.255297146E1,-2.334170482E-1,-4.574698389E0,-5.686922421E0,7.302289743E0
1.256293746E1,2.790069115E-1,-4.192316213E0,-3.906370411E0,5.736993104E0
1.257290346E1,8.402121449E-1,-1.721116818E0,-1.942524562E0,2.727929842E0
1.258286846E1,1.235261144E0,1.195610005E0,-2.709998806E-1,1.740343160E0
1.259283446E1,1.413878087E0,3.314784799E0,1.346445219E0,3.847046170E0
1.260280046E1,1.377561031E0,4.733949062E0,1.393732529E0,5.123518173E0
1.261276546E1,1.119231336E0,4.750075098E0,5.347899981E-1,4.909367837E0
1.262273146E1,6.305573040E-1,3.445359557E0,1.134114254E-1,3.504421085E0
1.263269746E1,-3.867582321E-2,1.643704945E0,-1.761146271E-1,1.653565277E0
1.264266346E1,-7.347830459E-1,-4.902773380E-2,-6.892092624E-1,1.008622452E0
1.265262846E1,-1.337642089E0,-1.366491374E0,-1.130150426E0,2.221221516E0
1.266259446E1,-2.057383465E0,-1.999115669E0,-1.142763747E0,3.087911781E0
1.267256046E1,-2.621618141E0,-1.957044368E0,-7.538815141E-1,3.357266995E0
1.268252546E1,-3.261123439E0,-9.902686554E-1,-2.261986604E-1,3.415658638E0
1.269249146E1,-3.730493765E0,2.894079387E-1,2.731652507E-1,3.751660958E0
1.270245746E1,-3.986562050E0,1.598546898E0,6.525600842E-1,4.344406039E0
1.271242346E1,-4.194307775E0,2.604667355E0,9.160411763E-1,5.021517816E0
1.272238846E1,-4.100327817E0,2.722105758E0,9.076951531E-1,5.004643689E0
1.273235446E1,-3.804695517E0,2.694349025E0,1.018217762E0,4.772000844E0
1.274232046E1,-3.064859307E0,2.551905590E0,9.288158807E-1,4.094909480E0
1.275228546E1,-1.981223189E0,2.093508441E0,5.551627207E-1,2.935341303E0
1.276225146E1,-1.105819285E0,1.809938947E0,5.592472932E-1,2.193506968E0
1.277221746E1,-3.096445674E-1,1.821246293E0,8.525240421E-1,2.034604399E0
1.278218246E1,1.822618049E-1,2.513594048E0,1.154338895E0,2.771979922E0
1.279214846E1,2.646546283E-1,3.468728539E0,1.266094097E0,3.702041870E0
1.280211446E1,2.833160171E-1,3.957441747E0,1.292667353E0,4.172841002E0
1.281207946E1,4.774716434E-1,4.014233413E0,1.486179493E0,4.307061475E0
1.282204546E1,6.778086537E-1,3.825495817E0,1.558606030E0,4.186059672E0
1.283201146E1,6.827214843E-1,3.476115911E0,1.938518927E0,4.038235516E0
1.284197746E1,5.250536531E-1,3.455785727E0,2.048669945E0,4.051565731E0
1.285194246E1,2.514928383E-1,3.203354411E0,1.654832196E0,3.614304598E0
1.286190846E1,-1.489057785E-1,2.774970435E0,1.850093531E0,3.338484674E0
1.287187446E1,-2.510490346E-1,2.355077201E0,2.071393394E0,3.146440026E0
1.288183946E1,-3.022101250E-1,2.177972056E0,2.245566746E0,3.142843178E0
1.289180546E1,-3.525224921E-1,2.133741378E0,2.158457558E0,3.055497243E0
1.290177146E1,-2.423749825E-1,1.825128844E0,1.845477447E0,2.606842522E0
1.291173646E1,-1.759231308E-1,1.357103670E0,1.382420944E0,1.945190732E0
1.292170246E1,-5.780773741E-1,4.194675565E-1,9.023268244E-1,1.150791110E0
1.293166846E1,-3.984234273E-1,-1.214842082E0,2.400515914E-1,1.300848676E0
1.294163446E1,9.563881338E-2,-2.373189536E0,-2.838867053E-1,2.392021534E0
1.295159946E1,5.488997680E-1,-2.243010635E0,7.119043529E-2,2.310293432E0
1.296156546E1,6.615324904E-1,-1.860239620E0,6.268177173E-1,2.071477040E0
1.297153146E1,3.615894771E-1,-1.785194115E0,7.670196229E-1,1.976356263E0
1.298149646E1,-2.635974517E-1,-2.055217364E0,7.496311730E-1,2.203485631E0
1.299146246E1,-1.190057489E0,-2.415255575E0,6.900755274E-1,2.779550423E0
1.300142846E1,-1.557085023E0,-3.182827175E0,-2.512756142E-1,3.552188344E0
1.301139446E1,-1.056303016E0,-3.558027216E0,-1.719262666E0,4.090378692E0
1.302135971E1,1.093726219E0,-5.085407653E0,-5.189783376E0,7.347888100E0
1.303132571E1,4.033898184E0,-6.550812866E0,-1.045107937E1,1.297730880E1
1.304129171E1,4.451579416E0,-5.196824593E0,-1.299283945E1,1.468459813E1
1.305125671E1,2.808044626E0,-2.228444052E0,-1.121626355E1,1.177521318E1
1.306122271E1,2.495133803E0,-4.257129675E-1,-9.670486604E0,9.996261070E0
1.307118871E1,3.976520042E0,1.239845361E0,-5.721307558E0,7.076954736E0
1.308115371E1,1.861731975E0,1.475754200E0,-4.686187250E0,5.253974434E0
1.309111971E1,-2.482276361E0,2.199602076E0,-1.747433966E0,3.748795899E0
1.310108571E1,-4.059859237E0,3.653517510E0,2.182543701E0,5.881678692E0
1.311105171E1,-4.386331506E0,3.995535772E0,2.847347855E0,6.581154913E0
1.312101671E1,-3.282564302E0,2.513797531E0,2.007425732E0,4.596103186E0
1.313098271E1,-2.093414739E0,9.092373562E-1,3.976825851E-1,2.316732457E0
1.314094871E1,-1.864133134E0,-2.319631380E-1,-1.342435929E0,2.308881431E0
1.315091371E1,-2.195419855E0,-7.121943748E-1,-2.047287371E0,3.085202545E0
1.316087971E1,-2.800783261E0,-1.374492120E0,-1.446752011E0,3.438997941E0
1.317084571E1,-3.666878983E0,-3.507665148E0,-5.185764000E-1,5.100846768E0
1.318081071E1,-4.367587672E0,-5.626959225E0,-6.510991573E-1,7.152791225E0
1.319077671E1,-4.764798387E0,-5.997311924E0,1.470320383E-1,7.661114305E0
1.320074271E1,-4.055725256E0,-5.185205591E0,9.256826502E-1,6.647717859E0
1.321070871E1,-3.239596330E0,-3.567119052E0,2.041516461E0,5.233269740E0
1.322067371E1,-2.499931444E0,-1.719702961E0,2.610686479E0,4.002838916E0
1.323063971E1,-1.831660330E0,-7.243261778E-1,2.664460690E0,3.313454202E0
1.324060571E1,-1.683835994E0,-1.983328772E-1,3.249348316E0,3.665092641E0
1.325057071E1,-1.557267018E0,-8.663351655E-2,3.312786221E0,3.661575955E0
1.326053671E1,-1.253742000E0,-6.662317514E-3,3.257342045E0,3.490299498E0
1.327050271E1,-8.505789658E-1,3.729552948E-1,3.304936919E0,3.432956199E0
1.328046771E1,-4.621250412E-1,1.031898492E0,3.371682008E0,3.556207758E0
1.329043371E1,-1.868637098E-1,1.794386523E0,3.430709358E0,3.876145990E0
1.330039971E1,-3.027103543E-2,2.528449484E0,3.528482113E0,4.340985965E0
1.331036571E1,9.198693484E-2,3.073845016E0,3.551657259E0,4.698005328E0
1.332033071E1,1.255142847E-1,3.462172056E0,3.570526517E0,4.975042591E0
1.333029671E1,5.908889160E-2,3.722496529E0,3.577370098E0,5.163143298E0
1.334026271E1,4.143410102E-2,3.745650333E0,3.498213708E0,5.125340218E0
1.335022771E1,3.325940117E-2,3.682110980E0,3.432411775E0,5.033934648E0
1.336019371E1,3.028872326E-2,3.514267824E0,3.416113246E0,4.901104513E0
1.337015971E1,1.035360628E-1,3.321050676E0,3.375702261E0,4.736608815E0
1.338012471E1,1.282443497E-1,3.011138306E0,3.347945529E0,4.504679764E0
1.339009071E1,2.156909215E-1,2.778451867E0,3.390260366E0,4.388642467E0
1.340005671E1,4.506380399E-1,2.485677102E0,3.392580249E0,4.229806857E0
1.341002271E1,6.829895791E-1,2.127484857E0,3.408239385E0,4.075384925E0
1.341998771E1,8.687393944E-1,1.707431994E0,3.373063705E0,3.879122441E0
1.342995371E1,1.006450971E0,1.199166867E0,3.256300656E0,3.613092677E0
1.343991971E1,1.102502890E0,6.276260948E-1,3.071684470E0,3.323352617E0
1.344988471E1,1.188268972E0,9.479213655E-2,2.808344588E0,3.050863488E0
1.345985071E1,1.207887550E0,-3.366294676E-1,2.622556619E0,2.906908143E0
1.346981671E1,1.178190565E0,-7.854190564E-1,2.452917199E0,2.832281569E0
1.347978171E1,1.183525418E0,-1.281088697E0,2.203513571E0,2.810230012E0
1.348974771E1,1.150034029E0,-2.006191385E0,1.797414796E0,2.928836303E0
1.349971371E1,1.099674884E0,-2.895543530E0,1.196779448E0,3.320502708E0
1.350967971E1,1.045871876E0,-4.028719890E0,9.888211772E-1,4.278106971E0
1.351964471E1,1.020489405E0,-4.931477947E0,8.166127825E-1,5.101737920E0
1.352961071E1,1.019949999E0,-5.365899757E0,5.091655988E-1,5.485656552E0
1.353957671E1,1.126334825E0,-5.498740311E0,2.898909187E-1,5.620392503E0
1.354954171E1,1.260658233E0,-5.310859331E0,1.227660933E-1,5.459812958E0
1.355950771E1,1.396680549E0,-4.867027597E0,1.478877783E-1,5.065623849E0
1.356947371E1,1.472703708E0,-4.475852963E0,2.070645243E-1,4.716459654E0
1.357943871E1,1.445882822E0,-4.002802691E0,-1.576666617E-1,4.258857276E0
1.358940471E1,1.342109655E0,-3.772093781E0,-5.501519492E-1,4.041363258E0
1.359937071E1,1.206268018E0,-4.097446893E0,-1.080480960E0,4.405858904E0
1.360933671E1,1.086943011E0,-4.863275439E0,-1.976164763E0,5.360794742E0
1.361930171E1,1.121751485E0,-5.379374081E0,-2.889831677E0,6.208632621E0
1.362926771E1,1.359219485E0,-4.865948786E0,-4.138865938E0,6.531090754E0
1.363923371E1,1.783902465E0,-2.337083564E0,-8.903250049E0,9.376146812E0
1.364919871E1,1.380444877E0,9.306235474E-1,-1.348573284E1,1.358810798E1
1.365916471E1,5.734647980E-1,-5.669980699E-1,-8.271045585E0,8.310267369E0
1.366913071E1,2.191904801E-1,-2.425608070E0,-4.463171521E0,5.084438908E0
1.367909671E1,8.921877524E-1,-2.033917127E0,-3.184334003E0,3.882370527E0
1.368906171E1,1.452785168E0,1.101868613E0,-1.767271668E0,2.539281066E0
1.369902771E1,1.063633963E0,3.916358625E0,-1.002203407E0,4.180142791E0
1.370899371E1,4.115974966E-1,4.718848627E0,-8.079365377E-1,4.805174952E0
1.371895871E1,3.135920227E-2,4.013617702E0,-1.685747595E0,4.353372877E0
1.372892471E1,-4.439059943E-1,2.524909580E0,-1.522158142E0,2.981473852E0
1.373889071E1,-5.213658142E-1,4.874648273E-1,-1.555884444E0,1.711788735E0
1.374885571E1,-8.515227064E-1,-1.114797392E0,-1.781529957E0,2.267534594E0
1.375882171E1,-1.231838184E0,-1.846148415E0,-1.812766953E0,2.865626163E0
1.376878771E1,-1.566656769E0,-1.918177925E0,-1.615305896E0,2.956862040E0
1.377875371E1,-1.484321102E0,-1.507281802E0,-1.145968314E0,2.405899196E0
1.378871871E1,-1.417745143E0,-5.460165060E-1,-3.474257666E-1,1.558473606E0
1.379868471E1,-1.680267292E0,8.070256877E-1,6.902296016E-1,1.987713645E0
1.380865071E1,-1.924915380E0,1.947809860E0,1.339563192E0,3.048555726E0
1.381861571E1,-2.469196724E0,2.819353141E0,1.617567599E0,4.081936983E0
1.382858171E1,-2.787195793E0,3.241061935E0,1.439276053E0,4.510483168E0
1.383854771E1,-3.196784479E0,3.309893019E0,1.296943130E0,4.780887395E0
1.384851271E1,-3.436714448E0,3.116670608E0,1.290789520E0,4.815680581E0
1.385847871E1,-3.272799452E0,2.907699307E0,1.479504897E0,4.621132572E0
1.386844471E1,-2.668457262E0,2.381671507E0,1.331789904E0,3.816633029E0
1.387841071E1,-2.072558160E0,2.064953563E0,1.201187664E0,3.162654320E0
1.388837571E1,-1.681211910E0,1.980000536E0,1.198599687E0,2.860684676E0
1.389834171E1,-1.263108216E0,2.249572381E0,1.415689262E0,2.942820815E0
1.390830771E1,-8.207549500E-1,2.700216706E0,1.883033820E0,3.392731248E0
1.391827271E1,-3.995300129E-1,3.177605612E0,2.253471597E0,3.915984664E0
1.392823871E1,-1.944520801E-1,3.784769375E0,2.429343857E0,4.501555554E0
1.393820471E1,-9.889395833E-3,4.283239247E0,2.450551123E0,4.934717525E0
1.394816971E1,1.052185991E-1,4.316490608E0,2.247479955E0,4.867682023E0
1.395813571E1,-1.394888377E-1,4.301544541E0,2.151144738E0,4.811461966E0
1.396810171E1,-8.628882319E-2,3.654246658E0,1.707749498E0,4.034522617E0
1.397806771E1,9.200593829E-3,3.011710163E0,1.553984976E0,3.389004583E0
1.398803271E1,-2.430415651E-1,3.180982963E0,1.921745604E0,3.724356049E0
1.399799871E1,-1.093774313E-1,2.983365201E0,1.665956232E0,3.418748530E0
1.400796471E1,1.637846035E-1,2.540090706E0,1.316851437E0,2.865830403E0
1.401792971E1,2.283422497E-1,1.888904425E0,1.053068336E0,2.174638598E0
1.402789500E1,-1.869609198E-1,9.869170314E-1,8.482798406E-1,1.314738872E0
1.403786100E1,-3.791284928E-1,-4.541924161E-1,5.163594282E-1,7.852746169E-1
1.404782600E1,-7.335905063E-1,-1.857863896E0,3.127582097E-1,2.021789055E0
1.405779200E1,-6.574027482E-1,-2.911999934E0,1.067087620E-1,2.987190779E0
1.406775800E1,-4.121447960E-1,-3.372788594E0,3.698556858E-1,3.417946673E0
1.407772400E1,-5.533290339E-1,-3.454250833E0,5.176259351E-1,3.536376457E0
1.408768900E1,-8.047407420E-1,-3.558111416E0,1.942319325E-1,3.653148034E0
1.409765500E1,-1.079407558E0,-3.576025531E0,8.213963896E-2,3.736285079E0
1.410762100E1,-1.137248507E0,-3.270887412E0,2.628946164E-1,3.472916960E0
1.411758600E1,-4.709400111E-1,-2.897026384E0,2.619435668E-2,2.935171632E0
1.412755200E1,7.789587602E-1,-2.731820322E0,-6.172502106E-1,2.906994470E0
1.413751800E1,1.991194300E0,-3.009920915E0,-1.827993687E0,4.045496209E0
1.414748400E1,4.688247809E0,-5.153069293E0,-6.609687311E0,9.603215972E0
1.415744900E1,6.752444158E0,-6.902508270E0,-1.205288667E1,1.544384019E1
1.416741500E1,4.568483384E0,-5.493536289E0,-1.223044790E1,1.416452743E1
1.417738100E1,1.953710432E-1,-2.545947277E0,-7.829670850E0,8.235518381E0
1.418734600E1,-1.837234042E0,-1.204670266E0,-4.446498478E0,4.959637899E0
1.419731200E1,-3.108175188E0,5.125552297E-1,-1.563854783E0,3.516974218E0
1.420727800E1,-3.141162840E0,1.672622350E0,8.409909940E-1,3.656752024E0
1.421724300E1,-2.772014667E0,3.113506680E0,2.314612130E0,4.768167203E0
1.422720900E1,-1.993636828E0,3.624031756E0,1.501909965E0,4.400446286E0
1.423717500E1,-1.173792289E0,3.065201662E0,-6.422055423E-1,3.344499592E0
1.424714100E1,-1.070938743E0,1.917839956E0,-2.408802003E0,3.259961193E0
1.425710600E1,-1.576062161E0,6.175133353E-1,-2.559441189E0,3.068555663E0
1.426707200E1,-1.876357616E0,-1.010110012E0,-1.742884540E0,2.752941456E0
1.427703800E1,-1.722323683E0,-2.889296950E0,-1.831156154E0,3.829826183E0
1.428700300E1,-1.758355395E0,-4.430817708E0,-2.114863057E0,5.215036434E0
1.429696900E1,-1.919742640E0,-5.183884120E0,-1.850516577E0,5.829449200E0
1.430693500E1,-1.880646695E0,-4.739497485E0,-1.045163485E0,5.205000971E0
1.431690000E1,-1.621645739E0,-3.224118458E0,-1.348134041E-2,3.608996603E0
1.432686600E1,-1.367563169E0,-1.539782381E0,1.097626751E0,2.333654492E0
1.433683200E1,-1.141378250E0,-5.432273841E-1,1.812959619E0,2.210127344E0
1.434679800E1,-1.066462115E0,9.263977647E-2,2.243883332E0,2.486148825E0
1.435676300E1,-1.132530974E0,7.102905214E-1,2.173067704E0,2.551345189E0
1.436672900E1,-1.193458376E0,1.092052308E0,2.859396335E0,3.285280588E0
1.437669500E1,-1.074964697E0,1.473172070E0,3.459316860E0,3.910582845E0
1.438666000E1,-1.045774227E0,2.068442012E0,3.492419118E0,4.191549521E0
1.439662600E1,-1.074994518E0,2.591460834E0,3.767751639E0,4.697577555E0
1.440659200E1,-9.981887090E-1,3.051958888E0,3.811685863E0,4.983952535E0
1.441655700E1,-9.100286306E-1,3.308413673E0,3.638717915E0,5.001401924E0
1.442652300E1,-9.056053582E-1,3.361286536E0,3.568281771E0,4.985078037E0
1.443648900E1,-9.132789516E-1,3.401441705E0,3.645180843E0,5.068651447E0
1.444645500E1,-8.644764818E-1,3.499964949E0,3.632390058E0,5.117746747E0
1.445642000E1,-7.500020327E-1,3.570678837E0,3.492445138E0,5.050685443E0
1.446638600E1,-5.719705421E-1,3.629748579E0,3.411571713E0,5.014084822E0
1.447635200E1,-4.480642417E-1,3.685827470E0,3.439814934E0,5.061463473E0
1.448631700E1,-1.976364738E-1,3.627158262E0,3.385689598E0,4.965705518E0
1.449628300E1,1.676234467E-1,3.383456254E0,3.252139777E0,4.695986262E0
1.450624900E1,5.335493651E-1,2.966511186E0,3.169559843E0,4.373896791E0
1.451621400E1,8.015344213E-1,2.404438226E0,3.114809732E0,4.015696736E0
1.452618000E1,9.299771377E-1,1.687882998E0,2.985824247E0,3.553723811E0
1.453614600E1,1.074989840E0,8.762116975E-1,2.692957096E0,3.029086994E0
1.454611200E1,1.177700861E0,6.623725891E-2,2.283798181E0,2.570428140E0
1.455607700E1,1.222095407E0,-6.664527762E-1,1.870130477E0,2.331322476E0
1.456604300E1,1.284726250E0,-1.298627420E0,1.593501336E0,2.424087709E0
1.457600900E1,1.383749724E0,-1.679083523E0,1.403179144E0,2.589014578E0
1.458597400E1,1.438762083E0,-1.904772599E0,1.249782704E0,2.694466884E0
1.459594000E1,1.466474523E0,-2.176713150E0,8.742438170E-1,2.766392943E0
1.460590600E1,1.423377766E0,-2.514400964E0,9.165685952E-1,3.031223262E0
1.461587200E1,1.348940664E0,-2.797662894E0,5.946828818E-1,3.162310281E0
1.462583700E1,1.270572187E0,-3.214299814E0,1.276289302E-1,3.458665366E0
1.463580300E1,1.199033842E0,-3.408886964E0,-3.982059109E-1,3.635486273E0
1.464576900E1,1.224870642E0,-3.452279152E0,-6.089056492E-1,3.713395417E0
1.465573400E1,1.282313981E0,-3.403209903E0,-1.007304811E0,3.773702395E0
1.466570000E1,1.325357089E0,-3.281359776E0,-1.546880608E0,3.862218664E0
1.467566600E1,1.381837977E0,-3.038439540E0,-2.004437220E0,3.893502228E0
1.468563100E1,1.498259841E0,-2.654903124E0,-2.430011609E0,3.898493243E0
1.469559700E1,1.707665298E0,-2.157659413E0,-3.076931176E0,4.127846942E0
1.470556300E1,2.034921094E0,-1.264263334E0,-5.635456399E0,6.123531208E0
1.471552900E1,2.290245905E0,1.045057651E0,-1.038146710E1,1.068233265E1
1.472549400E1,1.465538822E0,6.762281513E-1,-9.679084350E0,9.812734706E0
1.473546000E1,6.062779105E-1,-2.076920475E0,-6.804852751E0,7.140531670E0
1.474542600E1,3.295987755E-1,-4.412776124E0,-5.763883474E0,7.266607267E0
1.475539100E1,5.471909192E-1,-4.830256212E0,-4.874044840E0,6.883829318E0
1.476535700E1,8.447004676E-1,-3.602200592E0,-3.893408303E0,5.371033066E0
1.477532300E1,1.064849891E0,-2.410856715E0,-3.000455150E0,3.993603197E0
1.478528800E1,9.452196595E-1,-6.790494329E-1,-1.060827591E0,1.574770941E0
1.479525400E1,8.855675349E-1,5.635908973E-1,-6.610933645E-1,1.240527708E0
1.480522000E1,8.618035734E-1,1.529549169E0,-1.549452214E-1,1.762451157E0
1.481518600E1,1.055672101E0,2.011185492E0,2.375751494E-1,2.283802229E0
1.482515100E1,9.312138239E-1,2.096105189E0,2.063339147E-1,2.302908994E0
1.483511700E1,3.978131242E-1,1.434840648E0,1.569921854E-1,1.497220596E0
1.484508300E1,-8.149819940E-2,1.962068295E-1,-8.228114158E-2,2.278360435E-1
1.485504800E1,-6.684744510E-1,-1.100224961E0,-4.758990347E-1,1.372527941E0
1.486501400E1,-1.521344941E0,-2.064633136E0,-7.444239351E-1,2.670462022E0
1.487498000E1,-2.188675822E0,-2.645081556E0,-8.337869319E-1,3.532981594E0
1.488494500E1,-2.803191437E0,-2.225571315E0,-4.976816672E-1,3.613687445E0
1.489491100E1,-3.353335492E0,-1.172469065E0,1.443472892E-2,3.552428886E0
1.490487700E1,-3.802963572E0,1.924809837E-1,5.066837481E-1,3.841394184E0
1.491484300E1,-4.392481900E0,1.360188661E0,9.153330785E-1,4.688480039E0
1.492480800E1,-4.675010882E0,1.995810823E0,1.320727264E0,5.251981349E0
1.493477400E1,-4.213299531E0,2.036593983E0,1.775390381E0,5.005159238E0
1.494474000E1,-3.609306128E0,1.912445315E0,2.120051292E0,4.602081626E0
1.495470500E1,-2.918494436E0,1.864305773E0,2.194548035E0,4.099913032E0
1.496467100E1,-2.372744125E0,2.228673847E0,2.219832565E0,3.940121624E0
1.497463700E1,-1.753764015E0,3.026917017E0,2.385851389E0,4.234406889E0
1.498460300E1,-1.107583682E0,3.790023099E0,2.362649492E0,4.601426879E0
1.499456800E1,-4.797321770E-1,4.029346712E0,2.144164332E0,4.589468223E0
1.500453400E1,2.300768262E-1,3.472012335E0,1.858131698E0,3.944674690E0
1.501450000E1,9.897283727E-1,2.732475210E0,1.305539121E0,3.185971661E0
1.502446538E1,1.083684650E0,2.805927933E0,1.080105569E0,3.195971218E0
1.503443137E1,9.879014102E-1,2.991109838E0,1.019708217E0,3.310965434E0
1.504439738E1,1.082943223E0,3.496664781E0,9.845439389E-1,3.790614381E0
1.505436238E1,1.110882096E0,3.897111930E0,1.179034611E0,4.220386598E0
1.506432837E1,9.794668016E-1,4.579301902E0,1.455780696E0,4.903943165E0
1.507429438E1,5.789983106E-1,4.897527258E0,1.858035804E0,5.270038837E0
1.508426038E1,1.354068965E-1,4.663621091E0,2.189439615E0,5.153769740E0
1.509422537E1,-1.482953292E-1,4.312325637E0,2.638657512E0,5.057732434E0
1.510419138E1,-3.881256035E-1,3.724417924E0,3.097104070E0,4.859422185E0
1.511415737E1,-4.425997263E-1,3.086429393E0,3.301750771E0,4.541310281E0
1.512412238E1,-3.145850261E-1,2.258527392E0,2.961340201E0,3.737572140E0
1.513408838E1,-1.797406317E-1,1.130975468E0,2.402487010E0,2.661457503E0
1.514405437E1,-5.242750964E-1,-5.301202655E-2,1.859768919E0,1.932980880E0
1.515401938E1,-8.954645321E-1,-1.468207784E0,5.717313910E-1,1.812282430E0
1.516398538E1,-1.211213446E0,-3.430428107E0,-1.036574803E0,3.782771779E0
1.517395137E1,-9.460411933E-1,-5.119957096E0,-2.218513141E0,5.659571994E0
1.518391738E1,-6.343382598E-1,-6.131613697E0,-3.335964291E0,7.009117584E0
1.519388238E1,-2.762011251E-1,-5.481945938E0,-3.320426778E0,6.415080071E0
1.520384838E1,-5.399906579E-1,-4.212562197E0,-3.558966279E0,5.541074910E0
1.521381438E1,-4.307617459E-1,-4.894515942E0,-5.279008963E0,7.211780475E0
1.522377937E1,7.203347223E-1,-6.184153268E0,-8.256846206E0,1.034109003E1
1.523374538E1,2.005391486E0,-5.474034655E0,-1.028279065E1,1.182042445E1
1.524371138E1,3.878572163E0,-5.641076742E0,-1.153950816E1,1.341735135E1
1.525367637E1,5.658809009E0,-3.377043028E0,-1.227010606E1,1.392774360E1
1.526364238E1,6.746945436E0,4.291783783E0,-1.120405339E1,1.376486445E1
1.527360838E1,5.015343391E0,7.142363394E0,-4.347968217E0,9.750479568E0
1.528357438E1,8.810273181E-1,5.062566090E0,1.955326456E-1,5.142374701E0
1.529353938E1,-2.341537973E0,3.304893064E0,1.147137172E0,4.209636794E0
1.530350538E1,-4.699146726E0,1.703602653E0,-2.734660900E-1,5.005899086E0
1.531347138E1,-6.244217622E0,-1.185470349E-1,-1.470547547E0,6.416137249E0
1.532343638E1,-5.460072674E0,-2.517764867E0,-2.244019572E0,6.417722132E0
1.533340237E1,-3.994404336E0,-3.523964846E0,-3.614528861E0,6.437267520E0
1.534336838E1,-3.437591823E0,-3.008683060E0,-3.611141569E0,5.823191112E0
1.535333338E1,-3.270796488E0,-1.678131012E0,-1.466634590E0,3.957935116E0
1.536329937E1,-3.494953301E0,-7.545644689E-1,9.731985864E-1,3.705560902E0
1.537326538E1,-4.179662254E0,-1.064917719E0,2.279868267E0,4.878670477E0
1.538323138E1,-4.813375885E0,-2.067764904E0,2.627685212E0,5.860799321E0
1.539319638E1,-5.535893519E0,-2.834704421E0,3.185519818E0,6.987789544E0
1.540316238E1,-5.873024093E0,-3.065760655E0,3.467817543E0,7.477770985E0
1.541312837E1,-5.299385340E0,-2.615135626E0,2.984224449E0,6.620273022E0
1.542309338E1,-4.538476642E0,-1.449689067E0,2.363535929E0,5.318427466E0
1.543305938E1,-3.451199756E0,-6.950760663E-1,2.090255635E0,4.094273942E0
1.544302537E1,-2.657047883E0,3.495640934E-2,2.628699996E0,3.737805382E0
1.545299138E1,-1.937395969E0,4.850797480E-1,1.901975291E0,2.757954951E0
1.546295638E1,-9.079495069E-1,1.052999339E0,1.691153638E0,2.189333356E0
1.547292238E1,-7.287823409E-2,1.988243941E0,1.840457320E0,2.710296728E0
1.548288838E1,5.354014707E-1,2.522192379E0,1.936839606E0,3.224818877E0
1.549285338E1,8.648172283E-1,3.017600064E0,2.218313166E0,3.843791395E0
1.550281938E1,9.927317950E-1,3.402217630E0,2.611019186E0,4.402047525E0
1.551278538E1,9.985915822E-1,3.679704266E0,2.903388155E0,4.792397250E0
1.552275037E1,8.671577226E-1,3.856676679E0,3.209965273E0,5.092130652E0
1.553271638E1,7.343006507E-1,3.842410643E0,3.475690818E0,5.232947894E0
1.554268238E1,5.657648921E-1,3.706169933E0,3.561938126E0,5.171381701E0
1.555264837E1,3.813121355E-1,3.527436338E0,3.678469041E0,5.110708420E0
1.556261338E1,2.424429564E-1,3.277584813E0,3.856022083E0,5.066581402E0
1.557257938E1,1.886079343E-1,2.981675355E0,3.976052557E0,4.973424858E0
1.558254538E1,2.597906220E-1,2.785054543E0,4.005335413E0,4.885358917E0
1.559251038E1,4.076582274E-1,2.526748529E0,3.915864535E0,4.678102010E0
1.560247637E1,6.232013606E-1,2.214315425E0,3.719569705E0,4.373416459E0
1.561244238E1,8.749118614E-1,1.766947879E0,3.424983472E0,3.951972590E0
1.562240738E1,1.109277620E0,1.285111581E0,3.095864460E0,3.530776879E0
1.563237337E1,1.346362188E0,7.969556129E-1,2.824521495E0,3.228893164E0
1.564233938E1,1.470208116E0,1.764543504E-1,2.562137048E0,2.959255699E0
1.565230538E1,1.547532865E0,-5.435571671E-1,2.382596829E0,2.892590537E0
1.566227037E1,1.637313500E0,-1.205800533E0,2.261256579E0,3.041057668E0
1.567223638E1,1.719913314E0,-1.838243564E0,2.144835007E0,3.307197971E0
1.568220237E1,1.756807930E0,-2.339760420E0,1.993118765E0,3.540250744E0
1.569216738E1,1.736334196E0,-2.690501558E0,1.865815232E0,3.706065508E0
1.570213338E1,1.714259788E0,-3.045905850E0,1.558940783E0,3.827077923E0
1.571209937E1,1.617267344E0,-3.304797170E0,1.290847115E0,3.899169690E0
1.572206538E1,1.547759445E0,-3.599864044E0,9.650975615E-1,4.035590879E0
1.573203038E1,1.547760176E0,-3.853955385E0,6.365375438E-1,4.201632268E0
1.574199637E1,1.713584142E0,-4.013893690E0,2.599461579E-1,4.372103061E0
1.575196238E1,1.835427691E0,-3.982105302E0,5.169073123E-1,4.415104825E0
1.576192738E1,1.829345563E0,-3.986451538E0,3.002036530E-1,4.396410273E0
1.577189338E1,1.847843815E0,-3.830517991E0,-1.712503284E-1,4.256374222E0
1.578185938E1,1.792845197E0,-3.658989919E0,-5.731899789E-1,4.114735457E0
1.579182437E1,1.584333779E0,-3.609855182E0,-1.183850962E0,4.116147599E0
1.580179038E1,1.422003378E0,-4.017069313E0,-2.178174077E0,4.785747777E0
1.581175638E1,1.311038720E0,-4.511114012E0,-3.317004987E0,5.750782055E0
1.582172237E1,1.394427617E0,-4.069639875E0,-5.561763940E0,7.031330970E0
1.583168738E1,1.433989585E0,-1.615503239E0,-1.152539298E1,1.172607608E1
1.584165338E1,5.152890953E-1,-1.286883872E0,-1.080850914E1,1.089703917E1
1.585161938E1,-1.296348175E-1,-2.833098775E0,-6.469724264E0,7.064034676E0
1.586158438E1,-1.256128103E-1,-3.512289126E0,-4.259238181E0,5.522052460E0
1.587155038E1,7.093096510E-1,-1.812876588E0,-2.158986293E0,2.907036896E0
1.588151638E1,1.216062981E0,1.184931820E0,-1.387614441E-1,1.703563128E0
1.589148138E1,1.231132133E0,3.698023008E0,1.025135164E0,4.030131834E0
1.590144737E1,9.286878267E-1,4.713510119E0,9.897289574E-1,4.905018056E0
1.591141338E1,-1.377335036E-1,4.447662367E0,1.235990146E0,4.618261868E0
1.592137938E1,-1.018149057E0,3.018577718E0,1.659289236E-1,3.189979835E0
1.593134437E1,-1.856356484E0,1.427193074E0,-8.289340353E-1,2.483962782E0
1.594131038E1,-2.785662361E0,-6.089635366E-1,-1.785213557E0,3.364184719E0
1.595127638E1,-3.695830594E0,-2.270591952E0,-2.419991820E0,4.967002315E0
1.596124138E1,-4.395014037E0,-2.885258278E0,-2.540671042E0,5.839167154E0
1.597120738E1,-4.927210649E0,-2.221250807E0,-1.982596700E0,5.756913201E0
1.598117337E1,-5.437266778E0,-4.788056856E-1,-1.012351689E0,5.551394496E0
1.599113838E1,-6.053541673E0,1.379100895E0,2.675147939E-1,6.214406668E0
1.600110438E1,-5.969637637E0,2.343848793E0,1.280438194E0,6.539856470E0
1.601107037E1,-5.280244480E0,2.589759294E0,1.638004056E0,6.104989128E0
1.602103638E1,-3.911606885E0,2.065094481E0,1.335450553E0,4.620466623E0
1.603100475E1,-2.819114282E0,2.128657808E0,1.283026756E0,3.758290443E0
1.604097075E1,-1.951227265E0,2.668927671E0,1.486633530E0,3.624988552E0
1.605093675E1,-1.341205675E0,3.098138443E0,1.639120435E0,3.752866941E0
1.606090175E1,-8.037225956E-1,3.335523119E0,1.700136423E0,3.829118481E0
1.607086775E1,-7.540291563E-2,3.156407116E0,1.600743405E0,3.539911147E0
1.608083375E1,3.914208019E-1,3.197044095E0,1.479710426E0,3.544551331E0
1.609079875E1,8.691744272E-1,3.145086907E0,1.344464621E0,3.529110504E0
1.610076475E1,1.140424130E0,3.052638919E0,1.333054364E0,3.520824549E0
1.611073075E1,1.375568153E0,2.390595528E0,1.203882354E0,3.009396525E0
1.612069675E1,1.678024885E0,1.928802901E0,1.432722494E0,2.930655539E0
1.613066175E1,1.718039867E0,2.035628023E0,1.667396986E0,3.142555511E0
1.614062775E1,1.443749758E0,2.371282175E0,1.811360990E0,3.314878753E0
1.615059375E1,1.203826805E0,2.664987232E0,1.914434246E0,3.495198765E0
1.616055875E1,1.061043792E0,3.179783700E0,2.019703715E0,3.913571438E0
1.617052475E1,9.596356773E-1,3.637261666E0,2.210061283E0,4.362905446E0
1.618049075E1,7.687965918E-1,3.790835277E0,2.227770160E0,4.463680116E0
1.619045675E1,4.255969003E-1,3.710285203E0,2.157766125E0,4.313154723E0
1.620042175E1,1.904788971E-2,3.347099437E0,1.879320546E0,3.838656428E0
1.621038775E1,-3.126795647E-1,2.590106034E0,1.557263509E0,3.038336291E0
1.622035375E1,-5.807311329E-1,1.410672351E0,1.065302173E0,1.860675644E0
1.623031875E1,-7.222964631E-1,-3.458552045E-1,2.471037720E-1,8.380860798E-1
1.624028475E1,-7.077370423E-1,-2.048801215E0,-4.205226865E-1,2.208012108E0
1.625025075E1,-6.737056625E-1,-2.805877647E0,-8.161660552E-1,2.998825724E0
1.626021575E1,-6.816838959E-1,-3.015934777E0,-9.695806217E-1,3.240469425E0
1.627018175E1,-9.697115993E-1,-3.190232089E0,-9.743156970E-1,3.473789350E0
1.628014775E1,-1.516026313E0,-3.399830797E0,-9.299695364E-1,3.836929576E0
1.629011375E1,-2.012685302E0,-3.459506310E0,-1.150932015E0,4.164580476E0
1.630007875E1,-1.701078556E0,-3.529271779E0,-1.916584851E0,4.361504905E0
1.631004475E1,2.633892909E-1,-5.306641735E0,-4.578965102E0,7.014038910E0
1.632001075E1,2.166627873E0,-5.322701697E0,-7.297756659E0,9.288847181E0
1.632997575E1,3.128060399E0,-4.851097443E0,-8.367653866E0,1.016540897E1
1.633994175E1,3.877138133E0,-5.287292714E0,-8.521713381E0,1.075208181E1
1.634990775E1,4.191317509E0,-3.307507355E0,-7.702899706E0,9.372374899E0
1.635987375E1,4.927147499E0,7.839648539E-1,-7.404871802E0,8.928802259E0
1.636983875E1,5.173205350E0,4.294155999E0,-5.489330971E0,8.679549749E0
1.637980475E1,2.225804619E0,3.154778666E0,-2.535253304E0,4.618911555E0
1.638977075E1,-2.345056974E0,1.101598472E0,-5.752227634E-1,2.653995598E0
1.639973575E1,-5.639176982E0,3.296478921E-1,-1.186017063E-1,5.650048773E0
1.640970175E1,-6.255075316E0,-9.451673269E-2,-6.425899968E-1,6.288705950E0
1.641966775E1,-4.093403836E0,-1.573412057E0,-2.697432847E0,5.148565279E0
1.642963275E1,-2.668734128E0,-1.605140219E0,-3.956562325E0,5.035176502E0
1.643959875E1,-2.387920134E0,5.547463989E-1,-2.376104081E0,3.414055761E0
1.644956475E1,-2.267311371E0,1.869506287E0,4.520014644E-2,2.939013043E0
1.645953075E1,-2.296572300E0,1.452990990E0,1.159299088E0,2.954556062E0
1.646949575E1,-2.988785862E0,1.797024786E-1,1.683394968E0,3.434960338E0
1.647946175E1,-4.237224291E0,-1.941635200E0,2.070937311E0,5.100274335E0
1.648942775E1,-5.613146347E0,-4.542709442E0,1.323700573E0,7.341376179E0
1.649939275E1,-5.632470810E0,-6.050572457E0,4.521020365E-1,8.278801287E0
