"Time (s)","Linear Acceleration x (m/s^2)","Linear Acceleration y (m/s^2)","Linear Acceleration z (m/s^2)","Absolute acceleration (m/s^2)"
6.006416676E-3,7.610047384E-1,2.985851437E-1,-9.344353473E-1,1.241551738E0
1.607441668E-2,8.886811772E-1,2.623873705E-1,-4.003857529E-1,1.009410778E0
2.614141667E-2,7.721878307E-1,2.415280133E-1,3.675208926E-2,8.099139109E-1
3.620941668E-2,5.978994352E-1,5.636072695E-2,4.651758260E-1,7.596372918E-1
4.627741667E-2,3.979066431E-1,-2.664801291E-1,6.472902811E-1,8.051869744E-1
5.634441668E-2,2.791201648E-1,-4.676322412E-1,2.897347981E-1,6.168745680E-1
6.641241668E-2,2.646881036E-1,-4.503888023E-1,-9.531721652E-2,5.310322374E-1
7.648041667E-2,2.905080923E-1,-4.364010930E-1,-7.573723018E-2,5.296951895E-1
8.654741668E-2,3.164473642E-1,-5.036160064E-1,3.836358190E-3,5.947963802E-1
9.661541667E-2,3.620328056E-1,-4.979485926E-1,-1.586905092E-1,6.357697940E-1
1.066834167E-1,3.103998815E-1,-4.405058384E-1,-4.229869956E-1,6.850631201E-1
1.167504167E-1,2.675337973E-1,-3.647773790E-1,-7.356656832E-1,8.636207885E-1
1.268184167E-1,2.712866865E-1,-2.407479948E-1,-1.263635343E0,1.314659782E0
1.368864167E-1,1.956000347E-1,-1.555075774E-1,-1.842596231E0,1.859463055E0
1.469544167E-1,7.847182676E-2,-1.329428798E-1,-2.242213075E0,2.247521104E0
1.570214167E-1,-1.581300536E-1,-1.915869445E-1,-2.502556844E0,2.514856144E0
1.670894167E-1,-4.508638886E-1,-3.392914125E-1,-2.732841246E0,2.790487087E0
1.771574167E-1,-7.390026891E-1,-4.415855268E-1,-2.882793676E0,3.008591387E0
1.872244167E-1,-9.715607813E-1,-3.883483824E-1,-2.841203016E0,3.027735027E0
1.972924167E-1,-7.617479195E-1,-3.017449790E-1,-2.546527321E0,2.675090899E0
2.073604167E-1,-3.632399999E-1,-2.036269462E-1,-2.098256965E0,2.139179637E0
2.174274167E-1,-9.233455181E-2,-4.961654842E-2,-1.589074994E0,1.592528432E0
2.274954167E-1,5.498604655E-2,1.816115946E-1,-1.219864256E0,1.234534341E0
2.375634167E-1,2.594956300E-1,3.444916338E-1,-9.753524083E-1,1.066454307E0
2.476314167E-1,3.877357404E-1,3.542997533E-1,-8.767133886E-1,1.022004738E0
2.576984167E-1,2.908134632E-1,2.491410881E-1,-8.393795013E-1,9.226059286E-1
2.677664167E-1,-7.005841434E-3,1.910501701E-1,-9.704425013E-1,9.890944837E-1
2.778344167E-1,-1.971939857E-1,2.128751948E-1,-1.160740135E0,1.196461022E0
2.879014167E-1,-1.052058814E-1,3.269005778E-1,-1.173725631E0,1.222932591E0
2.979694167E-1,3.575850571E-2,4.388034216E-1,-1.093624039E0,1.178915032E0
3.080374167E-1,1.008314332E-1,4.643373352E-1,-9.030346298E-1,1.020415446E0
3.181044167E-1,3.033501859E-1,5.610385877E-1,-7.176322854E-1,9.600946459E-1
3.281724167E-1,5.194008574E-1,7.598564914E-1,3.825716257E-2,9.212072235E-1
3.382404167E-1,6.881057467E-1,8.670216286E-1,7.707635951E-1,1.348811530E0
3.483084167E-1,5.861813226E-1,8.110234290E-1,1.090507473E0,1.480058815E0
3.583754167E-1,3.112307708E-1,7.275146645E-1,1.155728486E0,1.400660742E0
3.684434167E-1,-8.462134346E-2,6.248305410E-1,9.706395525E-1,1.157460633E0
3.785114167E-1,-4.532061370E-1,5.586157939E-1,5.080370861E-1,8.806526493E-1
3.885784167E-1,-6.571152113E-1,6.336229992E-1,2.270222408E-1,9.406474387E-1
3.986464167E-1,-9.210456620E-1,7.493475831E-1,6.447824103E-1,1.351144429E0
4.087144167E-1,-1.075529246E0,7.844025180E-1,1.173484141E0,1.774574737E0
4.187814167E-1,-8.481093943E-1,6.466216519E-1,1.508973987E0,1.847812652E0
4.288494167E-1,-2.826258995E-1,7.510385978E-1,1.512094646E0,1.711831356E0
4.389174167E-1,6.823205480E-2,9.437794903E-1,1.281447716E0,1.592948081E0
4.489854167E-1,3.331152910E-1,9.765353000E-1,1.454152831E0,1.783016390E0
4.590524167E-1,6.337971000E-1,7.020058939E-1,2.385599082E0,2.566241224E0
4.691204167E-1,7.993909782E-1,1.677829295E-1,3.379383084E0,3.476694849E0
4.791884167E-1,7.081859623E-1,-3.240415817E-1,4.010805191E0,4.085717634E0
4.892554167E-1,4.538866067E-1,-7.141072914E-1,4.242785286E0,4.326336702E0
4.993234167E-1,2.461775913E-1,-1.099253446E0,4.120852713E0,4.272047358E0
5.093914167E-1,1.099519202E-1,-1.404505877E0,3.516521341E0,3.788224983E0
5.194584167E-1,-8.999464229E-2,-1.456349630E0,2.200211356E0,2.640072592E0
5.295264167E-1,-3.113946390E-1,-1.257435540E0,7.121493512E-1,1.478265016E0
5.395944167E-1,-3.835065955E-1,-1.029352614E0,-4.377272415E-1,1.182475899E0
5.496624167E-1,-3.665012844E-1,-8.356337750E-1,-1.158167945E0,1.474435480E0
5.597294167E-1,-3.946415944E-1,-6.251033136E-1,-1.541338325E0,1.709450196E0
5.697974167E-1,-4.964338714E-1,-4.431560889E-1,-1.620846425E0,1.752134995E0
5.798654167E-1,-6.338153726E-1,-3.349600875E-1,-1.436625803E0,1.605557188E0
5.899324167E-1,-7.100921546E-1,-4.066519216E-1,-1.003535403E0,1.294866772E0
6.000004167E-1,-8.779266858E-1,-5.573466557E-1,-4.739688689E-1,1.142819780E0
6.100684167E-1,-1.096326476E0,-6.253705314E-1,1.424323261E-2,1.262229343E0
6.201354167E-1,-1.155795291E0,-6.474718371E-1,2.073697490E-1,1.340926824E0
6.302034167E-1,-1.146942168E0,-7.412822261E-1,9.200067580E-2,1.368736570E0
6.402714167E-1,-1.064467191E0,-7.979052007E-1,-2.120902061E-1,1.347117428E0
6.503394167E-1,-8.662897034E-1,-7.615846360E-1,-5.117600083E-1,1.261890373E0
6.604064167E-1,-5.107092637E-1,-7.251278311E-1,-6.007920527E-1,1.071254131E0
6.704744167E-1,-5.512884652E-2,-5.868180844E-1,-5.352243000E-1,7.961530665E-1
6.805424167E-1,2.699295478E-1,-4.266271797E-1,-2.282600963E-1,5.540535920E-1
6.906094167E-1,3.289111429E-1,-4.671021912E-1,1.232862031E-1,5.844368955E-1
7.006774167E-1,2.124752453E-1,-5.673348695E-1,2.550684106E-1,6.573237240E-1
7.107454167E-1,6.982291773E-2,-5.752268565E-1,2.064219153E-1,6.151188368E-1
7.208124167E-1,-1.035949735E-1,-6.198639160E-1,-3.048235381E-1,6.984844897E-1
7.308804167E-1,-4.038394108E-1,-7.094134390E-1,-1.179154771E0,1.434140743E0
7.409484167E-1,-6.426834060E-1,-6.977903438E-1,-2.042211987E0,2.251795534E0
7.510164167E-1,-7.335568848E-1,-6.615899393E-1,-2.669238158E0,2.846162205E0
7.610834167E-1,-7.427899307E-1,-6.503027666E-1,-3.052581031E0,3.208252098E0
7.711514167E-1,-6.853613560E-1,-5.580705410E-1,-3.031031118E0,3.157263460E0
7.812194167E-1,-6.110103545E-1,-3.932919109E-1,-2.445716645E0,2.551380428E0
7.912864167E-1,-5.704641531E-1,-2.811089855E-1,-1.621337591E0,1.741604776E0
8.013544167E-1,-5.626359008E-1,-2.873766160E-1,-1.002086463E0,1.184618823E0
8.114224167E-1,-5.536520925E-1,-2.060237199E-1,-8.207292223E-1,1.011223452E0
8.214894167E-1,-6.103287153E-1,-9.210738748E-2,-1.028467931E0,1.199471215E0
8.315574167E-1,-7.338682491E-1,-8.101054162E-2,-1.274241607E0,1.472690391E0
8.416254167E-1,-6.482569720E-1,-6.537918001E-2,-1.397786257E0,1.542179613E0
8.516922917E-1,-4.460125999E-1,6.304526389E-2,-1.433571217E0,1.502673743E0
8.617602917E-1,-2.739579870E-1,2.306975082E-1,-1.422075591E0,1.466483312E0
8.718282917E-1,-9.026946142E-2,2.828163725E-1,-1.131342673E0,1.169645211E0
8.818962917E-1,-1.491873220E-2,1.922675604E-1,-5.329690289E-1,5.667851173E-1
8.919632917E-1,5.889111866E-2,3.004913360E-2,7.435962617E-2,9.950109694E-2
9.020312917E-1,-1.461511552E-3,3.746018708E-2,5.929901129E-1,5.941739439E-1
9.120992917E-1,-1.274443044E-1,7.868919700E-2,1.057129228E0,1.067687334E0
9.221662917E-1,-2.828722134E-1,1.249666929E-2,1.264756254E0,1.296063748E0
9.322342917E-1,-4.540526676E-1,8.020450294E-2,1.001957240E0,1.102957341E0
9.423022917E-1,-5.648249522E-1,3.167179441E-1,4.592625368E-1,7.938888842E-1
9.523692917E-1,-4.828933279E-1,5.595966643E-1,-1.460856664E-1,7.534423766E-1
9.624372917E-1,-3.355819389E-1,7.583938104E-1,-4.981342417E-1,9.674265513E-1
9.725052917E-1,-8.391353801E-2,9.740040404E-1,-6.490456152E-1,1.173450281E0
9.825732917E-1,1.966424471E-1,1.062872655E0,-5.585804182E-1,1.216708107E0
9.926402917E-1,3.261550578E-1,1.063430479E0,-2.406491768E-1,1.138056911E0
1.002708292E0,3.125822085E-1,9.561922520E-1,3.521953404E-1,1.065857785E0
1.012776292E0,2.397051439E-1,7.721254116E-1,1.131191230E0,1.390406346E0
1.022843292E0,1.045846148E-1,5.569917297E-1,1.630487899E0,1.726171636E0
1.032911292E0,-7.727841005E-2,4.688569406E-1,1.702484080E0,1.767555042E0
1.042979292E0,-3.083321598E-1,5.798622367E-1,1.437778289E0,1.580669270E0
1.053047292E0,-3.696090795E-1,7.541879082E-1,9.167539519E-1,1.243321391E0
1.063114292E0,-2.363751546E-1,9.017821562E-1,8.562136352E-2,9.361705448E-1
1.073182292E0,7.690550387E-3,9.332583028E-1,-3.136165810E-1,9.845737982E-1
1.083250292E0,3.354204096E-1,7.671175638E-1,2.668318391E-1,8.787351354E-1
1.093317292E0,7.790526080E-1,5.563064361E-1,1.421394390E0,1.713698290E0
1.103385292E0,1.203759708E0,2.721311706E-1,2.556566405E0,2.838859735E0
1.113453292E0,1.662066371E0,-1.822653133E-1,3.444674263E0,3.829029387E0
1.123520292E0,2.059762990E0,-6.657847318E-1,4.054851682E0,4.596489426E0
1.133588292E0,2.184868262E0,-1.117672468E0,4.330419846E0,4.977487027E0
1.143656292E0,2.167732558E0,-1.374279281E0,4.219391161E0,4.938721469E0
1.153723292E0,2.156403431E0,-1.499368181E0,3.688850480E0,4.528332868E0
1.163791292E0,2.114087132E0,-1.495993168E0,2.693952000E0,3.736942244E0
1.173859292E0,2.098108445E0,-1.395929766E0,1.378724334E0,2.872552828E0
1.183927292E0,1.946873429E0,-1.306348668E0,1.205537993E-1,2.347636302E0
1.193994292E0,1.738872765E0,-1.197594550E0,-7.971333683E-1,2.256841334E0
1.204062292E0,1.446906231E0,-1.036490018E0,-1.261274237E0,2.181435743E0
1.214130292E0,1.218227035E0,-9.380767009E-1,-1.319465727E0,2.026093485E0
1.224197292E0,1.017392573E0,-8.651665995E-1,-1.258783323E0,1.835248307E0
1.234265292E0,8.053585003E-1,-7.112325078E-1,-1.175233043E0,1.592365128E0
1.244333292E0,6.733885972E-1,-5.615560663E-1,-1.125000783E0,1.426332423E0
1.254400292E0,6.303185914E-1,-4.939113826E-1,-1.130057455E0,1.385019795E0
1.264468292E0,6.628117150E-1,-3.916079128E-1,-1.169517975E0,1.400160141E0
1.274536292E0,7.605610809E-1,-3.479929465E-1,-1.034761289E0,1.330519888E0
1.284604292E0,8.332947426E-1,-3.862197036E-1,-7.766786385E-1,1.202819810E0
1.294671292E0,8.017042829E-1,-4.635505924E-1,-4.493088216E-1,1.029314008E0
1.304739292E0,7.508792612E-1,-5.107519484E-1,-2.309398752E-1,9.370274508E-1
1.314807292E0,6.614548686E-1,-4.781499204E-1,-1.933335078E-1,8.387656018E-1
1.324874292E0,5.070062220E-1,-4.928986448E-1,-2.038456321E-1,7.359058533E-1
1.334942292E0,3.361941424E-1,-6.075175202E-1,-2.288436484E-1,7.310769140E-1
1.345010292E0,1.433633490E-1,-6.701248276E-1,-2.603174561E-1,7.330658309E-1
1.355077292E0,-4.117183512E-2,-5.983496708E-1,-2.108710617E-1,6.357547115E-1
1.365145292E0,-9.123951450E-2,-4.198400241E-1,-3.071337730E-1,5.281301443E-1
1.375213292E0,5.029731050E-2,-1.803351474E-1,-9.995195353E-1,1.016902103E0
1.385281292E0,7.130942613E-2,3.855186224E-2,-1.734862452E0,1.736755310E0
1.395348292E0,-1.759238617E-1,3.634746194E-2,-1.902662339E0,1.911123836E0
1.405416292E0,-3.700435276E-1,2.385751694E-2,-1.766244459E0,1.804749534E0
1.415484292E0,-5.031181160E-1,4.565038204E-2,-1.545188132E0,1.625674678E0
1.425551292E0,-4.545433952E-1,1.169180006E-1,-1.196040945E0,1.284832074E0
1.435619292E0,-2.203495079E-1,2.318318680E-1,-8.699317878E-1,9.268663529E-1
1.445687292E0,1.437068729E-1,3.597557902E-1,-7.888811928E-1,8.788682667E-1
1.455754292E0,5.132747295E-1,5.022039038E-1,-9.418484473E-1,1.184372495E0
1.465822292E0,7.671358363E-1,5.206015831E-1,-1.152354643E0,1.479001225E0
1.475890292E0,7.442479339E-1,2.840396100E-1,-9.702764404E-1,1.255396295E0
1.485958292E0,5.962591450E-1,8.128799200E-2,-6.465570402E-1,8.832715958E-1
1.496025292E0,4.046505658E-1,4.707008600E-3,-4.727070397E-1,6.222669698E-1
1.506093292E0,3.199859530E-1,6.446379840E-2,-5.370381063E-1,6.284556620E-1
1.516161292E0,3.302478164E-1,3.253288463E-1,-9.059810418E-1,1.017695498E0
1.526228292E0,4.052570683E-1,6.284236550E-1,-1.347683805E0,1.541233668E0
1.536296292E0,4.156879528E-1,7.561008248E-1,-1.648465748E0,1.860624694E0
1.546364292E0,3.766999979E-1,8.034366667E-1,-1.781297531E0,1.990083983E0
1.556431292E0,3.518044540E-1,9.440937781E-1,-1.698720227E0,1.975026543E0
1.566499292E0,1.869363615E-1,1.078730012E0,-1.345533199E0,1.734665164E0
1.576567292E0,-7.776796818E-5,1.108479183E0,-3.981082624E-1,1.177801466E0
1.586634292E0,3.262044668E-2,1.035821974E0,4.372974712E-1,1.124820134E0
1.596702292E0,-1.057087420E-1,8.151211578E-1,8.617918789E-1,1.190916488E0
1.606770292E0,-2.171547720E-1,6.038671035E-1,1.174412094E0,1.338303195E0
1.616838292E0,-3.040142469E-1,4.844771925E-1,1.324504858E0,1.442725175E0
1.626905292E0,-2.372158380E-1,4.627182412E-1,1.398431205E0,1.491974986E0
1.636973292E0,-4.560287341E-2,5.420251966E-1,1.345946597E0,1.451703544E0
1.647041292E0,5.704704389E-2,6.881792754E-1,1.275019872E0,1.450007156E0
1.657108292E0,9.614138156E-2,8.729048046E-1,1.148198442E0,1.445532990E0
1.667176292E0,1.310042354E-1,1.004743438E0,9.517980695E-1,1.390176626E0
1.677244292E0,1.078820059E-1,1.043667768E0,7.412702394E-1,1.284664355E0
1.687311292E0,-4.116205931E-2,9.187943378E-1,7.529535609E-1,1.188619542E0
1.697379292E0,-1.648154676E-1,6.669848728E-1,1.115341768E0,1.309969548E0
1.707447292E0,-8.114093453E-2,4.171596605E-1,1.635545155E0,1.689856204E0
1.717515292E0,2.216590284E-1,1.597476858E-1,2.194431968E0,2.211375976E0
1.727582292E0,4.610621636E-1,-1.100978082E-1,2.917597473E0,2.955854337E0
1.737650292E0,5.829907894E-1,-4.728847951E-1,3.597377808E0,3.674863995E0
1.747718292E0,5.799952608E-1,-8.916612107E-1,3.864206724E0,4.007935606E0
1.757785292E0,4.477914691E-1,-1.172590102E0,3.546324014E0,3.761900950E0
1.767853292E0,2.288658679E-1,-1.268168689E0,2.664694871E0,2.959937527E0
1.777921292E0,2.691754762E-2,-1.180571259E0,1.388667524E0,1.822874254E0
1.787988292E0,-5.184331432E-2,-9.071610099E-1,-1.786148965E-2,9.088167362E-1
1.798056292E0,-3.133373033E-2,-5.651544428E-1,-1.212682706E0,1.338275267E0
1.808124292E0,-4.597753376E-2,-2.789417151E-1,-1.961538538E0,1.981806209E0
1.818192292E0,-9.761970386E-2,-3.999612451E-2,-2.129596871E0,2.132208276E0
1.828259292E0,-2.198978470E-1,1.040909636E-1,-1.788438150E0,1.804910250E0
1.838327292E0,-3.664302407E-1,7.725545973E-2,-1.168786488E0,1.227314704E0
1.848395292E0,-4.816164422E-1,-9.443370223E-2,-5.528390372E-1,7.392584951E-1
1.858462292E0,-5.419142456E-1,-3.758245236E-1,-3.332035840E-2,6.603221702E-1
1.868530292E0,-6.142659380E-1,-7.016439512E-1,3.003626972E-1,9.797166053E-1
1.878598292E0,-6.940465178E-1,-9.341421095E-1,4.290394485E-1,1.240321288E0
1.888665292E0,-6.955018897E-1,-1.085648437E0,4.344089466E-1,1.360539063E0
1.898733292E0,-4.786583358E-1,-1.179999694E0,4.238383502E-1,1.342070053E0
1.908801292E0,-1.321691470E-1,-1.123308599E0,4.934570539E-1,1.234014083E0
1.918869292E0,3.234216307E-1,-8.970491275E-1,9.605267930E-1,1.353480849E0
1.928936292E0,6.971886653E-1,-7.571933770E-1,1.624015616E0,1.922716975E0
1.939004292E0,6.923784533E-1,-6.835441875E-1,1.910747284E0,2.144195831E0
1.949072292E0,4.329744785E-1,-5.748251528E-1,1.737487267E0,1.880625656E0
1.959139292E0,2.089186764E-1,-4.975349021E-1,1.149538624E0,1.269892531E0
1.969207292E0,1.981818728E-1,-4.810802525E-1,2.592737281E-1,5.813236020E-1
1.979275292E0,3.046542612E-1,-4.244710189E-1,-7.555017775E-1,9.185710645E-1
1.989342292E0,3.673441605E-1,-3.793059558E-1,-1.491032975E0,1.581769285E0
1.999410292E0,2.860675706E-1,-3.534893292E-1,-1.597404352E0,1.660870262E0
2.009478292E0,1.837594230E-1,-2.826316005E-1,-1.172041633E0,1.219561289E0
2.019545292E0,1.704236783E-1,-2.500667024E-1,-7.212996590E-1,7.822089132E-1
2.029613292E0,1.700665596E-1,-2.017108136E-1,-6.368179178E-1,6.893090363E-1
2.039681292E0,1.799711582E-1,-1.828073502E-2,-1.020311649E0,1.036223752E0
2.049749292E0,2.182592014E-1,1.485254171E-1,-1.491997181E0,1.515174071E0
2.059816292E0,2.672369415E-1,2.094089654E-1,-2.017909790E0,2.046271638E0
2.069884292E0,1.401050246E-1,2.441937590E-1,-2.544769063E0,2.560294826E0
2.079952292E0,1.486274511E-2,2.732082278E-1,-2.864525220E0,2.877562923E0
2.090019292E0,-1.037038779E-1,3.257975006E-1,-2.865336814E0,2.885663453E0
2.100087292E0,-1.501540129E-1,4.118632525E-1,-2.721880056E0,2.756956402E0
2.110155292E0,-1.752366677E-2,5.295314509E-1,-2.412927799E0,2.470411139E0
2.120222292E0,2.612854627E-1,6.203790557E-1,-1.920250763E0,2.034822661E0
2.130290292E0,4.874211194E-1,6.969696870E-1,-1.578283373E0,1.792853730E0
2.140358292E0,5.478386445E-1,6.197686064E-1,-1.238488222E0,1.489326486E0
2.150426292E0,7.032164137E-1,4.379929975E-1,-8.893112147E-1,1.215411711E0
2.160493292E0,7.699750981E-1,3.200146043E-1,-4.340721470E-1,9.400476730E-1
2.170561292E0,6.866240622E-1,3.749442253E-1,1.027297318E-2,7.823945992E-1
2.180629292E0,6.913877888E-1,4.574411291E-1,2.623534566E-1,8.695394168E-1
2.190696292E0,7.108816749E-1,4.153195417E-1,1.856251234E-1,8.439785328E-1
2.200764292E0,6.412020139E-1,3.881931388E-1,-1.095832533E-1,7.575238776E-1
2.210832292E0,5.327190605E-1,4.539330921E-1,-3.234860963E-1,7.710305467E-1
2.220899292E0,4.851635094E-1,5.003020969E-1,-2.660430497E-1,7.459656315E-1
2.230967292E0,4.772142197E-1,4.013359255E-1,-1.142312050E-2,6.236460729E-1
2.241035292E0,5.201371680E-1,3.416066176E-1,3.555849713E-1,7.167136294E-1
2.251102292E0,6.536156528E-1,2.929811722E-1,7.469239122E-1,1.034865556E0
2.261170292E0,8.242590402E-1,1.058685172E-1,1.078659260E0,1.361659615E0
2.271238292E0,8.789414701E-1,-9.934770226E-2,1.131574223E0,1.436268880E0
2.281306292E0,6.912416084E-1,-1.701642081E-1,9.388154966E-1,1.178195805E0
2.291373292E0,5.783321665E-1,-1.686489022E-1,7.118160599E-1,9.325195174E-1
2.301441292E0,4.986812487E-1,-1.100691569E-1,7.025920773E-1,8.685815069E-1
2.311509292E0,5.011860497E-1,4.259872019E-2,7.657887840E-1,9.162066192E-1
2.321576292E0,4.302746728E-1,1.989860111E-1,7.405849457E-1,8.793166599E-1
2.331644292E0,4.679824895E-1,2.445434225E-1,6.478445971E-1,8.357701346E-1
2.341712292E0,6.658208384E-1,1.777243656E-1,5.583102769E-1,8.869124558E-1
2.351779292E0,9.223207936E-1,1.292556256E-1,7.826737887E-1,1.216536445E0
2.361847292E0,1.198649242E0,1.210163140E-1,1.566635134E0,1.976297193E0
2.371915292E0,1.526404829E0,-1.539536798E-1,2.661114621E0,3.071668026E0
2.381983292E0,1.691535169E0,-6.754829237E-1,3.397460920E0,3.854907147E0
2.392050292E0,1.586642552E0,-1.113866515E0,3.604009720E0,4.092312215E0
2.402118292E0,1.290239297E0,-1.373666493E0,3.392912956E0,3.881177064E0
2.412186292E0,1.050105991E0,-1.475656552E0,2.861288787E0,3.386334061E0
2.422253292E0,9.892328212E-1,-1.497043328E0,2.126894288E0,2.782696464E0
2.432321292E0,9.831246735E-1,-1.380632573E0,1.448223170E0,2.229356583E0
2.442389292E0,9.084504671E-1,-1.090229146E0,7.688316751E-1,1.613996278E0
2.452456292E0,8.435365793E-1,-7.753995600E-1,8.318248987E-2,1.148789696E0
2.462524292E0,8.220572712E-1,-5.517236808E-1,-4.933073652E-1,1.106132602E0
2.472592292E0,9.281757568E-1,-3.398816890E-1,-9.035468459E-1,1.339188822E0
2.482659292E0,1.066645571E0,-6.778706342E-2,-1.058575829E0,1.504297393E0
2.492727292E0,1.249610796E0,1.576169604E-1,-9.477044338E-1,1.576234101E0
2.502795292E0,1.255343114E0,1.895585454E-1,-1.042137551E0,1.642519239E0
2.512863292E0,1.008844529E0,1.401156592E-1,-1.371166808E0,1.708068528E0
2.522930292E0,6.719215308E-1,1.483195952E-1,-1.620881508E0,1.760890147E0
2.532998292E0,4.714580745E-1,1.458503160E-1,-1.651469463E0,1.723628851E0
2.543066292E0,4.083172086E-1,1.416104999E-1,-1.527315533E0,1.587283595E0
2.553133292E0,3.989283344E-1,1.552856755E-1,-1.316235141E0,1.384099853E0
2.563201292E0,4.796514854E-1,1.416675103E-1,-1.006852528E0,1.124227399E0
2.573269292E0,4.694514562E-1,-1.632250249E-3,-6.323787117E-1,7.875850233E-1
2.583336292E0,3.411302157E-1,-2.532505113E-1,-3.673384595E-1,5.616432937E-1
2.593404292E0,8.944851235E-2,-4.631684768E-1,-2.027165347E-1,5.134394489E-1
2.603472292E0,-1.033837429E-1,-5.162533012E-1,1.076033860E-1,5.373864140E-1
2.613539292E0,3.917195946E-3,-5.024740452E-1,5.127324003E-1,7.179066964E-1
2.623607292E0,2.769846520E-1,-3.965651822E-1,6.432580411E-1,8.048387097E-1
2.633675292E0,5.669682491E-1,-1.390704694E-1,5.217295110E-1,7.829401469E-1
2.643743292E0,6.917071930E-1,4.331032634E-2,1.374230164E-1,7.065548178E-1
2.653810292E0,4.558169188E-1,2.056758106E-2,-3.203975970E-1,5.575362849E-1
2.663878292E0,1.377965073E-1,4.653155744E-2,-6.827881426E-1,6.981065183E-1
2.673946292E0,-1.661062405E-2,1.063357097E-1,-8.014591384E-1,8.086531682E-1
2.684013292E0,-6.793485180E-2,1.579268628E-1,-7.184596664E-1,7.387423978E-1
2.694081292E0,1.111956230E-1,3.373621237E-1,-6.568902397E-1,7.467813978E-1
2.704149292E0,3.725366708E-1,5.514342436E-1,-5.965241700E-1,8.937026248E-1
2.714216292E0,5.950968647E-1,6.034057581E-1,-4.248534268E-1,9.480185766E-1
2.724284292E0,6.323383659E-1,5.583848289E-1,-2.804277849E-1,8.889798472E-1
2.734352292E0,6.008492093E-1,4.543134534E-1,-3.050539184E-1,8.126982093E-1
2.744420292E0,5.432614441E-1,3.554928777E-1,-4.826484758E-1,8.089856203E-1
2.754487292E0,4.866066022E-1,3.324071932E-1,-6.380534345E-1,8.685578350E-1
2.764555292E0,5.353473839E-1,4.178975791E-1,-5.678675508E-1,8.852732704E-1
2.774623292E0,5.593405563E-1,4.468220007E-1,-6.895679891E-1,9.939898238E-1
2.784690292E0,4.286815258E-1,3.534352425E-1,-1.202057145E0,1.324245333E0
2.794758292E0,1.968931465E-1,3.402149802E-1,-1.952392323E0,1.991569463E0
2.804826292E0,-7.301067352E-2,4.429432502E-1,-2.513803378E0,2.553573321E0
2.814893292E0,-2.792046205E-1,5.449479273E-1,-2.618182610E0,2.688829418E0
2.824961292E0,-4.059110793E-1,6.596954414E-1,-2.263611546E0,2.392467159E0
2.835029292E0,-4.054605514E-1,7.633972728E-1,-1.721285217E0,1.926135108E0
2.845095958E0,-3.287920059E-1,8.727840596E-1,-1.067410387E0,1.417469976E0
2.855163958E0,-2.116295186E-1,9.894643709E-1,-4.156879163E-1,1.093902755E0
2.865231958E0,9.507572651E-3,9.847196478E-1,1.745826566E-1,1.000121134E0
2.875299958E0,2.674803684E-1,9.831517169E-1,6.830132604E-1,1.226637746E0
2.885366958E0,3.858410233E-1,9.555806333E-1,1.081986911E0,1.494223316E0
2.895434958E0,3.919059746E-1,1.028601832E0,1.535269500E0,1.889090908E0
2.905502958E0,3.917214949E-1,1.257769708E0,2.136145753E0,2.509691026E0
2.915569958E0,3.614966525E-1,1.394613558E0,2.637915793E0,3.005699010E0
2.925637958E0,3.483715537E-1,1.323504691E0,2.800209357E0,3.116761115E0
2.935705958E0,3.535269707E-1,1.194875887E0,2.714120216E0,2.986495982E0
2.945772958E0,4.639134121E-1,1.074424122E0,2.640662230E0,2.888373221E0
2.955840958E0,8.381102170E-1,9.410435781E-1,2.755793322E0,3.030245631E0
2.965908958E0,1.351529227E0,7.648064518E-1,3.045788321E0,3.418828258E0
2.975976958E0,1.590522764E0,4.715536764E-1,3.422630260E0,3.803488324E0
2.986043958E0,1.464340143E0,5.958985180E-2,3.839478849E0,4.109676488E0
2.996111958E0,1.137667314E0,-4.570353323E-1,4.032211263E0,4.214486431E0
3.006179958E0,7.316771512E-1,-1.076425916E0,3.724500954E0,3.945370903E0
3.016246958E0,3.353258309E-1,-1.568852983E0,2.968506256E0,3.374281033E0
3.026314958E0,-5.900790766E-3,-1.733988001E0,1.687742080E0,2.419756710E0
3.036382958E0,-2.538596450E-1,-1.678213750E0,2.946856356E-1,1.722697226E0
3.046449958E0,-4.139581637E-1,-1.485794454E0,-8.062252039E-1,1.740386624E0
3.056517958E0,-4.368981063E-1,-1.263361108E0,-1.624646530E0,2.103910073E0
3.066585958E0,-3.871628594E-1,-1.082096254E0,-2.148779832E0,2.436818037E0
3.076652958E0,-4.148158041E-1,-8.648140123E-1,-2.302257548E0,2.494066006E0
3.086720958E0,-4.716526406E-1,-6.890101647E-1,-2.140322419E0,2.297427099E0
3.096788958E0,-6.562454380E-1,-7.134635130E-1,-1.780571306E0,2.027343690E0
3.106856958E0,-8.256509699E-1,-7.798437363E-1,-1.521135610E0,1.898343837E0
3.116923958E0,-1.036703295E0,-8.188972896E-1,-1.550965766E0,2.037361357E0
3.126991958E0,-1.180066937E0,-8.734079576E-1,-1.521757754E0,2.114508477E0
3.137059958E0,-1.076986957E0,-9.035243341E-1,-1.256568398E0,1.885529439E0
3.147126958E0,-7.679806128E-1,-8.615132591E-1,-8.960355127E-1,1.461122499E0
3.157194958E0,-2.585342015E-1,-7.466444153E-1,-5.338057655E-1,9.535546190E-1
3.167262958E0,1.628341386E-1,-6.091851461E-1,-2.079112011E-1,6.639642810E-1
3.177329958E0,4.273491646E-1,-5.315814847E-1,2.803780836E-1,7.374402031E-1
3.187397958E0,7.032424338E-1,-4.589701760E-1,8.481608498E-1,1.193557862E0
3.197465958E0,8.712298697E-1,-4.415159449E-1,1.268030110E0,1.600586822E0
3.207532958E0,8.932623245E-1,-5.047708315E-1,1.383349482E0,1.722314420E0
3.217600958E0,7.587952217E-1,-6.283745384E-1,1.105969850E0,1.481146198E0
3.227668958E0,5.248623030E-1,-7.077820659E-1,3.947145385E-1,9.655234108E-1
3.237736958E0,3.474809131E-1,-6.451694959E-1,-5.509369379E-1,9.167977820E-1
3.247803958E0,2.750011303E-1,-4.988785923E-1,-1.341885121E0,1.457793247E0
3.257871958E0,2.291430259E-1,-3.802976435E-1,-1.800564691E0,1.854498862E0
3.267939958E0,1.703244218E-1,-3.476576087E-1,-2.097267031E0,2.132699046E0
3.278006958E0,8.843343571E-2,-3.105292511E-1,-2.309053767E0,2.331518429E0
3.288074958E0,2.537063017E-2,-2.055758232E-1,-2.554079584E0,2.562465144E0
3.298142958E0,1.255543381E-3,-1.072122073E-1,-2.784411349E0,2.786474941E0
3.308209958E0,-3.559492528E-2,-5.023752272E-2,-2.756361086E0,2.757048648E0
3.318277958E0,-1.253131405E-1,-1.002505124E-2,-2.438683029E0,2.441921130E0
3.328345958E0,-3.173820417E-1,-1.649265647E-2,-2.037823652E0,2.062456934E0
3.338412958E0,-5.246444942E-1,-1.004598427E-1,-1.661726648E0,1.745473998E0
3.348480958E0,-6.965831861E-1,-1.118689299E-1,-1.284642050E0,1.465622048E0
3.358548958E0,-7.803799260E-1,-3.016958624E-2,-9.293973863E-1,1.213953267E0
3.368616958E0,-8.084525545E-1,5.638908595E-2,-7.114330673E-1,1.078384102E0
3.378683958E0,-7.422851698E-1,1.382971752E-1,-6.845580947E-1,1.019182598E0
3.388751958E0,-6.194860397E-1,2.493381393E-1,-9.082450837E-1,1.127316102E0
3.398819958E0,-5.231521020E-1,3.878367510E-1,-1.146136714E0,1.318231707E0
3.408886958E0,-3.551648489E-1,5.993624085E-1,-1.176828164E0,1.367589812E0
3.418954958E0,-8.897225663E-2,8.190250513E-1,-9.843196982E-1,1.283590030E0
3.429022958E0,5.378619790E-2,8.591202861E-1,-5.432203674E-1,1.017874741E0
3.439089958E0,-1.225387828E-1,8.360834259E-1,-8.508400440E-2,8.492882527E-1
3.449157958E0,-5.459061398E-1,7.718301272E-1,2.763218701E-1,9.849309796E-1
3.459225958E0,-7.840015452E-1,6.365910459E-1,6.384674174E-1,1.194800078E0
3.469292958E0,-8.507802562E-1,5.791515076E-1,8.524953908E-1,1.336410081E0
3.479360958E0,-7.505942094E-1,7.167285982E-1,9.024569249E-1,1.375325435E0
3.489428958E0,-5.326696515E-1,8.758979943E-1,8.670572966E-1,1.342655060E0
3.499496958E0,-3.077766743E-1,9.120127371E-1,8.295398068E-1,1.270680922E0
3.509563958E0,-1.176559009E-1,8.847348914E-1,8.658188564E-1,1.243479405E0
3.519631958E0,2.164522290E-2,9.136426485E-1,9.600473213E-1,1.325481899E0
3.529699958E0,2.227665093E-1,9.556879297E-1,1.166573317E0,1.524420428E0
3.539766958E0,5.457650757E-1,8.439704427E-1,1.454002558E0,1.767560201E0
3.549834958E0,7.076012407E-1,7.632233182E-1,1.604769505E0,1.912719142E0
3.559902958E0,6.072725219E-1,8.201804611E-1,1.452789261E0,1.775407711E0
3.569969958E0,6.139845407E-1,7.442037874E-1,1.160914382E0,1.509482857E0
3.580037958E0,7.059122725E-1,4.968303126E-1,1.007524958E0,1.326747541E0
3.590105958E0,8.241646077E-1,2.812870333E-1,1.061039845E0,1.372652632E0
3.600172958E0,9.791772182E-1,2.061424184E-1,1.346029043E0,1.677222975E0
3.610240958E0,1.145772578E0,1.921976861E-1,1.866460472E0,2.198501637E0
3.620308958E0,1.328588407E0,-1.883508030E-1,2.405779577E0,2.754704804E0
3.630376958E0,1.413497580E0,-8.803600046E-1,2.638434441E0,3.119991257E0
3.640443958E0,1.440949818E0,-1.482583748E0,2.565023233E0,3.294500742E0
3.650511958E0,1.548549258E0,-1.888102187E0,2.480032784E0,3.480444983E0
3.660579958E0,1.585565056E0,-2.010048793E0,2.443700525E0,3.539206826E0
3.670646958E0,1.385793179E0,-1.809751251E0,2.315865773E0,3.249439430E0
3.680714958E0,1.000161267E0,-1.434910229E0,2.061980254E0,2.703895800E0
3.690782958E0,7.085938056E-1,-1.196633268E0,1.334297190E0,1.927274072E0
3.700849958E0,4.795564681E-1,-1.032998353E0,1.582010972E-1,1.149820678E0
3.710917958E0,3.115802881E-1,-8.658124244E-1,-8.933300060E-1,1.282478822E0
3.720985958E0,1.653605743E-1,-5.981634369E-1,-1.508134326E0,1.630831924E0
3.731053958E0,1.451197064E-1,-2.655407739E-1,-1.744225599E0,1.770280930E0
3.741120958E0,3.016006990E-1,6.174542785E-2,-1.800778699E0,1.826904322E0
3.751188958E0,5.622504231E-1,3.848543787E-1,-1.830187855E0,1.952901947E0
3.761256958E0,7.276606987E-1,5.490751845E-1,-1.568245457E0,1.813937007E0
3.771323958E0,6.544627681E-1,4.952120957E-1,-1.355581639E0,1.584663408E0
3.781391958E0,2.902180522E-1,3.266041240E-1,-1.231960391E0,1.307143135E0
3.791459958E0,1.317845464E-2,1.167241654E-1,-1.028172646E0,1.034860953E0
3.801526958E0,-5.322194159E-2,-1.058778727E-1,-6.759644419E-1,6.862729965E-1
3.811594958E0,1.075751732E-1,-2.215445691E-1,-3.038827211E-1,3.911510222E-1
3.821662958E0,3.991793261E-1,-1.063909659E-1,-2.131228244E-1,4.648489113E-1
3.831729958E0,6.785742004E-1,1.275160789E-2,-2.022943658E-1,7.082009315E-1
3.841797958E0,8.058192609E-1,-9.667640179E-2,-1.784266162E-1,8.309795818E-1
3.851866208E0,6.997501843E-1,-2.781944409E-1,-1.300338900E-1,7.641670497E-1
3.861934208E0,4.121604373E-1,-3.906489694E-1,-2.125614917E-1,6.063540477E-1
3.872001208E0,1.344040990E-1,-4.553627363E-1,-4.289967638E-1,6.398889801E-1
3.882069208E0,1.394590169E-2,-4.525130957E-1,-6.870139253E-1,8.227701523E-1
3.892137208E0,9.186807191E-2,-3.351185471E-1,-1.158563216E0,1.209550706E0
3.902204208E0,3.118264559E-1,-4.708850473E-2,-1.706123387E0,1.735024518E0
3.912272208E0,5.262768906E-1,1.843065763E-1,-1.946140480E0,2.024450308E0
3.922340208E0,5.914930795E-1,2.426050705E-1,-1.959832905E0,2.061471877E0
3.932407208E0,3.812165335E-1,2.636679107E-1,-1.914546220E0,1.969856350E0
3.942475208E0,8.485932514E-2,2.490829083E-1,-1.851733090E0,1.870336557E0
3.952543208E0,-1.909816115E-1,2.075738168E-1,-1.838821269E0,1.860329144E0
3.962610208E0,-3.324792601E-1,2.261129987E-1,-1.951389526E0,1.992383153E0
3.972678208E0,-2.528087541E-1,3.810922801E-1,-1.932299536E0,1.985680007E0
3.982746208E0,6.072611198E-2,6.465321895E-1,-1.589884248E0,1.717388557E0
3.992813208E0,3.796595661E-1,7.907262817E-1,-9.536873049E-1,1.295727176E0
4.002881208E0,5.797591795E-1,7.194113007E-1,-3.827832949E-1,1.000098184E0
4.012949208E0,5.587226517E-1,6.046447831E-1,-4.026860476E-2,8.242498868E-1
4.023017208E0,3.509446210E-1,5.412568724E-1,1.303034467E-1,6.581034243E-1
4.033084208E0,1.611285058E-1,4.538950852E-1,2.152026790E-1,5.275370478E-1
4.043152208E0,1.439822768E-1,4.801639938E-1,1.466008061E-1,5.222835948E-1
4.053220208E0,1.115235056E-1,5.875598037E-1,7.635352671E-2,6.029045333E-1
4.063287208E0,1.688686113E-1,6.535924101E-1,1.097738725E-1,6.839224733E-1
4.073355208E0,2.791469889E-3,7.135506365E-1,-1.729097682E-1,7.342071173E-1
4.083423208E0,-3.535299674E-1,8.280318099E-1,-3.840141338E-1,9.788191718E-1
4.093490208E0,-4.762925524E-1,8.305364648E-1,-2.197126365E-1,9.823029356E-1
4.103558208E0,-3.287042977E-1,7.210394579E-1,3.310371906E-1,8.587956897E-1
4.113626208E0,4.718136583E-3,7.564452258E-1,8.426498491E-1,1.132382625E0
4.123693208E0,3.332986012E-1,9.202318758E-1,1.153114781E0,1.512477557E0
4.133761208E0,7.035796720E-1,9.441616058E-1,1.539488851E0,1.938167024E0
4.143829208E0,7.840967086E-1,8.154822233E-1,1.887074246E0,2.200197290E0
4.153897208E0,5.578348982E-1,8.918839896E-1,2.050661214E0,2.304744723E0
4.163964208E0,2.467934310E-1,9.128775403E-1,1.755827059E0,1.994287106E0
4.174032208E0,3.272598892E-2,7.463014761E-1,1.362660863E0,1.553988903E0
4.184100208E0,-6.317916512E-3,6.496358916E-1,1.312428603E0,1.464423281E0
4.194167208E0,1.406881016E-1,6.156410569E-1,1.701026954E0,1.814469551E0
4.204235208E0,4.496675482E-1,4.690387890E-1,2.388930826E0,2.475719851E0
4.214303208E0,7.937241492E-1,5.356429607E-2,3.223715000E0,3.320422497E0
4.224370208E0,1.112961512E0,-5.564151943E-1,4.178478193E0,4.359812061E0
4.234438208E0,1.312273798E0,-1.136292049E0,4.851157084E0,5.152372968E0
4.244506208E0,1.153599954E0,-1.590935285E0,4.782563982E0,5.170569231E0
4.254573208E0,8.340240365E-1,-1.832476455E0,3.921064464E0,4.407755958E0
4.264641208E0,4.328715675E-1,-1.855322696E0,2.251710708E0,2.949542543E0
4.274709208E0,8.970622838E-2,-1.742476696E0,3.998641813E-1,1.790017768E0
4.284777208E0,-1.243044958E-1,-1.576265206E0,-1.106624154E0,1.929943166E0
4.294844208E0,-2.071950634E-1,-1.327872269E0,-2.209121928E0,2.585806305E0
4.304912208E0,-1.477899471E-1,-9.640240127E-1,-2.841386619E0,3.004107535E0
4.314980208E0,-8.455581810E-2,-5.329313144E-1,-2.759699262E0,2.811957590E0
4.325047208E0,-9.986474231E-2,-2.318523332E-1,-2.025838029E0,2.041506354E0
4.335115208E0,-2.911729208E-1,-2.037801433E-1,-1.057039765E0,1.115186568E0
4.345183208E0,-5.500288288E-1,-3.863462958E-1,-2.669575542E-1,7.232299140E-1
4.355250208E0,-8.134871534E-1,-6.510319144E-1,1.089640331E-1,1.047605395E0
4.365318208E0,-1.116581816E0,-9.194229135E-1,2.651419938E-2,1.446650078E0
4.375386208E0,-1.268810567E0,-1.181050146E0,-4.522020239E-1,1.791436958E0
4.385453208E0,-1.083616091E0,-1.316592113E0,-1.083559227E0,2.020331464E0
4.395521208E0,-6.563954191E-1,-1.294715633E0,-1.673934465E0,2.215671480E0
4.405589208E0,1.572725594E-2,-1.110064656E0,-1.751814115E0,2.073968076E0
4.415657208E0,9.124479161E-1,-6.574346155E-1,-1.120027142E0,1.587212107E0
4.425724208E0,1.556445045E0,-2.540048021E-1,-1.969307148E-1,1.589283274E0
4.435792208E0,1.797243911E0,-6.181442499E-2,6.574042100E-1,1.914702847E0
4.445860208E0,1.732950266E0,-7.520659536E-2,1.353596510E0,2.200226390E0
4.455927208E0,1.228729366E0,-3.964523309E-1,1.632946653E0,2.081697643E0
4.465995208E0,4.884309335E-1,-8.841156712E-1,8.973768640E-1,1.351114552E0
4.476063208E0,-2.323752205E-1,-1.179984199E0,-5.614122248E-1,1.327231946E0
4.486130208E0,-6.205709906E-1,-1.087021363E0,-1.768120830E0,2.166327553E0
4.496198208E0,-6.173946369E-1,-7.877991655E-1,-2.531123416E0,2.721835669E0
4.506266208E0,-3.473588160E-1,-4.640514064E-1,-2.837285382E0,2.895891951E0
4.516333208E0,4.882849450E-2,-1.865054217E-1,-2.671867066E0,2.678813564E0
4.526401208E0,3.163804136E-1,5.578653038E-2,-2.296058915E0,2.318425164E0
4.536469208E0,4.778980516E-1,2.774886820E-1,-1.854395912E0,1.934985973E0
4.546536208E0,4.172839138E-1,2.847240266E-1,-1.490986197E0,1.574240603E0
4.556604208E0,1.772408009E-1,1.537665689E-1,-1.286439484E0,1.307663949E0
4.566672208E0,-1.150126854E-1,1.992029428E-2,-1.189474522E0,1.195188008E0
4.576740208E0,-3.404690418E-1,-6.293153554E-2,-1.328213747E0,1.372600198E0
4.586807208E0,-3.671969569E-1,-4.656781018E-2,-1.541430126E0,1.585247300E0
4.596875208E0,-1.681884339E-1,5.940098673E-2,-1.533889557E0,1.544225696E0
4.606943208E0,1.232834257E-1,1.933028099E-1,-1.314739423E0,1.334580282E0
4.617010208E0,3.556171310E-1,3.235135782E-1,-1.138192686E0,1.235559457E0
4.627078208E0,3.796320842E-1,4.147438833E-1,-1.036911895E0,1.179541981E0
4.637146208E0,2.329076095E-1,4.212278607E-1,-8.737114280E-1,9.975221926E-1
4.647213208E0,1.436788063E-1,3.780745322E-1,-6.143365431E-1,7.355224942E-1
4.657281208E0,-1.005741557E-1,3.802274770E-1,-2.158043575E-1,4.486196783E-1
4.667349208E0,-4.617171248E-1,3.866705239E-1,1.999741906E-1,6.345758223E-1
4.677416208E0,-7.988270143E-1,2.541962984E-1,5.429829705E-1,9.987846931E-1
4.687484208E0,-9.833848015E-1,6.249533325E-2,8.505009055E-1,1.301653996E0
4.697552208E0,-9.089969625E-1,4.910491705E-3,9.519863498E-1,1.316274136E0
4.707620208E0,-5.997630890E-1,1.354118666E-1,7.827983344E-1,9.954021141E-1
4.717687208E0,-1.154646020E-1,3.712011302E-1,4.690940452E-1,6.092385219E-1
4.727755208E0,4.737547877E-1,5.755428985E-1,3.478368258E-1,8.226078557E-1
4.737823208E0,1.030699009E0,6.624816397E-1,5.858559251E-1,1.358105126E0
4.747890208E0,1.434775159E0,7.146613151E-1,1.151679874E0,1.973749499E0
4.757958208E0,1.607827891E0,6.938443503E-1,1.790484091E0,2.504468764E0
4.768026208E0,1.523421872E0,5.200963837E-1,2.260724190E0,2.775281664E0
4.778093208E0,1.324493163E0,3.367180529E-1,2.545556098E0,2.889206991E0
4.788161208E0,1.022605366E0,3.566734305E-1,2.474617093E0,2.701234427E0
4.798229208E0,6.308636250E-1,4.794994578E-1,2.141565537E0,2.283464822E0
4.808296208E0,5.008574362E-1,5.617367452E-1,1.682388954E0,1.843051528E0
4.818364208E0,6.801958526E-1,5.744591171E-1,1.119311442E0,1.430219487E0
4.828432208E0,8.666981314E-1,6.218911457E-1,6.197276759E-1,1.233684174E0
4.838500208E0,9.746097388E-1,7.230871528E-1,2.670014083E-1,1.242581557E0
4.848567042E0,1.149355752E0,7.753077587E-1,1.347426528E-1,1.392938027E0
4.858635042E0,1.425101818E0,5.556097403E-1,4.287324697E-1,1.588530423E0
4.868703042E0,1.656806655E0,1.329186139E-1,1.212731237E0,2.057521009E0
4.878770042E0,1.856605867E0,-2.442645103E-1,2.093579777E0,2.808865746E0
4.888838042E0,2.071417368E0,-3.927706316E-1,2.581591319E0,3.333114522E0
4.898906042E0,2.091209754E0,-5.110665286E-1,2.508117546E0,3.305298906E0
4.908973042E0,1.930888018E0,-6.721514726E-1,2.107638237E0,2.936367668E0
4.919041042E0,1.592529529E0,-8.380650473E-1,1.593215407E0,2.403505493E0
4.929109042E0,1.263641775E0,-9.128202376E-1,9.757260454E-1,1.839041227E0
4.939176042E0,9.451803370E-1,-8.247506449E-1,2.882753330E-1,1.287121658E0
4.949244042E0,6.376222023E-1,-6.813231227E-1,-2.802055907E-1,9.743092135E-1
4.959312042E0,4.813861350E-1,-5.451715833E-1,-5.997974414E-1,9.427097310E-1
4.969379042E0,5.603473737E-1,-3.829344454E-1,-7.112167203E-1,9.830855466E-1
4.979447042E0,7.418179042E-1,-2.496375167E-1,-8.016754854E-1,1.120400052E0
4.989515042E0,7.994489387E-1,-2.588886890E-1,-9.896804255E-1,1.298310172E0
4.999583042E0,7.614969277E-1,-3.217281309E-1,-1.160911458E0,1.425167350E0
5.009650042E0,7.127551228E-1,-3.743264669E-1,-1.126890603E0,1.384926930E0
5.019718042E0,8.493158942E-1,-4.350793299E-1,-7.204956669E-1,1.195719665E0
5.029786042E0,1.144249159E0,-5.822967249E-1,-3.819869041E-2,1.284458934E0
5.039853042E0,1.352070971E0,-6.687703201E-1,5.719512463E-1,1.613219725E0
5.049921042E0,1.383993845E0,-6.278667077E-1,7.080931377E-1,1.676619056E0
5.059989042E0,1.279743545E0,-6.158150116E-1,3.590079314E-1,1.464874863E0
5.070056042E0,1.091757535E0,-6.845469850E-1,-2.380699700E-1,1.310426038E0
5.080124042E0,8.813063034E-1,-7.042719823E-1,-9.240296423E-1,1.458262873E0
5.090192042E0,7.375812310E-1,-5.647580016E-1,-1.477974973E0,1.745676858E0
5.100259042E0,5.628437693E-1,-3.955603382E-1,-1.932354500E0,2.051159429E0
5.110327042E0,3.401364814E-1,-2.922417918E-1,-2.291011013E0,2.334487000E0
5.120395042E0,2.173493381E-1,-2.680191162E-1,-2.484070871E0,2.507924057E0
5.130463042E0,2.401673663E-1,-1.926850516E-1,-2.504174768E0,2.523033722E0
5.140530042E0,2.647456987E-1,-3.152350903E-2,-2.390849882E0,2.405669797E0
5.150598042E0,2.632681073E-1,1.571240401E-1,-2.211550276E0,2.232700760E0
5.160666042E0,4.114800406E-1,3.109341708E-1,-2.149084471E0,2.210104058E0
5.170733042E0,6.092842564E-1,4.411893779E-1,-2.108458017E0,2.238631408E0
5.180801042E0,7.185027896E-1,5.906114656E-1,-2.065631256E0,2.265369870E0
5.190869042E0,7.418621968E-1,7.139061472E-1,-1.866340020E0,2.131489286E0
5.200936042E0,7.968639578E-1,6.735147509E-1,-1.567160799E0,1.882712739E0
5.211004042E0,8.432484578E-1,5.445213729E-1,-1.165741258E0,1.538351120E0
5.221072042E0,8.831816516E-1,5.114775878E-1,-7.462935823E-1,1.264346971E0
5.231139042E0,9.082538545E-1,4.889783791E-1,-3.676723355E-1,1.095083497E0
5.241207042E0,9.010747162E-1,4.210293478E-1,-3.696025014E-2,9.952725335E-1
5.251275042E0,8.462572157E-1,3.572362250E-1,1.274500054E-1,9.273685888E-1
5.261342042E0,6.811706565E-1,3.343513924E-1,-1.920225620E-3,7.588069611E-1
5.271410042E0,4.817300244E-1,3.640382910E-1,-2.629071879E-1,6.585650182E-1
5.281478042E0,2.661740273E-1,3.767992544E-1,-3.951419699E-1,6.074236309E-1
5.291546042E0,6.883729644E-2,3.696159500E-1,-3.677214521E-1,5.259026433E-1
5.301613042E0,-1.170071706E-2,4.604743722E-1,-2.737958729E-1,5.358523437E-1
5.311681042E0,8.041324854E-2,6.763524047E-1,-2.482587433E-1,7.249491496E-1
5.321749042E0,2.480692204E-1,8.723078039E-1,-1.591547781E-1,9.207548459E-1
5.331816042E0,4.204414102E-1,9.956831771E-1,1.495390320E-1,1.091108560E0
5.341884042E0,5.682787563E-1,1.043473348E0,5.968405044E-1,1.329660092E0
5.351952042E0,6.953128785E-1,1.026143078E0,9.869088453E-1,1.584430082E0
5.362019042E0,8.275775544E-1,1.012146013E0,1.176311270E0,1.758701897E0
5.372087042E0,8.882625896E-1,9.852985221E-1,1.376573728E0,1.911747587E0
5.382155042E0,7.869982432E-1,8.580166242E-1,1.541897319E0,1.932098886E0
5.392222042E0,5.007958212E-1,7.383741134E-1,1.467663993E0,1.717565248E0
5.402290042E0,1.165546144E-1,7.714561978E-1,1.171925274E0,1.407884402E0
5.412358042E0,-1.383531623E-1,8.350806284E-1,7.978964299E-1,1.163245445E0
5.422425042E0,-3.174365669E-2,8.676955202E-1,5.374041420E-1,1.021129956E0
5.432493042E0,3.245765289E-1,8.391052669E-1,6.805498284E-1,1.128093809E0
5.442561042E0,4.715201280E-1,8.746873283E-1,9.347499275E-1,1.364245792E0
5.452629042E0,5.594347695E-1,7.934300342E-1,1.462472835E0,1.755370409E0
5.462696042E0,7.762937455E-1,3.894502902E-1,2.452616944E0,2.601851914E0
5.472764042E0,9.967473704E-1,-1.177582455E-1,3.477573037E0,3.619514685E0
5.482832042E0,9.604907595E-1,-5.963180557E-1,4.078762701E0,4.232545675E0
5.492899042E0,8.670916490E-1,-9.530248153E-1,4.317603918E0,4.505752748E0
5.502967042E0,7.724280050E-1,-1.228020829E0,4.031241794E0,4.284342491E0
5.513035042E0,5.212918104E-1,-1.466101617E0,3.173834742E0,3.534745546E0
5.523102042E0,2.656823496E-1,-1.474802858E0,1.795898028E0,2.338991302E0
5.533170042E0,2.125510398E-2,-1.237817547E0,2.049314600E-1,1.254846987E0
5.543238042E0,-3.374567755E-1,-9.768998739E-1,-1.061270226E0,1.481386152E0
5.553305042E0,-6.478406502E-1,-8.051963863E-1,-1.605347210E0,1.909235028E0
5.563373042E0,-8.277597682E-1,-6.766889119E-1,-1.624492164E0,1.944754202E0
5.573441042E0,-9.565289055E-1,-5.298375526E-1,-1.385922841E0,1.765349116E0
5.583509042E0,-1.174820303E0,-4.322843608E-1,-1.036982646E0,1.625547760E0
5.593576042E0,-1.324625895E0,-4.012777457E-1,-6.660633516E-1,1.536000644E0
5.603644042E0,-1.392203482E0,-4.398527044E-1,-3.873552328E-1,1.510544608E0
5.613712042E0,-1.295020273E0,-5.133524975E-1,-7.257154763E-2,1.394946208E0
5.623779042E0,-1.053143838E0,-5.667580417E-1,1.351186287E-1,1.203571214E0
5.633847042E0,-6.551441149E-1,-5.048760813E-1,3.123798949E-1,8.841350958E-1
5.643915042E0,-2.275854007E-1,-3.078456715E-1,5.308909285E-1,6.545297931E-1
5.653982042E0,5.574538060E-2,-1.340064883E-1,6.819432199E-1,6.972172126E-1
5.664050042E0,1.535487236E-1,-6.174425840E-2,4.708236516E-1,4.990635980E-1
5.674118042E0,8.546984755E-2,-1.356787920E-2,-8.694692731E-2,1.226741634E-1
5.684185042E0,-4.795571990E-2,-6.724707305E-2,-6.742295730E-1,6.792697822E-1
5.694253042E0,-1.137100353E-1,-1.911878720E-1,-9.510642439E-1,9.767322922E-1
5.704321042E0,-1.556144718E-1,-2.803599572E-1,-8.133903819E-1,8.743120054E-1
5.714388042E0,-2.672608420E-1,-4.173248443E-1,-5.070383817E-1,7.089966882E-1
5.724456042E0,-3.317677636E-1,-5.802744654E-1,-3.437092763E-1,7.516145094E-1
5.734524042E0,-4.878823916E-1,-6.026000118E-1,-2.713271785E-1,8.214465534E-1
5.744592042E0,-6.146293424E-1,-5.455691940E-1,-2.251382679E-1,8.521163146E-1
5.754659042E0,-6.414501552E-1,-5.411250177E-1,-1.798416424E-1,8.582642965E-1
5.764727042E0,-5.980458348E-1,-4.564067566E-1,-1.106509548E-1,7.604009349E-1
5.774795042E0,-3.854202064E-1,-2.043534628E-1,-2.525845134E-1,5.040912712E-1
5.784862042E0,-2.136822020E-1,7.431226373E-2,-6.376587474E-1,6.766025969E-1
5.794930042E0,-9.946523130E-2,2.687003168E-1,-1.164274192E0,1.199011087E0
5.804998042E0,7.281033330E-2,3.920195568E-1,-1.682032859E0,1.728645486E0
5.815065042E0,1.037011919E-1,4.146023807E-1,-1.878588182E0,1.926588340E0
5.825133042E0,1.341756921E-2,3.218383509E-1,-1.895744498E0,1.922916315E0
5.835201042E0,-1.545434811E-1,2.143253043E-1,-1.720618635E0,1.740789335E0
5.845268042E0,-3.352789801E-1,1.386892310E-1,-1.313146641E0,1.362351202E0
5.855336042E0,-4.504935040E-1,8.188557744E-2,-7.495645148E-1,8.783487956E-1
5.865404042E0,-4.315150134E-1,5.780469686E-2,-2.979799569E-1,5.275780933E-1
5.875471042E0,-3.237559453E-1,1.138502589E-1,-5.489366055E-2,3.475530283E-1
5.885539042E0,-1.524087358E-1,2.004133165E-1,-1.101404929E-1,2.748178458E-1
5.895607042E0,-1.065790635E-1,2.921844891E-1,-3.199666572E-1,4.462169138E-1
5.905675042E0,-1.059825927E-1,4.030000430E-1,-3.687108010E-1,5.564072244E-1
5.915742042E0,-1.055802860E-1,5.402765867E-1,-2.064622611E-1,5.879393270E-1
5.925810042E0,-1.398527538E-1,6.159927669E-1,4.971127331E-2,6.336222000E-1
5.935878042E0,-2.059770884E-1,6.174381986E-1,3.845403832E-1,7.559945743E-1
5.945945042E0,-2.554154794E-1,6.157670644E-1,6.215713030E-1,9.114587371E-1
5.956013042E0,-3.403177816E-1,5.529787856E-1,9.337886453E-1,1.137349095E0
5.966081042E0,-4.357243509E-1,4.662908900E-1,1.468507746E0,1.601186405E0
5.976148042E0,-5.706280214E-1,4.750631753E-1,2.057230561E0,2.187121153E0
5.986216042E0,-5.725619514E-1,5.075201923E-1,2.389871643E0,2.509360556E0
5.996284042E0,-5.136532637E-1,5.666887522E-1,2.428045775E0,2.545659463E0
6.006351042E0,-4.676047228E-1,7.235479134E-1,2.200730588E0,2.363343158E0
6.016419042E0,-2.623996131E-1,9.034778488E-1,1.881084359E0,2.103236588E0
6.026487042E0,-5.407304037E-2,1.069778509E0,1.490870422E0,1.835768114E0
6.036554042E0,-1.846565321E-2,1.193586284E0,1.336686362E0,1.792127124E0
6.046622042E0,-5.982395969E-3,1.229346685E0,1.530322756E0,1.962961232E0
6.056690042E0,1.635235984E-2,9.704319763E-1,1.841630856E0,2.081732411E0
6.066758042E0,1.895365087E-1,5.607725394E-1,1.928936217E0,2.017717735E0
6.076825042E0,1.681165497E-1,3.567851123E-1,1.968720673E0,2.007839605E0
6.086893042E0,7.714973476E-2,3.084561208E-1,2.012656651E0,2.037617249E0
6.096961042E0,1.914130812E-1,1.816960868E-1,1.953327878E0,1.971076415E0
6.107028042E0,3.494649100E-1,1.088693082E-2,1.857445820E0,1.890065931E0
6.117096042E0,5.498456282E-1,-7.261510938E-2,1.781601586E0,1.865933380E0
6.127164042E0,1.012300525E0,-1.318286929E-1,1.840737401E0,2.104862309E0
6.137231042E0,1.807811145E0,-1.828954969E-1,2.182749816E0,2.840075467E0
6.147299042E0,2.328651879E0,-2.505904667E-1,2.583244911E0,3.486914027E0
6.157367042E0,2.345401813E0,-4.769395468E-1,2.899188684E0,3.759478159E0
6.167434042E0,2.098244247E0,-8.144399571E-1,3.063039361E0,3.801072413E0
6.177502042E0,1.678065231E0,-1.138420582E0,2.861062499E0,3.506790978E0
6.187570042E0,1.144567613E0,-1.324332803E0,2.331656179E0,2.915563913E0
6.197637042E0,5.904292883E-1,-1.391296433E0,1.629599707E0,2.222590316E0
6.207705042E0,2.461472772E-1,-1.388710940E0,9.158944112E-1,1.681656662E0
6.217773042E0,8.792527612E-2,-1.331471084E0,3.872786343E-1,1.389435440E0
6.227841042E0,5.017598078E-2,-1.256071238E0,-8.296965122E-2,1.259808139E0
6.237908042E0,-3.987070173E-4,-1.098171711E0,-5.428812289E-1,1.225031140E0
6.247976042E0,2.159073416E-2,-9.172113504E-1,-8.542828846E-1,1.253611610E0
6.258044042E0,1.403413435E-1,-7.329826882E-1,-9.152857161E-1,1.180977246E0
6.268111042E0,2.646317328E-1,-5.741803510E-1,-7.199852049E-1,9.581710311E-1
6.278179042E0,3.669107357E-1,-5.867204359E-1,-6.307438302E-1,9.363237353E-1
6.288247042E0,4.483272933E-1,-6.927240238E-1,-8.199304926E-1,1.163249736E0
6.298314042E0,5.043034928E-1,-7.822340780E-1,-1.122580621E0,1.458217890E0
6.308382042E0,4.693291032E-1,-8.698063651E-1,-1.286395630E0,1.622235074E0
6.318450042E0,3.583326510E-1,-9.724095047E-1,-1.092418928E0,1.505776095E0
6.328517042E0,2.269527685E-1,-1.095983098E0,-6.190265948E-1,1.279015417E0
6.338585042E0,1.365064654E-1,-1.252659242E0,-1.219524533E-1,1.265962714E0
6.348653042E0,1.201314476E-1,-1.287934324E0,2.314088219E-1,1.314061046E0
6.358720042E0,2.004911027E-1,-1.070126126E0,4.009862620E-1,1.160239885E0
6.368788042E0,2.974167969E-1,-7.945550385E-1,1.020789367E-1,8.545142302E-1
6.378856042E0,4.599241492E-1,-5.696567988E-1,-5.499043196E-1,9.156603367E-1
6.388924042E0,5.969836516E-1,-4.074240464E-1,-1.300393279E0,1.487752168E0
6.398991042E0,5.226131715E-1,-2.984144050E-1,-1.917547011E0,2.009766709E0
6.409059042E0,3.704036065E-1,-1.430644101E-1,-2.341261400E0,2.374693917E0
6.419127042E0,2.480054858E-1,-5.908348292E-2,-2.468525464E0,2.481655807E0
6.429194042E0,2.577973793E-1,-1.485181081E-1,-2.536310481E0,2.553700838E0
6.439262042E0,3.167800708E-1,-2.238501263E-1,-2.540058546E0,2.569504993E0
6.449330042E0,3.255883896E-1,-1.361263964E-1,-2.473405550E0,2.498454164E0
6.459397042E0,3.694059619E-1,3.297800392E-2,-2.351705697E0,2.380770463E0
6.469465042E0,3.765858310E-1,1.675288680E-1,-2.184761258E0,2.223300376E0
6.479533042E0,1.385469792E-1,2.245906761E-1,-2.035704621E0,2.052737085E0
6.489600042E0,-2.241774790E-1,1.519071543E-1,-2.117806545E0,2.135049388E0
6.499668042E0,-5.183892525E-1,2.023692101E-2,-2.389965198E0,2.445622742E0
6.509736042E0,-6.901654284E-1,-3.038797975E-3,-2.603786765E0,2.693704340E0
6.519803042E0,-7.285018207E-1,1.122206399E-1,-2.619260252E0,2.720998464E0
6.529871042E0,-6.589791575E-1,2.956413630E-1,-2.550765383E0,2.651049110E0
6.539939042E0,-3.195469733E-1,4.255205941E-1,-2.315535405E0,2.375896096E0
6.550006042E0,-4.837918622E-2,5.393062413E-1,-1.998390614E0,2.070448458E0
6.560074042E0,-4.067907929E-3,7.316264266E-1,-1.719769034E0,1.868929990E0
6.570142042E0,-6.457398187E-2,9.023803264E-1,-1.440399595E0,1.700944163E0
6.580210042E0,-6.213247698E-2,9.638190678E-1,-1.232283742E0,1.565672654E0
6.590277042E0,2.420409238E-2,9.234457979E-1,-1.235105023E0,1.542343152E0
6.600345042E0,9.565028854E-2,9.050139123E-1,-1.340348473E0,1.620102833E0
6.610413042E0,4.878554030E-2,9.790250444E-1,-1.357496018E0,1.674414974E0
6.620480042E0,-6.442462206E-2,1.082190979E0,-1.321355547E0,1.709171825E0
6.630548042E0,-1.443266138E-1,1.018773539E0,-1.155508631E0,1.547232979E0
6.640616042E0,-1.165145975E-1,9.483973289E-1,-8.007270670E-1,1.246674368E0
6.650683042E0,-7.596519850E-2,9.325832418E-1,-3.940386003E-1,1.015257914E0
6.660751042E0,-2.307219934E-2,8.850430396E-1,5.726119816E-2,8.871935263E-1
6.670819042E0,8.387640819E-2,8.203377512E-1,3.819997680E-1,9.087976126E-1
6.680886042E0,2.668235068E-1,8.266004115E-1,6.590589720E-1,1.090331029E0
6.690954042E0,4.892045567E-1,8.801851729E-1,9.684866077E-1,1.397144712E0
6.701022042E0,6.511346792E-1,8.594705343E-1,1.073968039E0,1.521865079E0
6.711089042E0,7.115916730E-1,8.341479975E-1,1.034394084E0,1.507360843E0
6.721157042E0,5.608610151E-1,8.791648337E-1,8.776881194E-1,1.363023227E0
6.731225042E0,1.939136977E-1,9.808976153E-1,6.529018539E-1,1.194170626E0
6.741293042E0,-3.066203874E-1,1.068058258E0,3.849333161E-1,1.175983913E0
6.751360042E0,-7.632986011E-1,1.131413132E0,1.785447299E-1,1.376444205E0
6.761428042E0,-1.024455425E0,1.117081022E0,1.289281815E-1,1.521184211E0
6.771496042E0,-1.023192207E0,1.059660487E0,2.326507705E-1,1.491284353E0
6.781563042E0,-6.836424208E-1,1.048268357E0,7.691737372E-1,1.468966217E0
6.791631042E0,-9.903582640E-2,9.313904098E-1,1.624054792E0,1.874793364E0
6.801699042E0,5.270765339E-1,6.495268410E-1,2.613783749E0,2.744368831E0
6.811766042E0,1.006312611E0,2.778187573E-1,3.520364131E0,3.671894871E0
6.821834042E0,1.319275985E0,-1.498746622E-1,4.296314791E0,4.496806903E0
6.831902042E0,1.476060741E0,-5.488687778E-1,4.586482868E0,4.849313079E0
6.841969042E0,1.303627082E0,-9.193071386E-1,4.197095727E0,4.490009101E0
6.852037292E0,8.354520728E-1,-1.169783146E0,2.979142926E0,3.307818821E0
6.862105292E0,3.115623810E-1,-1.183975216E0,1.228128710E0,1.734118957E0
6.872172292E0,-5.301290363E-2,-1.029224560E0,-4.439422470E-1,1.122140046E0
6.882240292E0,-4.207421764E-1,-8.751703084E-1,-1.554826097E0,1.833147905E0
6.892308292E0,-6.662551403E-1,-7.856064597E-1,-1.930936550E0,2.188513053E0
6.902375292E0,-8.076791140E-1,-6.755136216E-1,-1.802429368E0,2.087442414E0
6.912443292E0,-8.674535186E-1,-4.579390195E-1,-1.384982024E0,1.697162031E0
6.922511292E0,-8.231385675E-1,-2.749334487E-1,-1.022824783E0,1.341385865E0
6.932579292E0,-8.851328675E-1,-2.975630504E-1,-8.975832707E-1,1.295245031E0
6.942646292E0,-1.056483476E0,-3.796839783E-1,-9.930133384E-1,1.498797100E0
6.952714292E0,-1.108817664E0,-4.380441606E-1,-1.136749009E0,1.647287955E0
6.962782292E0,-7.805741266E-1,-4.688446614E-1,-1.200683634E0,1.506901614E0
6.972849292E0,-5.744113709E-2,-4.343338099E-1,-1.040182827E0,1.128683152E0
6.982917292E0,6.697253166E-1,-2.705825356E-1,-5.712507498E-1,9.209095110E-1
6.992985292E0,1.107078702E0,-1.128477538E-1,1.200088388E-1,1.119267613E0
7.003052292E0,1.229480294E0,-1.222559237E-1,7.983782405E-1,1.471045927E0
7.013120292E0,1.134984538E0,-2.796539059E-1,1.166855153E0,1.651649829E0
7.023188292E0,8.358932452E-1,-4.744454169E-1,9.034141141E-1,1.319080374E0
7.033255292E0,3.278832024E-1,-6.928348285E-1,1.883294606E-1,7.893006270E-1
7.043323292E0,-1.304642451E-1,-8.932516533E-1,-5.232842857E-1,1.043429863E0
7.053391292E0,-4.562400744E-1,-9.777003577E-1,-9.678089154E-1,1.449381624E0
7.063458292E0,-6.902934824E-1,-9.198398200E-1,-1.269018874E0,1.712605994E0
7.073526292E0,-7.010602529E-1,-7.976207337E-1,-1.597813073E0,1.918512687E0
7.083594292E0,-6.333750042E-1,-5.916861838E-1,-1.913949219E0,2.101061172E0
7.093662292E0,-4.263214434E-1,-3.028945416E-1,-2.125599715E0,2.188988173E0
7.103729292E0,-1.295677573E-1,-2.874198854E-2,-2.313551445E0,2.317355000E0
7.113797292E0,5.948646571E-2,1.330376047E-1,-2.444423241E0,2.448763489E0
7.123865292E0,9.041100059E-2,2.243377841E-1,-2.588648323E0,2.599923409E0
7.133932292E0,-3.677200634E-2,2.493375546E-1,-2.763228056E0,2.774698306E0
7.144000292E0,-3.100089220E-1,1.602753970E-1,-2.790818143E0,2.812553936E0
7.154068292E0,-5.970084291E-1,1.261829138E-2,-2.645989628E0,2.712533760E0
7.164135292E0,-8.698813556E-1,-1.202424350E-1,-2.230139744E0,2.396805185E0
7.174203292E0,-9.631273422E-1,-1.608531019E-1,-1.650194770E0,1.917454243E0
7.184271292E0,-8.229383735E-1,-8.587922573E-2,-1.153400710E0,1.419484415E0
7.194338292E0,-6.387366816E-1,7.083784819E-2,-7.743923771E-1,1.006323061E0
7.204406292E0,-4.073162384E-1,3.189150354E-1,-4.706915045E-1,6.994024666E-1
7.214474292E0,-1.488114556E-1,5.720421705E-1,-1.795141983E-1,6.177397846E-1
7.224541292E0,9.274791341E-2,7.783801782E-1,-6.029064059E-3,7.839095783E-1
7.234609292E0,2.278171697E-1,9.063736823E-1,1.473732233E-2,9.346823543E-1
7.244677292E0,1.534579090E-1,9.632647517E-1,-7.052619159E-2,9.779582074E-1
7.254744292E0,-9.736074530E-2,1.030051649E0,-3.279247177E-1,1.085366360E0
7.264812292E0,-3.917588440E-1,1.027987582E0,-7.097040457E-1,1.309165113E0
7.274880292E0,-6.226732108E-1,9.718344310E-1,-8.636986560E-1,1.441582275E0
7.284948292E0,-7.443653899E-1,9.975820604E-1,-7.343120527E-1,1.445151892E0
7.295015292E0,-7.668124853E-1,1.095942460E0,-1.460926831E-2,1.337648943E0
7.305083292E0,-5.661502236E-1,1.150913012E0,8.215934408E-1,1.523201437E0
7.315151292E0,-2.548606883E-1,1.119308811E0,1.291264021E0,1.727764150E0
7.325218292E0,8.451602049E-2,1.027310182E0,1.635914115E0,1.933578071E0
7.335286292E0,3.732265691E-1,8.866296816E-1,1.981758794E0,2.202902218E0
7.345354292E0,4.789524873E-1,7.288665408E-1,2.245464127E0,2.408890007E0
7.355421292E0,5.415624625E-1,5.886988413E-1,2.359222877E0,2.491142069E0
7.365489292E0,5.013150905E-1,4.804747733E-1,2.215534569E0,2.321802372E0
7.375557292E0,5.075202288E-1,4.136554241E-1,1.908267480E0,2.017466819E0
7.385624292E0,5.791659064E-1,4.618616241E-1,1.514207829E0,1.685697083E0
7.395692292E0,5.526487103E-1,6.460313755E-1,1.166810714E0,1.443684307E0
7.405760292E0,6.348158312E-1,7.642334247E-1,9.348651177E-1,1.364190843E0
7.415827292E0,6.751308482E-1,6.729235974E-1,8.938960165E-1,1.306781511E0
7.425895292E0,7.061723274E-1,4.228297055E-1,9.953463775E-1,1.291579934E0
7.435963292E0,7.434793174E-1,1.701911053E-1,1.255187870E0,1.468748820E0
7.446030292E0,8.063974775E-1,-1.781629068E-1,1.527471653E0,1.736429833E0
7.456098292E0,8.858141412E-1,-6.166447315E-1,1.707217986E0,2.019779857E0
7.466166292E0,9.640079328E-1,-9.732675835E-1,1.835321710E0,2.290189264E0
7.476234292E0,1.042764080E0,-1.201805423E0,1.928952590E0,2.500510207E0
7.486301292E0,1.014042776E0,-1.339064425E0,1.830465013E0,2.484346685E0
7.496369292E0,8.581228973E-1,-1.394124146E0,1.439346512E0,2.179833806E0
7.506437292E0,6.454446805E-1,-1.368777636E0,7.892951757E-1,1.706791705E0
7.516504292E0,4.906825866E-1,-1.322231460E0,9.721229911E-2,1.413688674E0
7.526572292E0,5.323526593E-1,-1.264142589E0,-3.112297475E-1,1.406527566E0
7.536640292E0,6.657318145E-1,-1.144864067E0,-3.084663534E-1,1.359802953E0
7.546707292E0,8.407676303E-1,-8.864370158E-1,2.261761487E-2,1.221954315E0
7.556775292E0,1.004700607E0,-6.684583712E-1,4.281746453E-1,1.280466099E0
7.566843292E0,9.878511972E-1,-6.328327480E-1,6.121818441E-1,1.323289041E0
7.576910292E0,7.728779483E-1,-6.480387247E-1,4.341686261E-1,1.098087841E0
7.586978292E0,5.000060451E-1,-6.208281219E-1,1.280914450E-1,8.073667198E-1
7.597046292E0,3.919732541E-1,-5.757954982E-1,-6.935674846E-2,6.999956044E-1
7.607113292E0,4.204105662E-1,-6.135430759E-1,-2.089122444E-1,7.725441580E-1
7.617181292E0,4.883016004E-1,-6.321538863E-1,-4.065358543E-1,8.962858862E-1
7.627249292E0,5.560917336E-1,-5.454996121E-1,-6.352532029E-1,1.005163904E0
7.637316292E0,5.961791478E-1,-4.511805153E-1,-8.136944371E-1,1.105030348E0
7.647384292E0,6.179833053E-1,-4.454157454E-1,-9.840764540E-1,1.244469774E0
7.657452292E0,5.297749874E-1,-4.804385206E-1,-1.123108624E0,1.331486271E0
7.667519292E0,4.692706676E-1,-4.860281664E-1,-1.286499125E0,1.453106444E0
7.677587292E0,4.459455397E-1,-4.420310846E-1,-1.441356785E0,1.572185830E0
7.687655292E0,4.088455776E-1,-3.464963517E-1,-1.652347714E0,1.737085892E0
7.697723292E0,2.993263879E-1,-2.647698185E-1,-1.875985002E0,1.918076920E0
7.707790292E0,4.615203660E-2,-2.323800445E-1,-2.083490406E0,2.096917444E0
7.717858292E0,-2.148148442E-1,-1.999964100E-1,-2.292434226E0,2.311146612E0
7.727926292E0,-3.587456472E-1,-8.252409339E-2,-2.549833336E0,2.576268369E0
7.737993292E0,-3.570425725E-1,1.016836649E-1,-2.651543899E0,2.677406210E0
7.748061292E0,-2.285971883E-1,3.109490812E-1,-2.556183997E0,2.585154277E0
7.758129292E0,-1.357785601E-1,4.377313346E-1,-2.361093986E0,2.405163061E0
7.768196292E0,-1.077478488E-1,5.625302124E-1,-2.207270114E0,2.280370846E0
7.778264292E0,-2.124954913E-2,6.512728196E-1,-2.076174955E0,2.176030853E0
7.788332292E0,1.708146743E-1,7.128261665E-1,-1.879706755E0,2.017571877E0
7.798399292E0,3.201985724E-1,7.472697750E-1,-1.587824859E0,1.783851739E0
7.808467292E0,3.996338010E-1,7.307712713E-1,-1.103846142E0,1.382826862E0
7.818535292E0,4.591150042E-1,6.933099148E-1,-5.986127955E-1,1.024598704E0
7.828602292E0,4.196259064E-1,6.182775664E-1,-1.886843866E-1,7.706846620E-1
7.838670292E0,3.552487199E-1,5.987677467E-1,3.270792103E-1,7.692238148E-1
7.848737417E0,4.327897064E-1,6.205088639E-1,7.531950510E-1,1.067539678E0
7.858804417E0,5.338667593E-1,5.310420790E-1,9.523371828E-1,1.214069815E0
7.868872417E0,4.678125548E-1,4.417053947E-1,9.630492818E-1,1.158195217E0
7.878940417E0,3.188608756E-1,4.974752605E-1,7.982227045E-1,9.931331123E-1
7.889008417E0,2.248475151E-1,5.966726893E-1,5.796227932E-1,8.617060320E-1
7.899075417E0,2.378897661E-1,6.644726166E-1,5.093497860E-1,8.703749787E-1
7.909143417E0,3.168981846E-1,7.329610536E-1,5.881263989E-1,9.917404028E-1
7.919211417E0,4.445100482E-1,8.533043531E-1,7.463280809E-1,1.217671181E0
7.929278417E0,5.034959192E-1,9.049674270E-1,9.108827627E-1,1.379195995E0
7.939346417E0,4.954874995E-1,8.305990300E-1,1.065345150E0,1.438875568E0
7.949414417E0,4.180501183E-1,6.990144584E-1,1.121222312E0,1.385830649E0
7.959481417E0,1.858854889E-1,6.317197305E-1,1.112548553E0,1.292821533E0
7.969549417E0,-9.124607434E-2,5.683818135E-1,1.117789997E0,1.257313886E0
7.979617417E0,-3.562943847E-1,4.760291353E-1,1.223841532E0,1.360638645E0
7.989684417E0,-6.264850838E-1,4.402026603E-1,1.254857503E0,1.470009964E0
7.999752417E0,-8.411687493E-1,4.466524315E-1,1.211854155E0,1.541315591E0
8.009820417E0,-7.598365378E-1,3.682000467E-1,1.268373342E0,1.523710528E0
8.019887417E0,-3.785541500E-1,2.329755834E-1,1.553716881E0,1.616049817E0
8.029955417E0,2.554194994E-1,1.545003945E-1,2.121896088E0,2.142790821E0
8.040023417E0,7.739531051E-1,6.668164730E-2,2.652877064E0,2.764273244E0
8.050090417E0,9.781312975E-1,-1.827594030E-1,3.429829352E0,3.571256252E0
8.060158417E0,8.706128423E-1,-5.713174081E-1,4.103562496E0,4.233626751E0
8.070226417E0,4.706143578E-1,-9.969982159E-1,4.060234628E0,4.207254277E0
8.080294417E0,-2.557789935E-1,-1.316189532E0,3.077177929E0,3.356605694E0
8.090361417E0,-9.230545460E-1,-1.401145483E0,1.376455615E0,2.170223126E0
8.100429417E0,-1.202644206E0,-1.221061181E0,-3.505359006E-1,1.749348139E0
8.110497417E0,-1.357746717E0,-9.194144350E-1,-1.451161981E0,2.189673525E0
8.120564417E0,-1.318546837E0,-5.607862803E-1,-1.867753876E0,2.354050033E0
8.130632417E0,-1.113243202E0,-2.044768390E-1,-1.921931253E0,2.230457564E0
8.140700417E0,-9.713439958E-1,1.794630352E-1,-1.640900036E0,1.915272583E0
8.150767417E0,-7.526929213E-1,3.440153781E-1,-1.159653137E0,1.424671405E0
8.160835417E0,-6.682442169E-1,2.499819177E-1,-7.726814818E-1,1.051702413E0
8.170903417E0,-8.244920518E-1,1.820442885E-2,-5.923475039E-1,1.015378801E0
8.180970417E0,-9.993688964E-1,-2.510338318E-1,-5.003912669E-1,1.145490112E0
8.191038417E0,-9.831663349E-1,-5.746646467E-1,-4.020060164E-1,1.207668968E0
8.201106417E0,-8.324629030E-1,-8.466996306E-1,-8.762695849E-2,1.190618845E0
8.211173417E0,-5.450308481E-1,-8.957910991E-1,3.663438481E-1,1.110724148E0
8.221241417E0,-2.299498685E-1,-7.791786155E-1,7.003099090E-1,1.072581104E0
8.231309417E0,-4.048230221E-2,-7.336843541E-1,8.582858884E-1,1.129861148E0
8.241376417E0,-3.769067701E-2,-7.588256273E-1,7.372438467E-1,1.058662085E0
8.251444417E0,-7.506940506E-2,-7.367924416E-1,2.826590824E-1,7.927134883E-1
8.261512417E0,-6.423422210E-2,-6.371199265E-1,-3.317873883E-1,7.212008785E-1
8.271579417E0,-1.394986318E-1,-5.650193721E-1,-1.013303177E0,1.168541864E0
8.281647417E0,-2.914147031E-1,-4.780899864E-1,-1.657286857E0,1.749311948E0
8.291715417E0,-3.925227828E-1,-3.544052956E-1,-2.140251667E0,2.204621158E0
8.301783417E0,-3.260118011E-1,-2.112809515E-1,-2.378522782E0,2.410040240E0
8.311850417E0,-2.174347074E-1,-1.836025715E-2,-2.519370512E0,2.528802628E0
8.321918417E0,-1.803869318E-1,2.522377735E-1,-2.720281427E0,2.737899629E0
8.331986417E0,-1.739900048E-1,4.351778555E-1,-2.855833334E0,2.894034610E0
8.342053417E0,-2.951841472E-1,4.419781673E-1,-2.734538693E0,2.785710007E0
8.352121417E0,-5.077771043E-1,3.210659337E-1,-2.390058753E0,2.464406981E0
8.362189417E0,-6.637949974E-1,2.716087219E-1,-1.947216952E0,2.075102156E0
8.372256417E0,-7.443547918E-1,3.060023367E-1,-1.532414889E0,1.730894820E0
8.382324417E0,-8.398725678E-1,3.118121302E-1,-1.278995394E0,1.561551136E0
8.392392417E0,-8.886758416E-1,2.971019974E-1,-1.104415661E0,1.448360556E0
8.402459417E0,-8.598551349E-1,3.366282982E-1,-9.566916043E-1,1.329634645E0
8.412527417E0,-7.557075264E-1,4.501595914E-1,-8.791803288E-1,1.243662162E0
8.422595417E0,-5.398585108E-1,5.465123498E-1,-7.269808137E-1,1.057650256E0
8.432662417E0,-3.038857909E-1,6.072082025E-1,-4.462454653E-1,8.125167016E-1
8.442730417E0,-1.714132465E-1,6.752934739E-1,-1.653586739E-1,7.160637318E-1
8.452798417E0,-1.145651175E-1,7.855959347E-1,-1.714871407E-2,7.940908117E-1
8.462865417E0,-1.982800329E-1,8.876105520E-1,1.057492340E-1,9.156147465E-1
8.472933417E0,-3.341972086E-1,8.266866580E-1,1.019397730E-1,8.974911264E-1
8.483001417E0,-4.490496803E-1,5.975149807E-1,2.307954490E-2,7.477983906E-1
8.493069417E0,-5.274702343E-1,4.731742322E-1,1.744809151E-2,7.088181276E-1
8.503136417E0,-4.449683237E-1,4.697778770E-1,1.445887792E-1,6.630188368E-1
8.513204417E0,-1.960098149E-1,4.476610762E-1,5.344764411E-1,7.242136099E-1
8.523272417E0,5.386341769E-2,4.053400987E-1,1.104554824E0,1.177812898E0
8.533339417E0,2.896734023E-1,2.669452751E-1,1.654108311E0,1.700366068E0
8.543407417E0,3.933953335E-1,1.497822762E-2,2.047931734E0,2.085427683E0
8.553475417E0,2.513801697E-1,-1.690152302E-1,1.999434927E0,2.022250767E0
8.563542417E0,7.369677119E-2,-1.719721672E-1,1.525190070E0,1.536623047E0
8.573610417E0,-1.350195184E-3,-6.348263562E-2,1.082998479E0,1.084858320E0
8.583678417E0,-1.373079725E-2,6.379224569E-2,8.897123337E-1,8.921020245E-1
8.593745417E0,7.348561361E-3,1.540656540E-1,1.008057055E0,1.019788828E0
8.603813417E0,1.024620390E-1,1.047125226E-1,1.178238512E0,1.187311742E0
8.613881417E0,2.474703924E-1,-7.695812881E-3,1.115958064E0,1.143093706E0
8.623948417E0,3.406504882E-1,-4.977822393E-2,9.794916523E-1,1.038231440E0
8.634016417E0,4.377113444E-1,-3.460791528E-2,9.546292913E-1,1.050764490E0
8.644084417E0,6.532465473E-1,9.338003397E-3,1.118375303E0,1.295214874E0
8.654151417E0,1.010079095E0,3.231083661E-2,1.528166302E0,1.832101530E0
8.664219417E0,1.254100873E0,-1.868232179E-1,2.103262766E0,2.455888063E0
8.674287417E0,1.339524308E0,-5.992717767E-1,2.597171225E0,2.983077338E0
8.684354417E0,1.168695272E0,-9.509318045E-1,2.826101412E0,3.202650328E0
8.694422417E0,7.594816118E-1,-1.102615303E0,2.643732603E0,2.963426210E0
8.704490417E0,3.769586276E-1,-1.179530747E0,2.068537322E0,2.410858196E0
8.714557417E0,2.110129480E-1,-1.261522744E0,1.373040256E0,1.876487581E0
8.724625417E0,3.109828123E-1,-1.203712200E0,9.517425209E-1,1.565709806E0
8.734693417E0,3.722113097E-1,-9.522269627E-1,8.170688653E-1,1.308770025E0
8.744761417E0,2.843444144E-1,-7.005867746E-1,8.089014745E-1,1.107246662E0
8.754828417E0,1.974102596E-1,-5.760258785E-1,7.898190862E-1,9.972917388E-1
8.764896417E0,1.225614773E-1,-5.225449052E-1,6.559722269E-1,8.475694993E-1
8.774964417E0,8.695584431E-2,-4.839190757E-1,5.138135505E-1,7.111563509E-1
8.785031417E0,9.397944666E-2,-4.835986483E-1,2.921947217E-1,5.727805378E-1
8.795099417E0,3.734474111E-2,-4.647937104E-1,-1.443677545E-2,4.665149981E-1
8.805167417E0,1.326152164E-2,-4.595546052E-1,-3.038213253E-1,5.510659678E-1
8.815234417E0,5.869946703E-3,-5.089852121E-1,-5.959429568E-1,7.837400144E-1
8.825302417E0,5.859786709E-2,-5.419234550E-1,-8.709608978E-1,1.027466606E0
8.835370417E0,2.346584851E-1,-4.558927864E-1,-1.011263083E0,1.133823558E0
8.845437417E0,4.399926721E-1,-2.677539450E-1,-8.955349910E-1,1.033086950E0
8.855506167E0,5.757397669E-1,-1.667239988E-1,-6.297392786E-1,8.693933114E-1
8.865574167E0,5.188968639E-1,-2.635541824E-1,-4.565874356E-1,7.397207911E-1
8.875641167E0,4.047600549E-1,-3.784095776E-1,-4.589771926E-1,7.195030048E-1
8.885709167E0,2.685589239E-1,-4.329760864E-1,-5.695813698E-1,7.642088221E-1
8.895777167E0,1.949270933E-1,-3.776096785E-1,-8.699773961E-1,9.682181112E-1
8.905844167E0,8.718304519E-2,-2.980086082E-1,-1.293131037E0,1.329886421E0
8.915912167E0,-4.743085921E-2,-2.885659397E-1,-1.805351222E0,1.828882998E0
8.925980167E0,-1.423837576E-1,-2.412537789E-1,-2.314809181E0,2.331698537E0
8.936047167E0,-5.934883688E-2,-8.360729009E-2,-2.465315343E0,2.467446494E0
8.946115167E0,1.408595712E-1,1.451702848E-1,-2.516104258E0,2.524221953E0
8.956183167E0,3.629452636E-1,3.440551391E-1,-2.501649941E0,2.551147904E0
8.966251167E0,4.268247425E-1,4.200350288E-1,-2.188387116E0,2.268842647E0
8.976318167E0,2.973439991E-1,4.017972708E-1,-1.761198311E0,1.830757765E0
8.986386167E0,3.528016236E-2,2.675112855E-1,-1.355233730E0,1.381834086E0
8.996454167E0,-2.969951030E-1,1.352177390E-1,-1.117751405E0,1.164413214E0
9.006521167E0,-6.000940779E-1,9.332770139E-2,-1.056261501E0,1.218405236E0
9.016589167E0,-6.426785090E-1,1.703925419E-1,-1.117594700E0,1.300418086E0
9.026657167E0,-5.497590894E-1,3.921610594E-1,-1.297273790E0,1.462513124E0
9.036724167E0,-3.129089948E-1,7.714734471E-1,-1.380867339E0,1.612413696E0
9.046792167E0,3.073597130E-2,1.131048558E0,-1.216872820E0,1.661624206E0
9.056860167E0,3.465736080E-1,1.338891347E0,-7.112067801E-1,1.555171498E0
9.066927167E0,5.381258346E-1,1.431323255E0,-6.303707778E-2,1.530437633E0
9.076995167E0,7.141266603E-1,1.374231334E0,7.233941317E-1,1.709323760E0
9.087063167E0,8.350595784E-1,1.242385684E0,1.442659544E0,2.078969275E0
9.097130167E0,8.361851674E-1,1.119976856E0,2.066976115E0,2.495184172E0
9.107198167E0,6.202653274E-1,9.845468625E-1,2.395413049E0,2.663093178E0
9.117266167E0,3.448035462E-1,8.474188381E-1,2.242635244E0,2.422069572E0
9.127333167E0,6.027510893E-2,6.987071872E-1,1.891502928E0,2.017326981E0
9.137401167E0,-1.200504271E-1,6.681408674E-1,1.424727303E0,1.578186368E0
9.147469167E0,-8.885658226E-2,8.354621592E-1,1.066615750E0,1.357778211E0
9.157536167E0,1.029140653E-1,1.023915873E0,8.325856215E-1,1.323704588E0
9.167604167E0,2.709117704E-1,1.161897591E0,7.737176085E-1,1.421983874E0
9.177672167E0,3.110574739E-1,1.179679851E0,8.906753701E-1,1.510531005E0
9.187740167E0,2.375962725E-1,9.750129774E-1,1.119831260E0,1.503703543E0
9.197807167E0,6.784570003E-2,6.362288108E-1,1.410741933E0,1.549058727E0
9.207875167E0,-1.968001027E-2,2.388798094E-1,1.657660494E0,1.674899753E0
9.217943167E0,-3.634713303E-2,-2.605460823E-2,1.848311884E0,1.848852828E0
9.228010167E0,-1.806721297E-1,-1.426574439E-1,1.983570846E0,1.996884290E0
9.238078167E0,-3.788454875E-1,-1.856561136E-1,2.125449441E0,2.166916570E0
9.248146167E0,-5.331022358E-1,-2.139268166E-1,2.063512225E0,2.141972310E0
9.258213167E0,-5.130816983E-1,-4.179852873E-1,1.755201407E0,1.875818890E0
9.268281167E0,-7.365547523E-2,-7.057030883E-1,1.453254114E0,1.617216590E0
9.278349167E0,6.096858139E-1,-8.338024271E-1,1.401550695E0,1.741059341E0
9.288416167E0,1.101563827E0,-6.909593341E-1,1.641996388E0,2.094521379E0
9.298484167E0,1.152221765E0,-5.433735645E-1,1.941622921E0,2.322233708E0
9.308552167E0,9.669926441E-1,-6.043117842E-1,1.980362479E0,2.285192126E0
9.318619167E0,6.652983896E-1,-6.891996145E-1,1.682387200E0,1.935986763E0
9.328687167E0,7.491456348E-2,-7.256590506E-1,1.118697485E0,1.335543826E0
9.338755167E0,-5.353981451E-1,-7.748660016E-1,7.024318635E-1,1.174937878E0
9.348822167E0,-8.486756971E-1,-8.748428643E-1,4.990294504E-1,1.317053859E0
9.358890167E0,-1.030985376E0,-9.510221440E-1,4.443036050E-1,1.471319020E0
9.368958167E0,-1.222542134E0,-7.960753146E-1,5.087884533E-1,1.545060150E0
9.379025167E0,-1.086647726E0,-7.432951301E-1,5.182615274E-1,1.414880187E0
9.389093167E0,-7.422841465E-1,-6.965957576E-1,5.259213799E-1,1.145785626E0
9.399161167E0,-4.861349512E-1,-4.917347565E-1,3.923206884E-1,7.950130716E-1
9.409229167E0,-3.196924227E-1,-3.321268192E-1,6.706463993E-2,4.658423930E-1
9.419296167E0,-1.420539381E-1,-2.895813087E-1,-3.480929339E-1,4.745580537E-1
9.429364167E0,-8.121629052E-2,-2.527567139E-1,-7.115599519E-1,7.594732434E-1
9.439432167E0,-1.313029916E-1,-2.330939895E-1,-8.383369428E-1,8.799898370E-1
9.449499167E0,-1.026679340E-1,-2.384178793E-1,-8.317161405E-1,8.712838391E-1
9.459567167E0,-9.383618988E-2,-3.273499364E-1,-6.220864427E-1,7.091930298E-1
9.469635167E0,-1.459141237E-1,-3.914696261E-1,-3.590196258E-1,5.508488825E-1
9.479702167E0,-2.527706742E-1,-4.460183010E-1,-1.978563291E-1,5.495202139E-1
9.489770167E0,-2.711207352E-1,-4.581851873E-1,-2.505795032E-1,5.884132955E-1
9.499838167E0,-9.382668816E-2,-3.105532247E-1,-4.934348345E-1,5.905291599E-1
9.509905167E0,6.066844381E-2,-1.597204962E-1,-9.051390427E-1,9.211232185E-1
9.519973167E0,1.173957912E-1,-2.609349221E-2,-1.387649524E0,1.392850977E0
9.530041167E0,8.536167406E-2,8.746762186E-2,-1.811308365E0,1.815427000E0
9.540108167E0,9.870322946E-2,1.744952407E-1,-2.285901132E0,2.294675337E0
9.550176167E0,1.403340162E-1,2.457923877E-1,-2.769135498E0,2.783562276E0
9.560244167E0,8.018761910E-2,2.469518906E-1,-2.945360638E0,2.956782809E0
9.570311167E0,-1.577525062E-1,1.410497519E-1,-2.752097297E0,2.760221081E0
9.580379167E0,-4.886027320E-1,-1.058422047E-1,-2.267419837E0,2.321880255E0
9.590447167E0,-7.163036518E-1,-3.478423807E-1,-1.740430171E0,1.913944206E0
9.600514167E0,-8.852968088E-1,-4.381909257E-1,-1.345791062E0,1.669405675E0
9.610582167E0,-9.533130100E-1,-4.279796407E-1,-1.158417036E0,1.560096887E0
9.620650167E0,-8.740140215E-1,-3.563316607E-1,-1.120626481E0,1.465154078E0
9.630718167E0,-5.953458830E-1,-1.912951684E-1,-1.280613903E0,1.425132460E0
9.640785167E0,-2.470495756E-1,4.544748366E-2,-1.734910984E0,1.753001737E0
9.650853167E0,2.279372569E-2,2.817781994E-1,-2.270628204E0,2.288158856E0
9.660921167E0,1.269363275E-1,4.393814188E-1,-2.586072625E0,2.626202674E0
9.670988167E0,6.407123096E-3,4.659611070E-1,-2.446848081E0,2.490828444E0
9.681056167E0,-2.066969172E-1,4.048658895E-1,-1.978159833E0,2.029718288E0
9.691124167E0,-3.171744655E-1,3.755482426E-1,-1.411744730E0,1.494877690E0
9.701191167E0,-3.807039154E-1,3.960938966E-1,-9.656074387E-1,1.110956152E0
9.711259167E0,-3.972175488E-1,4.730520254E-1,-7.923386514E-1,1.004669368E0
9.721327167E0,-3.208392445E-1,5.378739658E-1,-8.451284838E-1,1.051897513E0
9.731394167E0,-1.851170369E-1,6.326342350E-1,-8.834002644E-1,1.102220677E0
9.741462167E0,-1.369197173E-1,7.670941749E-1,-8.971739656E-1,1.188318815E0
9.751530167E0,-1.656757757E-1,9.315038458E-1,-9.283068806E-1,1.325481626E0
9.761597167E0,-2.279433965E-1,1.058856495E0,-9.269491571E-1,1.425612152E0
9.771665167E0,-3.746535821E-1,1.105973651E0,-8.731267065E-1,1.458044330E0
9.781733167E0,-5.514712273E-1,1.027989921E0,-5.583476990E-1,1.293304274E0
9.791800167E0,-7.672168203E-1,9.068014061E-1,6.421704590E-2,1.189552129E0
9.801868167E0,-9.206480514E-1,7.972020730E-1,6.774876416E-1,1.393597318E0
9.811936167E0,-9.985708246E-1,6.398830283E-1,1.090667102E0,1.611256873E0
9.822003167E0,-8.614960098E-1,5.152581051E-1,1.364405673E0,1.693891711E0
9.832071167E0,-4.724227919E-1,4.828902581E-1,1.590234497E0,1.727776620E0
9.842139167E0,-3.013541657E-2,5.382113501E-1,1.854107645E0,1.930879271E0
9.852206667E0,4.309111422E-1,6.025880250E-1,2.027483436E0,2.158584217E0
9.862274667E0,7.846010309E-1,6.348854131E-1,2.112791389E0,2.341487928E0
9.872342667E0,8.646475860E-1,8.025440893E-1,2.046388654E0,2.362075144E0
9.882409667E0,7.717450503E-1,9.778468305E-1,1.808476558E0,2.195987775E0
9.892477667E0,6.902054087E-1,9.040251482E-1,1.443502128E0,1.837754981E0
9.902545667E0,7.012065795E-1,6.496733138E-1,1.248918486E0,1.572756645E0
9.912613667E0,8.251456243E-1,3.613362926E-1,1.119499138E0,1.436909022E0
9.922680667E0,1.022621592E0,1.668815812E-1,1.086541307E0,1.501391486E0
9.932748667E0,1.277207607E0,7.892337799E-2,1.290240759E0,1.817198224E0
9.942816667E0,1.490446499E0,-1.332510281E-1,1.836572430E0,2.369005043E0
9.952883667E0,1.441355323E0,-5.434185880E-1,2.452550871E0,2.896172423E0
9.962951667E0,1.128384421E0,-9.445741269E-1,2.825775722E0,3.185981813E0
9.973019667E0,8.206678265E-1,-1.252867695E0,2.789338213E0,3.166003918E0
9.983086667E0,6.517634741E-1,-1.433651616E0,2.368726941E0,2.844471815E0
9.993154667E0,4.832261441E-1,-1.492619617E0,1.679531420E0,2.298313864E0
1.000322267E1,3.285518681E-1,-1.422767024E0,1.044208050E0,1.795155366E0
1.001328967E1,2.968173111E-1,-1.297894472E0,7.368427277E-1,1.521698978E0
1.002335767E1,3.238541419E-1,-1.190804179E0,6.370909828E-1,1.388805608E0
1.003342567E1,3.004035912E-1,-1.122728848E0,4.703178674E-1,1.253778800E0
1.004349267E1,2.035198143E-1,-1.063001001E0,1.816630501E-1,1.097448362E0
1.005356067E1,-2.205849314E-2,-1.103012913E0,-1.838656962E-1,1.118450115E0
1.006362867E1,-1.999684530E-1,-1.142928054E0,-5.198835450E-1,1.271436518E0
1.007369567E1,-1.677193776E-1,-1.116523490E0,-8.419306415E-1,1.408403954E0
1.008376367E1,-1.314442384E-1,-1.045608459E0,-1.130718775E0,1.545671241E0
1.009383167E1,-6.292663850E-3,-9.464466977E-1,-1.298819793E0,1.607088611E0
1.010389867E1,3.286447657E-1,-8.030551359E-1,-1.336008670E0,1.593054958E0
1.011396667E1,6.770708813E-1,-5.964531264E-1,-1.272644148E0,1.560065523E0
1.012403467E1,8.751929663E-1,-3.926501790E-1,-1.176845706E0,1.518256469E0
1.013410167E1,8.633020686E-1,-3.098465887E-1,-1.071653126E0,1.410579949E0
1.014416967E1,8.716219255E-1,-3.111934948E-1,-1.134173895E0,1.463870417E0
1.015423767E1,7.957007273E-1,-2.671850109E-1,-1.262344278E0,1.515928940E0
1.016430567E1,5.671372336E-1,-2.567369136E-1,-1.364757090E0,1.500040133E0
1.017437267E1,3.515392828E-1,-3.582252815E-1,-1.606752296E0,1.683317605E0
1.018444067E1,8.717683252E-2,-4.844426939E-1,-1.736524231E0,1.804937929E0
1.019450867E1,-1.967416671E-1,-5.482960430E-1,-1.698278763E0,1.795407082E0
1.020457567E1,-3.761297848E-1,-5.726885802E-1,-1.463329452E0,1.615790490E0
1.021464367E1,-3.828884717E-1,-5.115015614E-1,-1.146733130E0,1.312720191E0
1.022471167E1,-2.238980003E-1,-3.312196237E-1,-1.020762470E0,1.096263095E0
1.023477867E1,4.189804103E-2,-1.131921548E-1,-1.129595525E0,1.136025510E0
1.024484667E1,3.064861573E-1,1.200813442E-1,-1.357289611E0,1.396634663E0
1.025491467E1,4.888154610E-1,3.222575963E-1,-1.517593952E0,1.626616708E0
1.026498167E1,5.736367793E-1,4.222628179E-1,-1.661410899E0,1.807664575E0
1.027504967E1,5.962450020E-1,4.356579119E-1,-1.723887813E0,1.875391989E0
1.028511767E1,5.519835530E-1,4.479592842E-1,-1.644607170E0,1.791671317E0
1.029518467E1,4.462125381E-1,4.589950266E-1,-1.453389185E0,1.588119072E0
1.030525267E1,4.300237907E-1,5.253626785E-1,-1.254735296E0,1.426634875E0
1.031532067E1,3.962847717E-1,5.995884034E-1,-1.145412244E0,1.352226712E0
1.032538767E1,3.532345368E-1,6.732054332E-1,-1.075090120E0,1.316737999E0
1.033545567E1,4.261113822E-1,8.039029822E-1,-1.032038825E0,1.375839762E0
1.034552367E1,4.724508220E-1,8.883294672E-1,-9.322660303E-1,1.371662850E0
1.035559067E1,4.350225754E-1,9.523801598E-1,-8.326920408E-1,1.337777502E0
1.036565867E1,2.765534564E-1,1.015086870E0,-7.120195431E-1,1.270375928E0
1.037572667E1,3.066700157E-2,9.619657928E-1,-4.676275635E-1,1.070044013E0
1.038579367E1,-1.557557186E-1,7.864572296E-1,-1.107018256E-1,8.093390587E-1
1.039586167E1,-2.459869904E-1,6.432673967E-1,2.481195796E-1,7.320285984E-1
1.040592967E1,-2.719589701E-1,5.599203077E-1,6.115211087E-1,8.725998504E-1
1.041599767E1,-9.812874053E-2,5.573577654E-1,1.157040017E0,1.288028932E0
1.042606467E1,2.309882975E-1,5.932976764E-1,1.877897041E0,1.982890573E0
1.043613267E1,6.014443097E-1,5.107621810E-1,2.566891419E0,2.685431961E0
1.044620067E1,6.905954911E-1,3.796474332E-1,2.835596706E0,2.943070333E0
1.045626767E1,4.147001754E-1,4.244224870E-1,2.552899032E0,2.620954816E0
1.046633567E1,-3.497475497E-3,5.440038943E-1,1.749546565E0,1.832175115E0
1.047640367E1,-5.576484086E-1,6.062510133E-1,8.565247071E-1,1.188337752E0
1.048647067E1,-9.315327895E-1,7.064857382E-1,2.618061572E-1,1.198089270E0
1.049653867E1,-8.331501701E-1,7.440128759E-1,-1.584186137E-2,1.117114734E0
1.050660667E1,-4.345471236E-1,7.542759088E-1,2.048969615E-1,8.942852532E-1
1.051667367E1,2.118658192E-2,7.082536438E-1,1.188454183E0,1.383652933E0
1.052674167E1,5.180625028E-1,4.553028023E-1,2.586207111E0,2.676594220E0
1.053680967E1,8.641621940E-1,-5.473666281E-2,3.742607442E0,3.841468842E0
1.054687667E1,7.821732670E-1,-6.169941026E-1,4.253635379E0,4.368740171E0
1.055694467E1,2.379041284E-1,-1.039166289E0,4.060355081E0,4.197969549E0
1.056701267E1,-4.855374754E-1,-1.361140295E0,3.151195493E0,3.466768319E0
1.057707967E1,-1.012470095E0,-1.520482769E0,1.513893249E0,2.372516873E0
1.058714767E1,-1.230410440E0,-1.370922394E0,-2.464940536E-1,1.858520213E0
1.059721567E1,-1.319327148E0,-1.017682449E0,-1.596551244E0,2.307656293E0
1.060728267E1,-1.205433328E0,-6.171832600E-1,-2.228363945E0,2.607602453E0
1.061735067E1,-1.029558802E0,-1.274333408E-1,-2.160296507E0,2.396478997E0
1.062741867E1,-9.285960985E-1,3.379211175E-1,-1.541157646E0,1.830750744E0
1.063748567E1,-8.741366668E-1,4.720068356E-1,-8.429533195E-1,1.302872083E0
1.064755367E1,-9.546979230E-1,3.051457196E-1,-4.600916719E-1,1.102835609E0
1.065762167E1,-1.066752283E0,1.179514959E-1,-3.825646091E-1,1.139398380E0
1.066768967E1,-1.106593748E0,-4.727356911E-2,-4.005190694E-1,1.177794566E0
1.067775667E1,-9.369901420E-1,-2.523573491E-1,-5.015320587E-1,1.092322829E0
1.068782467E1,-6.469711693E-1,-4.152084446E-1,-5.576308304E-1,9.496956825E-1
1.069789267E1,-3.129056692E-1,-4.896970019E-1,-3.778119922E-1,6.931486225E-1
1.070795967E1,1.440164099E-1,-4.657295573E-1,7.670962214E-2,4.934866898E-1
1.071802767E1,5.569488989E-1,-4.033134538E-1,5.514304429E-1,8.814359599E-1
1.072809567E1,7.560557281E-1,-3.714815041E-1,8.299666536E-1,1.182566454E0
1.073816267E1,7.178454895E-1,-4.081245428E-1,8.149322927E-1,1.160164829E0
1.074823067E1,4.667325740E-1,-4.586152500E-1,4.725889260E-1,8.071601676E-1
1.075829867E1,2.031475842E-1,-5.111597916E-1,-7.734872282E-2,5.554602582E-1
1.076836567E1,6.982891113E-3,-5.383888131E-1,-5.944595182E-1,8.020557298E-1
1.077843367E1,-9.857758742E-2,-5.356809676E-1,-1.083208979E0,1.212441063E0
1.078850167E1,-1.613869892E-1,-5.388405105E-1,-1.596805013E0,1.692979948E0
1.079856867E1,-2.139408499E-1,-5.164591232E-1,-2.089829957E0,2.163305333E0
1.080863667E1,-3.500254021E-1,-4.650846094E-1,-2.395284410E0,2.464996731E0
1.081870467E1,-4.240908037E-1,-4.039639565E-1,-2.466803459E0,2.535381469E0
1.082877167E1,-3.362040827E-1,-3.374194264E-1,-2.498746213E0,2.543740886E0
1.083883967E1,-2.676027945E-1,-2.427655765E-1,-2.526307649E0,2.552014247E0
1.084890767E1,-2.341558439E-1,-1.137274674E-1,-2.524846430E0,2.538230169E0
1.085897396E1,-2.319204168E-1,7.968965560E-2,-2.331002460E0,2.343866462E0
1.086904196E1,-2.057816086E-1,2.024803072E-1,-1.890673208E0,1.912587128E0
1.087910996E1,-2.353575563E-1,1.661541876E-1,-1.476952295E0,1.504788515E0
1.088917696E1,-3.778794544E-1,1.010776010E-1,-1.273186769E0,1.331921211E0
1.089924496E1,-4.968863362E-1,1.335825652E-1,-1.230521391E0,1.333762807E0
1.090931296E1,-4.719235128E-1,2.081176078E-1,-1.251290701E0,1.353422757E0
1.091937996E1,-3.101989930E-1,3.287825042E-1,-1.254967430E0,1.333890776E0
1.092944796E1,-1.976302611E-1,4.882544938E-1,-1.186332813E0,1.298012216E0
1.093951596E1,-1.529636548E-1,6.247975042E-1,-9.797483450E-1,1.172039513E0
1.094958396E1,-1.746176668E-1,7.641939560E-1,-5.602041900E-1,9.634897334E-1
1.095965096E1,-2.320433910E-1,8.907759422E-1,-7.088579535E-3,9.205303702E-1
1.096971896E1,-2.129072814E-1,9.134151918E-1,5.258997452E-1,1.075280133E0
1.097978696E1,-5.278318115E-2,8.791905615E-1,9.153640687E-1,1.270296613E0
1.098985396E1,9.831069857E-2,8.878909260E-1,1.200711116E0,1.496570237E0
1.099992196E1,2.600085039E-1,9.302861631E-1,1.324187939E0,1.639057798E0
1.100998996E1,4.052436928E-1,8.906376556E-1,1.405805714E0,1.712818609E0
1.102005696E1,5.683166170E-1,6.943723539E-1,1.378576984E0,1.644874234E0
1.103012496E1,6.166955291E-1,4.930559349E-1,1.337266991E0,1.552965078E0
1.104019296E1,5.223227111E-1,3.412110534E-1,1.317456624E0,1.457716692E0
1.105025996E1,2.851554050E-1,1.870848808E-1,1.291044751E0,1.335331759E0
1.106032796E1,1.058252112E-1,4.001366615E-2,1.387478786E0,1.392083851E0
1.107039596E1,2.587754723E-2,-1.115561038E-2,1.516573613E0,1.516835396E0
1.108046296E1,-4.618345625E-3,5.555907369E-2,1.500503710E0,1.501539052E0
1.109053096E1,1.822122498E-1,8.750738293E-2,1.378399814E0,1.393142093E0
1.110059896E1,5.660982930E-1,8.239223868E-2,1.229509238E0,1.356078436E0
1.111066596E1,9.152246127E-1,1.298181278E-1,1.168699949E0,1.490083357E0
1.112073396E1,1.115689385E0,1.878245535E-1,1.185341125E0,1.638619678E0
1.113080196E1,1.082064679E0,2.316666842E-2,1.293228101E0,1.686368757E0
1.114086896E1,8.744967091E-1,-3.951723754E-1,1.512296374E0,1.791073986E0
1.115093696E1,5.990130008E-1,-7.738801610E-1,1.817285973E0,2.064033766E0
1.116100496E1,4.277795197E-1,-1.020368367E0,2.082557775E0,2.358218355E0
1.117107196E1,4.097711553E-1,-1.174188438E0,2.272816817E0,2.590815928E0
1.118113996E1,4.523009149E-1,-1.232401271E0,2.261425856E0,2.614849119E0
1.119120796E1,5.298557521E-1,-1.163793843E0,2.052123018E0,2.417927234E0
1.120127496E1,6.476228414E-1,-9.847886449E-1,1.619627865E0,2.003102204E0
1.121134296E1,7.159747459E-1,-7.463421142E-1,9.674727005E-1,1.416209665E0
1.122141096E1,6.677788516E-1,-4.967098600E-1,2.695905554E-1,8.748304677E-1
1.123147796E1,6.081100624E-1,-3.029840040E-1,-2.081140995E-1,7.105692317E-1
1.124154596E1,5.494420607E-1,-2.157651812E-1,-5.315656972E-1,7.943571501E-1
1.125161396E1,5.160568713E-1,-1.944000399E-1,-6.937481636E-1,8.862237778E-1
1.126168196E1,4.037156691E-1,-2.006811190E-1,-6.083355457E-1,7.571864956E-1
1.127174896E1,2.815372210E-1,-2.753009462E-1,-2.098618323E-1,4.462015312E-1
1.128181696E1,2.138053772E-1,-4.446176004E-1,3.406026506E-1,5.995062265E-1
1.129188496E1,1.000589795E-1,-6.295135760E-1,7.969111741E-1,1.020473694E0
1.130195196E1,2.037919565E-2,-7.076291612E-1,9.719674551E-1,1.202445456E0
1.131201996E1,2.114524942E-2,-6.918244296E-1,8.888042611E-1,1.126517278E0
1.132208796E1,3.977312632E-2,-6.318761435E-1,6.030660349E-1,8.743786393E-1
1.133215496E1,1.123023547E-2,-5.319893280E-1,2.180099273E-1,5.750366003E-1
1.134222296E1,2.384194873E-2,-4.085595757E-1,-2.022271228E-1,4.564922503E-1
1.135229096E1,1.162782786E-1,-3.351673713E-1,-5.934087735E-1,6.913694941E-1
1.136235796E1,5.368022625E-2,-3.221251568E-1,-9.007454449E-1,9.581171848E-1
1.137242596E1,-1.742200927E-1,-3.243131849E-1,-1.132387571E0,1.190728052E0
1.138249396E1,-4.128707643E-1,-3.694218224E-1,-1.372292397E0,1.479905799E0
1.139256096E1,-6.057543654E-1,-4.211305046E-1,-1.538191938E0,1.705967084E0
1.140262896E1,-7.107001188E-1,-3.818392619E-1,-1.611431823E0,1.802112205E0
1.141269696E1,-7.090028183E-1,-3.276987228E-1,-1.643662845E0,1.819807407E0
1.142276396E1,-7.013768066E-1,-2.625481689E-1,-1.648317813E0,1.810473026E0
1.143283196E1,-5.923144671E-1,-1.275915080E-1,-1.627136275E0,1.736285828E0
1.144289996E1,-3.855645596E-1,2.683696568E-2,-1.503354812E0,1.552242231E0
1.145296696E1,-1.744161206E-1,1.584022415E-1,-1.210874162E0,1.233583596E0
1.146303496E1,4.387697635E-2,2.693990591E-1,-8.327405727E-1,8.763320738E-1
1.147310296E1,1.522392762E-1,3.700784647E-1,-5.983759832E-1,7.198532382E-1
1.148316996E1,1.515605606E-1,4.800955814E-1,-4.805563420E-1,6.959861843E-1
1.149323796E1,8.815046702E-2,5.957666633E-1,-5.430467051E-1,8.109304198E-1
1.150330596E1,-1.692390690E-1,5.225077754E-1,-9.746291077E-1,1.118730591E0
1.151337296E1,-5.164190332E-1,4.143585518E-1,-1.438229694E0,1.583314965E0
1.152344096E1,-7.563736705E-1,4.039215642E-1,-1.532475116E0,1.756056303E0
1.153350896E1,-7.848241022E-1,4.096465731E-1,-1.123974597E0,1.430761364E0
1.154357596E1,-5.916159441E-1,5.011578369E-1,-4.185273242E-1,8.810980218E-1
1.155364396E1,-2.993250357E-1,6.124344438E-1,2.697782511E-1,7.331109942E-1
1.156371196E1,-5.986415930E-3,6.305324534E-1,8.037793136E-1,1.021600801E0
1.157377896E1,2.821248662E-2,6.109410650E-1,1.037094328E0,1.203997331E0
1.158384696E1,2.663549256E-2,5.944063085E-1,1.304248348E0,1.433559229E0
1.159391496E1,7.459194336E-2,5.266598833E-1,1.447436135E0,1.542078453E0
1.160398296E1,-4.874425348E-2,4.972323087E-1,1.356329498E0,1.445422319E0
1.161404996E1,-1.384824954E-1,5.961616427E-1,1.187392328E0,1.335846790E0
1.162411796E1,-8.785991522E-2,7.172916850E-1,9.983541852E-1,1.232451948E0
1.163418596E1,-8.105973132E-2,8.531508636E-1,9.666154987E-1,1.291813686E0
1.164425296E1,-5.141339779E-2,9.946716088E-1,1.014693060E0,1.421835769E0
1.165432096E1,1.981343642E-2,1.112234557E0,1.245438223E0,1.669902587E0
1.166438896E1,9.413216863E-2,1.135990917E0,1.388088650E0,1.796142068E0
1.167445596E1,1.613679127E-1,9.208654216E-1,1.292422355E0,1.595113874E0
1.168452396E1,2.025036230E-1,5.782808572E-1,1.149384257E0,1.302497846E0
1.169459196E1,1.178082026E-1,2.665614054E-1,1.217614832E0,1.252006244E0
1.170465896E1,-4.744533107E-2,5.149145812E-2,1.464106547E0,1.465779796E0
1.171472696E1,-1.897885602E-1,-1.509511346E-1,1.752094781E0,1.768796785E0
1.172479496E1,-2.174164349E-1,-3.511428416E-1,1.953438975E0,1.996620903E0
1.173486196E1,-5.532767013E-2,-5.274165130E-1,1.887382395E0,1.960469748E0
1.174492996E1,2.520899852E-1,-6.587502390E-1,1.564848810E0,1.716465274E0
1.175499796E1,5.951326058E-1,-6.366395777E-1,1.208404883E0,1.489877556E0
1.176506496E1,8.107543109E-1,-5.678383148E-1,9.133339155E-1,1.346826546E0
1.177513296E1,8.498091799E-1,-6.142447418E-1,7.568998468E-1,1.293201308E0
1.178520096E1,7.325950179E-1,-7.542811713E-1,7.662945682E-1,1.301092968E0
1.179526796E1,5.424804754E-1,-8.466204008E-1,7.291688418E-1,1.242070195E0
1.180533596E1,2.223854353E-1,-8.571956751E-1,3.817050683E-1,9.643331719E-1
1.181540396E1,-8.772497244E-2,-9.470381436E-1,2.875777602E-2,9.515271546E-1
1.182547096E1,-9.715627547E-2,-1.055203447E0,-1.366546923E-1,1.068441932E0
1.183553896E1,-1.648194876E-1,-1.074466514E0,-2.318701673E-1,1.111488879E0
1.184560696E1,-3.928161668E-1,-1.050582393E0,-2.933390218E-1,1.159342782E0
1.185567433E1,-6.069310445E-1,-9.560270682E-1,-3.844579375E-1,1.195893370E0
1.186574233E1,-7.516136715E-1,-8.338454041E-1,-7.206009167E-1,1.333974119E0
1.187581033E1,-8.609367967E-1,-6.734080392E-1,-1.183902710E0,1.611308841E0
1.188587733E1,-8.156669953E-1,-4.415472275E-1,-1.560095024E0,1.814985698E0
1.189594533E1,-5.666432170E-1,-2.234563163E-1,-1.756525801E0,1.859139627E0
1.190601333E1,-2.684873320E-1,-9.491141975E-2,-1.603450958E0,1.628541863E0
1.191608133E1,-7.608448170E-2,-2.049361378E-2,-1.214877750E0,1.217430402E0
1.192614833E1,-5.126257617E-2,1.824974477E-2,-8.530374277E-1,8.547711728E-1
1.193621633E1,-1.481985943E-1,-2.826310158E-2,-4.089530933E-1,4.358947795E-1
1.194628433E1,-2.664304277E-1,-2.368794769E-2,-1.371405959E-2,2.678327223E-1
1.195635133E1,-3.870096624E-1,3.178868026E-2,5.922118485E-2,3.928029375E-1
1.196641933E1,-3.555673931E-1,4.022796661E-2,-1.181196034E-1,3.768271501E-1
1.197648733E1,-2.636189768E-1,4.052208155E-2,-4.605366451E-1,5.321945184E-1
1.198655433E1,-2.652106620E-1,8.136137456E-2,-7.830070800E-1,8.306963680E-1
1.199662233E1,-3.126946578E-1,8.064333647E-2,-9.288506716E-1,9.833843943E-1
1.200669033E1,-3.711189768E-1,-3.247251213E-3,-8.458740038E-1,9.237113563E-1
1.201675733E1,-4.646276495E-1,-1.308446065E-1,-5.610882890E-1,7.401481148E-1
1.202682533E1,-6.657378079E-1,-2.010377991E-1,-1.613773048E-1,7.139087197E-1
1.203689333E1,-7.948583628E-1,-2.276169026E-1,1.472311360E-1,8.398132404E-1
1.204696033E1,-7.941057531E-1,-2.049604037E-1,2.325753415E-1,8.524693564E-1
1.205702833E1,-6.982842873E-1,-8.408325344E-2,5.415223360E-2,7.054100962E-1
1.206709633E1,-6.151256979E-1,9.745700508E-2,-3.059918118E-1,6.939081214E-1
1.207716333E1,-5.210740381E-1,3.289973894E-1,-8.057609349E-1,1.014400374E0
1.208723133E1,-4.532205723E-1,5.788673329E-1,-1.395432168E0,1.577253059E0
1.209729933E1,-4.823478923E-1,7.432860669E-1,-1.884333072E0,2.082269145E0
1.210736633E1,-6.206005190E-1,8.403419530E-1,-2.014877424E0,2.269592614E0
1.211743433E1,-6.853261265E-1,8.717379928E-1,-1.772920809E0,2.091135391E0
1.212750233E1,-6.004071232E-1,8.443744853E-1,-1.427533382E0,1.763890173E0
1.213756933E1,-5.545837367E-1,7.737871903E-1,-1.024943229E0,1.398863238E0
1.214763733E1,-4.378482423E-1,6.820054927E-1,-4.132361788E-1,9.097289238E-1
1.215770533E1,-2.909871620E-1,6.317758638E-1,3.148848420E-1,7.635225827E-1
1.216777233E1,-8.044036500E-2,5.275279024E-1,8.720578355E-1,1.022370387E0
1.217784033E1,2.805874139E-2,3.594622600E-1,1.022161708E0,1.083888817E0
1.218790833E1,4.085478812E-2,2.658322576E-1,1.025258394E0,1.059948431E0
1.219797533E1,-1.444838948E-1,1.973675019E-1,8.792224288E-1,9.126125169E-1
1.220804333E1,-3.493979228E-1,1.839779627E-1,6.746616822E-1,7.817257733E-1
1.221811133E1,-4.165550218E-1,1.913346371E-1,4.944013792E-1,6.742104666E-1
1.222817833E1,-3.015253795E-1,2.320072845E-1,3.836422509E-1,5.403020555E-1
1.223824633E1,-2.020117991E-2,2.667219114E-1,4.399983001E-1,5.149244311E-1
1.224831433E1,3.390657831E-1,2.025317627E-1,5.521923351E-1,6.788969695E-1
1.225838133E1,7.681240158E-1,1.299400422E-1,8.187932092E-1,1.130186373E0
1.226844933E1,1.070926171E0,1.399346879E-1,9.499597049E-1,1.438362966E0
1.227851733E1,1.057061254E0,1.880350533E-1,7.851658720E-1,1.330120717E0
1.228858533E1,8.434168576E-1,1.965342736E-1,4.165211445E-1,9.609722057E-1
1.229865233E1,5.853293102E-1,5.329620123E-2,7.820709407E-2,5.929310550E-1
1.230872033E1,5.147938362E-1,-9.954270691E-2,-2.133648992E-3,5.243338600E-1
1.231878833E1,6.267705010E-1,-5.277316779E-2,1.177535677E-1,6.399157529E-1
1.232885533E1,9.049058850E-1,-6.548881531E-5,3.641710228E-1,9.754359020E-1
1.233892333E1,1.321848029E0,-1.362863177E-1,7.346231246E-1,1.518396295E0
1.234899133E1,1.653022775E0,-4.565122989E-1,1.356674484E0,2.186653477E0
1.235905833E1,1.671159961E0,-8.442002383E-1,1.922936389E0,2.683865499E0
1.236912633E1,1.425582020E0,-1.185767972E0,2.118418749E0,2.815320191E0
1.237919433E1,1.170224611E0,-1.481383899E0,2.024313076E0,2.767989762E0
1.238926133E1,9.475421005E-1,-1.756891252E0,1.537157566E0,2.519396016E0
1.239932933E1,8.378799829E-1,-1.823012152E0,9.586053979E-1,2.223587300E0
1.240939733E1,8.356937090E-1,-1.788846871E0,5.754145521E-1,2.056564856E0
1.241946433E1,9.584438686E-1,-1.703363501E0,4.329974288E-1,2.001886271E0
1.242953233E1,1.046651090E0,-1.557375484E0,2.978267598E-1,1.899894123E0
1.243960033E1,9.380652988E-1,-1.480997691E0,2.194343090E-1,1.766768825E0
1.244966733E1,7.441369830E-1,-1.442244684E0,1.564486867E-1,1.630425028E0
1.245973533E1,5.644086670E-1,-1.335892310E0,4.776005745E-2,1.451015655E0
1.246980333E1,3.753970921E-1,-1.187670656E0,-6.247983813E-2,1.247152073E0
1.247987033E1,1.832905129E-1,-1.061145680E0,-3.061046630E-1,1.119520268E0
1.248993833E1,8.947230320E-2,-9.722288257E-1,-5.856734920E-1,1.138528709E0
1.250000633E1,1.546163155E-1,-8.347812510E-1,-7.359627217E-1,1.123568899E0
1.251007333E1,3.635182542E-1,-6.193715805E-1,-7.718090773E-1,1.054256102E0
1.252014133E1,6.293986782E-1,-4.213471439E-1,-7.271065289E-1,1.049933339E0
1.253020933E1,8.130760941E-1,-3.343230334E-1,-5.272639006E-1,1.025120406E0
1.254027633E1,8.313696930E-1,-3.719527897E-1,-2.017400497E-1,9.328577018E-1
1.255034433E1,7.206213820E-1,-4.509855106E-1,1.107871950E-1,8.572962788E-1
1.256041233E1,5.203592526E-1,-5.812626448E-1,3.102304584E-1,8.395730768E-1
1.257047933E1,2.479230766E-1,-7.787412438E-1,3.503797799E-1,8.891961352E-1
1.258054733E1,-2.994699005E-2,-9.622248244E-1,2.279905397E-1,9.893195243E-1
1.259061533E1,-2.591577705E-1,-1.052690606E0,-6.171911538E-2,1.085877300E0
1.260068233E1,-2.742099289E-1,-9.904496267E-1,-3.451430136E-1,1.084114961E0
1.261075033E1,-1.633894779E-2,-7.089670041E-1,-4.805756378E-1,8.566528572E-1
1.262081833E1,3.477862840E-1,-3.553674549E-1,-4.517055953E-1,6.717732297E-1
1.263088533E1,6.258590662E-1,-5.192093611E-2,-3.657041627E-1,7.267288965E-1
1.264095333E1,8.184111667E-1,1.110488579E-1,-3.749556273E-1,9.070393647E-1
1.265102133E1,8.415239677E-1,1.724466687E-1,-5.740860647E-1,1.033186939E0
1.266108833E1,8.171099420E-1,1.820840496E-1,-1.016042597E0,1.316497557E0
1.267115633E1,8.198243657E-1,1.759544134E-1,-1.160885730E0,1.432036182E0
1.268122433E1,9.116583958E-1,1.561577877E-1,-1.444314306E0,1.715094779E0
1.269129233E1,8.164528611E-1,2.136350405E-1,-1.780192407E0,1.970106649E0
1.270135933E1,7.369204956E-1,2.133915040E-1,-1.760645165E0,1.920536161E0
1.271142733E1,7.277031641E-1,2.437259817E-1,-1.699483874E0,1.864725097E0
1.272149533E1,7.753402839E-1,3.199520391E-1,-1.709660953E0,1.904327292E0
1.273156233E1,9.190899877E-1,4.456671757E-1,-1.718662156E0,1.999286184E0
1.274163033E1,1.126821314E0,5.986490482E-1,-1.766228671E0,2.178915022E0
1.275169833E1,1.233168718E0,6.986902303E-1,-1.629218468E0,2.159450379E0
1.276176533E1,1.286718250E0,7.430130020E-1,-1.070005966E0,1.831017461E0
1.277183333E1,1.181376713E0,7.309145281E-1,-6.080735904E-1,1.516456553E0
1.278190133E1,8.301989342E-1,6.819981837E-1,-4.967034280E-1,1.183666375E0
1.279196833E1,2.720701403E-1,5.153051752E-1,-4.764252841E-1,7.526902658E-1
1.280203633E1,-2.234526618E-1,2.580686170E-1,-4.018510652E-1,5.272710704E-1
1.281210433E1,-4.004794545E-1,1.930838317E-1,-1.470147890E-1,4.682718310E-1
1.282217133E1,-1.188502861E-1,2.998604214E-1,2.965555751E-1,4.381630655E-1
1.283223933E1,5.846501561E-1,4.799859461E-1,8.067999852E-1,1.105951414E0
1.284230733E1,1.212767856E0,6.888625225E-1,1.317591110E0,1.918693248E0
1.285237433E1,1.546466041E0,8.251234049E-1,1.782868093E0,2.500200889E0
1.286244204E1,1.608276958E0,7.898334119E-1,2.004283438E0,2.688409138E0
1.287251004E1,1.364700665E0,7.285592696E-1,1.806449329E0,2.378332544E0
1.288257704E1,7.112662024E-1,6.095041117E-1,9.881227273E-1,1.361536410E0
1.289264504E1,-5.832305253E-3,5.354923949E-1,1.041798413E-1,5.455635252E-1
1.290271304E1,-4.128098436E-1,5.498329836E-1,-4.210275936E-1,8.062211306E-1
1.291278004E1,-5.917626362E-1,5.569627860E-1,-4.053593946E-1,9.081336913E-1
1.292284804E1,-6.045864572E-1,5.292227179E-1,1.137979263E-1,8.115118221E-1
1.293291604E1,-3.151654353E-1,4.240725312E-1,1.209413527E0,1.319790833E0
1.294298304E1,2.223799901E-1,2.462952483E-1,2.314233230E0,2.337902832E0
1.295305104E1,8.088030220E-1,-8.342807293E-3,3.227342613E0,3.327156785E0
1.296311904E1,1.258671495E0,-3.667303491E-1,4.051126420E0,4.257977261E0
1.297318604E1,1.511843508E0,-8.503643730E-1,4.497841417E0,4.820722744E0
1.298325404E1,1.470510125E0,-1.312125133E0,4.285398624E0,4.716854223E0
1.299332204E1,1.114154929E0,-1.526598372E0,3.257950448E0,3.766441944E0
1.300338904E1,7.245875484E-1,-1.503294586E0,1.543499456E0,2.273172298E0
1.301345704E1,4.023600653E-1,-1.420412058E0,-2.587001163E-1,1.498796113E0
1.302352504E1,2.202031448E-1,-1.319337088E0,-1.641022827E0,2.117096053E0
1.303359204E1,1.445461676E-1,-1.133781839E0,-2.502342836E0,2.751013363E0
1.304366004E1,1.807929113E-1,-8.406065395E-1,-2.567912343E0,2.708039739E0
1.305372804E1,9.829746924E-2,-5.248773596E-1,-1.917570984E0,1.990536891E0
1.306379504E1,5.864698827E-2,-3.152383062E-1,-1.079466176E0,1.126082539E0
1.307386304E1,-3.675406270E-2,-2.663395035E-1,-5.322761339E-1,5.963266512E-1
1.308393104E1,-2.046344946E-1,-2.721446192E-1,-4.443340105E-1,5.597952152E-1
1.309399804E1,-2.996752840E-1,-2.478830597E-1,-7.403270835E-1,8.362628042E-1
1.310406604E1,-3.317025306E-1,-2.471822709E-1,-1.038210561E0,1.117589734E0
1.311413404E1,-5.559379153E-2,-2.980422297E-1,-9.688111281E-1,1.015142769E0
1.312420204E1,4.161615407E-1,-3.146752194E-1,-6.530427718E-1,8.358682812E-1
1.313426904E1,9.983462915E-1,-2.090215874E-1,-1.482368571E-1,1.030708255E0
1.314433704E1,1.640916992E0,-2.763686478E-3,4.234261215E-1,1.694669848E0
1.315440504E1,2.197245940E0,1.803912807E-1,7.430507165E-1,2.326489867E0
1.316447204E1,2.258789932E0,1.542255753E-1,5.884491652E-1,2.339271233E0
1.317454004E1,2.116371200E0,-6.870273739E-2,3.577630591E-1,2.147496573E0
1.318460804E1,1.614899806E0,-4.024913353E-1,5.442529857E-2,1.665191512E0
1.319467504E1,1.154052674E0,-6.309981841E-1,-1.638173479E-1,1.325455547E0
1.320474304E1,9.246235733E-1,-7.895249712E-1,-2.561419594E-1,1.242532549E0
1.321481104E1,1.068328765E0,-7.566647887E-1,-3.987637353E-1,1.368532232E0
1.322487804E1,1.237760244E0,-4.729532075E-1,-7.888952261E-1,1.542105974E0
1.323494604E1,1.168192046E0,-2.076872528E-1,-1.176642807E0,1.671016142E0
1.324501404E1,1.041073139E0,-1.463917682E-1,-1.539287122E0,1.864046317E0
1.325508104E1,8.099128235E-1,-2.029548088E-1,-1.762630295E0,1.950388421E0
1.326514904E1,4.671225102E-1,-2.100793487E-1,-1.820396692E0,1.891079292E0
1.327521704E1,1.543510712E-1,-1.900678378E-1,-1.811506001E0,1.827978125E0
1.328528404E1,3.277861387E-2,-1.814145434E-1,-1.723355132E0,1.733187406E0
1.329535204E1,8.402405038E-2,-1.195267358E-1,-1.585822772E0,1.592539025E0
1.330542004E1,1.893434409E-1,3.811098218E-2,-1.489151925E0,1.501624734E0
1.331548704E1,3.261437289E-1,2.161724398E-1,-1.541012635E0,1.589912009E0
1.332555504E1,5.398766372E-1,3.969204006E-1,-1.674043223E0,1.803173120E0
1.333562304E1,7.223534735E-1,5.030064341E-1,-1.602095574E0,1.827982560E0
1.334569004E1,8.184115322E-1,5.577647316E-1,-1.378989213E0,1.697795683E0
1.335575804E1,7.729419022E-1,5.341259006E-1,-1.104806839E0,1.450285425E0
1.336582604E1,5.885092454E-1,4.657137698E-1,-8.242106545E-1,1.114699803E0
1.337589304E1,3.806094463E-1,3.421217573E-1,-7.664384097E-1,9.215957266E-1
1.338596104E1,2.109233943E-1,2.680208704E-1,-6.557687438E-1,7.391593269E-1
1.339602904E1,8.302191071E-2,2.439256641E-1,-4.899691898E-1,5.535902584E-1
1.340609604E1,-3.131162055E-2,1.889890265E-1,-2.623002470E-1,3.248056177E-1
1.341616404E1,-8.918633781E-2,1.580680731E-1,4.726713717E-2,1.875470630E-1
1.342623204E1,3.379551776E-2,1.399206546E-1,4.445889491E-1,4.673106678E-1
1.343629904E1,2.659837005E-1,1.639614818E-1,9.078305161E-1,9.600973609E-1
1.344636704E1,4.927794347E-1,2.243073785E-1,1.375941060E0,1.478634225E0
1.345643504E1,6.322168900E-1,2.176649415E-1,1.710437463E0,1.836483743E0
1.346650204E1,7.906514373E-1,1.213949212E-1,1.846032640E0,2.011890387E0
1.347657004E1,8.556297907E-1,2.315438926E-2,1.611221323E0,1.824465022E0
1.348663804E1,7.569940601E-1,-5.474134058E-2,1.232041082E0,1.447052815E0
1.349670504E1,6.100500224E-1,-1.402410820E-1,1.013589690E0,1.191298725E0
1.350677304E1,4.341482339E-1,-1.133395046E-1,8.559581119E-1,9.664340751E-1
1.351684104E1,3.070076924E-1,1.771326274E-2,5.877147549E-1,6.633069546E-1
1.352690804E1,2.506254769E-1,1.318941817E-1,4.222753894E-1,5.084542353E-1
1.353697604E1,5.025861655E-1,1.103761357E-1,4.491111857E-1,6.829909239E-1
1.354704404E1,9.336801794E-1,1.653107268E-1,5.144245845E-1,1.078758067E0
1.355711104E1,1.410747780E0,1.752489468E-1,6.955876976E-1,1.582644539E0
1.356717904E1,1.723562123E0,-4.341265261E-3,1.242594722E0,2.124788668E0
1.357724704E1,1.818377941E0,-3.032825044E-1,2.032075839E0,2.743685629E0
1.358731404E1,1.808750939E0,-7.321824968E-1,2.786069620E0,3.401448970E0
1.359738204E1,1.960762466E0,-1.172063560E0,3.367260636E0,4.069000692E0
1.360745004E1,2.062297612E0,-1.473284629E0,3.679377406E0,4.467824653E0
1.361751704E1,1.955799496E0,-1.539601702E0,3.705978144E0,4.464280354E0
1.362758504E1,1.759241833E0,-1.469112933E0,3.309254503E0,4.025467675E0
1.363765304E1,1.486753398E0,-1.394774649E0,2.620367714E0,3.319963696E0
1.364772104E1,1.174960490E0,-1.278704787E0,1.683587633E0,2.418694980E0
1.365778804E1,8.117799857E-1,-1.086456522E0,7.765763122E-1,1.562832457E0
1.366785604E1,6.016146829E-1,-8.237393689E-1,1.820501357E-1,1.036160715E0
1.367792404E1,4.942432120E-1,-6.172303301E-1,-2.522547305E-2,7.911295454E-1
1.368799104E1,5.414971930E-1,-5.482179826E-1,5.843122602E-2,7.727718775E-1
1.369805904E1,6.898357916E-1,-5.188243219E-1,1.536472857E-1,8.767323336E-1
1.370812704E1,7.682989206E-1,-5.443658370E-1,2.673838162E-1,9.788317021E-1
1.371819404E1,7.546201636E-1,-6.082302958E-1,3.802128589E-1,1.041132798E0
1.372826204E1,8.002958348E-1,-6.946848875E-1,4.623223847E-1,1.156201757E0
1.373833004E1,8.984238079E-1,-7.222413531E-1,4.805113184E-1,1.248875109E0
1.374839704E1,1.076889747E0,-6.865420550E-1,4.003927696E-1,1.338411704E0
1.375846504E1,1.186640523E0,-6.451168710E-1,2.709728372E-1,1.377576780E0
1.376853304E1,1.189806424E0,-6.324325061E-1,1.305233020E-1,1.353752760E0
1.377860004E1,1.117819379E0,-6.571653512E-1,8.725741446E-2,1.299615451E0
1.378866804E1,9.639515072E-1,-6.601737437E-1,7.990804911E-2,1.171075222E0
1.379873604E1,8.783832072E-1,-7.835476550E-1,-2.088841778E-1,1.195465008E0
1.380880304E1,6.305949455E-1,-9.393601647E-1,-5.999079537E-1,1.280600272E0
1.381887104E1,4.562459582E-1,-1.006255528E0,-8.432772553E-1,1.389901828E0
1.382893904E1,7.279985216E-1,-9.886539468E-1,-1.065171488E0,1.625425720E0
1.383900604E1,9.564581542E-1,-7.798454905E-1,-1.310539953E0,1.800135038E0
1.384907404E1,8.403990365E-1,-4.520657837E-1,-1.580017657E0,1.845830385E0
1.385914233E1,6.282476538E-1,-2.134023213E-1,-1.859330962E0,1.974170026E0
1.386920933E1,4.847997395E-1,-1.933972424E-1,-1.945663932E0,2.014458095E0
1.387927733E1,2.740992703E-1,-2.744899374E-1,-1.621670882E0,1.667420638E0
1.388934533E1,4.058866672E-2,-3.767454600E-1,-1.097339945E0,1.160921848E0
1.389941233E1,-1.971411415E-1,-5.301141259E-1,-5.999383593E-1,8.245069139E-1
1.390948033E1,-2.074528525E-1,-6.068918681E-1,-5.316341096E-1,8.330601732E-1
1.391954833E1,-1.113590527E-1,-5.378423908E-1,-8.889258832E-1,1.044923204E0
1.392961533E1,-5.233192228E-2,-3.548815513E-1,-1.288957295E0,1.337942620E0
1.393968333E1,1.855172423E-1,-1.252906287E-1,-1.308063657E0,1.327081353E0
1.394975133E1,5.839982647E-1,5.598533571E-2,-9.844693869E-1,1.146022820E0
1.395981833E1,1.010024351E0,1.553646129E-1,-7.821130407E-1,1.286852035E0
1.396988633E1,1.314178382E0,3.415469760E-1,-8.678642124E-1,1.611492305E0
1.397995433E1,1.415742764E0,5.865502819E-1,-6.784407377E-1,1.675902933E0
1.399002133E1,1.394789121E0,6.691249537E-1,-3.107993925E-1,1.577897702E0
1.400008933E1,1.478763177E0,5.732019657E-1,3.026811182E-2,1.586258865E0
1.401015733E1,1.418015577E0,4.313192779E-1,1.398811859E-1,1.488748213E0
1.402022433E1,1.076640655E0,3.622999138E-1,3.101433349E-1,1.177542023E0
1.403029233E1,6.749825482E-1,3.570917988E-1,3.803052449E-1,8.530815157E-1
1.404036033E1,2.603200874E-1,4.288923910E-1,2.853248280E-1,5.771702422E-1
1.405042733E1,5.240472011E-2,5.439664721E-1,-1.205029285E-1,5.596130210E-1
1.406049533E1,2.273291465E-1,7.416210723E-1,-6.346918702E-1,1.002254521E0
1.407056333E1,7.242401507E-1,1.024636250E0,-5.818423963E-1,1.383092121E0
1.408063033E1,1.048759815E0,1.203667468E0,2.118142176E-1,1.610458875E0
1.409069833E1,1.228173295E0,1.133458488E0,1.111070961E0,2.006892242E0
1.410076633E1,1.223114723E0,8.653390923E-1,1.718577372E0,2.279984551E0
1.411083333E1,1.002871013E0,6.924541748E-1,2.045817965E0,2.381305146E0
1.412090133E1,6.619002072E-1,6.258058566E-1,2.053249192E0,2.246236207E0
1.413096933E1,2.601711296E-1,5.898600984E-1,1.804598100E0,1.916298060E0
1.414103633E1,-5.103047825E-2,6.781115395E-1,1.250839296E0,1.423740958E0
1.415110433E1,1.190038486E-1,8.906636757E-1,6.220993066E-1,1.092909533E0
1.416117233E1,5.757565411E-1,9.693075567E-1,3.229721260E-1,1.172759024E0
1.417123933E1,9.790919220E-1,8.244106293E-1,8.288001341E-1,1.524855252E0
1.418130733E1,1.361663913E0,5.501624742E-1,2.021216390E0,2.498424115E0
1.419137533E1,1.566193377E0,9.791864276E-2,3.037113976E0,3.418568569E0
1.420144233E1,1.341165622E0,-4.945075062E-1,3.323993579E0,3.618314001E0
1.421151033E1,1.021849833E0,-9.960103288E-1,3.110929812E0,3.422586441E0
1.422157833E1,7.747932769E-1,-1.351601440E0,2.475961953E0,2.925323686E0
1.423164533E1,5.440658748E-1,-1.459938651E0,1.477937551E0,2.147493410E0
1.424171333E1,3.383054258E-1,-1.345467126E0,3.345724171E-1,1.427119844E0
1.425178133E1,1.840983423E-1,-1.120820316E0,-6.582444549E-1,1.312789451E0
1.426184833E1,1.259753376E-2,-8.532265851E-1,-1.169401615E0,1.447637538E0
1.427191633E1,-5.740131207E-2,-6.598582864E-1,-1.150078322E0,1.327172941E0
1.428198433E1,-1.604304944E-1,-5.860661325E-1,-7.284969968E-1,9.486407800E-1
1.429205233E1,-3.538892057E-1,-6.044608882E-1,-3.114928722E-1,7.665757267E-1
1.430211933E1,-6.251937993E-1,-6.890209821E-1,-2.322443891E-1,9.589341253E-1
1.431218733E1,-9.164323550E-1,-7.926269192E-1,-4.257989216E-1,1.284293742E0
1.432225533E1,-9.818903994E-1,-8.036246547E-1,-7.882853615E-1,1.493758733E0
1.433232233E1,-7.943268509E-1,-6.392228776E-1,-1.163673098E0,1.547157430E0
1.434239033E1,-3.867369629E-1,-4.305872065E-1,-1.156776892E0,1.293485059E0
1.435245833E1,2.021636074E-1,-2.185475788E-1,-8.801866347E-1,9.291725782E-1
1.436252533E1,8.138216872E-1,9.294120044E-2,-5.050281090E-1,9.622874810E-1
1.437259333E1,1.198543261E0,2.665821630E-1,1.043663675E-1,1.232259850E0
1.438266133E1,1.331104171E0,1.710936230E-1,6.388404697E-1,1.486347365E0
1.439272833E1,1.224241116E0,-6.561657697E-2,9.011453944E-1,1.521556725E0
1.440279633E1,9.615078096E-1,-3.015736556E-1,9.254072464E-1,1.368145646E0
1.441286433E1,6.249411265E-1,-5.154937479E-1,5.725611109E-1,9.920239117E-1
1.442293133E1,3.301822545E-1,-6.865321147E-1,1.170612574E-3,7.618057732E-1
1.443299933E1,1.993177675E-1,-7.444894239E-1,-6.803328967E-1,1.028029632E0
1.444306733E1,2.491075397E-1,-6.458697000E-1,-1.311929836E0,1.483361766E0
1.445313433E1,3.334089674E-1,-4.386224502E-1,-1.756847398E0,1.841212637E0
1.446320233E1,4.760773748E-1,-1.993315816E-1,-2.016960787E0,2.081949462E0
1.447327033E1,6.716742667E-1,5.439372361E-3,-2.146667233E0,2.249301250E0
1.448333733E1,6.464053050E-1,1.200737429E-1,-2.003534410E0,2.108650671E0
1.449340533E1,4.293710587E-1,8.921243101E-2,-1.714203070E0,1.769409655E0
1.450347333E1,1.565655579E-1,-7.645468354E-2,-1.552126438E0,1.561875338E0
1.451354033E1,-5.548357151E-2,-1.955115956E-1,-1.623636131E0,1.636306053E0
1.452360833E1,-2.062671833E-1,-2.018306816E-1,-1.825675558E0,1.848343318E0
1.453367633E1,-3.260908847E-1,-2.126728812E-1,-1.935259396E0,1.974029876E0
1.454374333E1,-4.565522792E-1,-1.789905801E-1,-1.940438275E0,2.001444057E0
1.455381133E1,-5.286724218E-1,-9.733596772E-2,-1.768558202E0,1.848449873E0
1.456387933E1,-3.831528389E-1,4.376670152E-2,-1.586728506E0,1.632920382E0
1.457394633E1,-1.165962575E-1,2.453295806E-1,-1.477767981E0,1.502524375E0
1.458401433E1,1.996416302E-1,4.947022185E-1,-1.332833047E0,1.435629129E0
1.459408233E1,4.170804307E-1,6.794876817E-1,-1.100545388E0,1.358992181E0
1.460414933E1,4.405316392E-1,7.814821261E-1,-7.336787993E-1,1.158907684E0
1.461421733E1,2.794079574E-1,8.144472662E-1,-5.215611112E-1,1.006687215E0
1.462428533E1,-1.126058252E-1,7.749572182E-1,-7.181322223E-1,1.062521835E0
1.463435233E1,-5.501718298E-1,6.323632166E-1,-9.351966548E-1,1.255852325E0
1.464442033E1,-7.664484230E-1,5.651620442E-1,-9.868930578E-1,1.371425984E0
1.465448833E1,-8.040137869E-1,5.628591183E-1,-7.302780586E-1,1.223337484E0
1.466455533E1,-7.225901395E-1,6.425335711E-1,-1.019432813E-1,9.723056784E-1
1.467462333E1,-4.798720716E-1,7.069739807E-1,5.415205818E-1,1.011599701E0
1.468469133E1,-2.291923618E-1,6.818239367E-1,1.103093605E0,1.316901105E0
1.469475833E1,-2.410266146E-2,6.546984109E-1,1.660475929E0,1.785046570E0
1.470482633E1,7.880153663E-2,6.382455155E-1,2.008154295E0,2.108613453E0
1.471489433E1,1.997068267E-1,6.061703217E-1,1.918191959E0,2.021579992E0
1.472496133E1,2.417123468E-1,6.722757259E-1,1.389804223E0,1.562669283E0
1.473502933E1,8.584977038E-2,8.076396453E-1,9.173988998E-1,1.225264347E0
1.474509733E1,6.113775596E-3,9.918245995E-1,5.980526322E-1,1.158197032E0
1.475516433E1,7.842336796E-2,1.140054148E0,4.187050796E-1,1.217040520E0
1.476523233E1,6.216160342E-2,1.213281753E0,3.846567428E-1,1.274314516E0
1.477530033E1,6.767859757E-2,1.052627164E0,4.846745360E-1,1.160824597E0
1.478536733E1,2.397076289E-1,6.755580604E-1,8.894404382E-1,1.142340901E0
1.479543533E1,4.764837563E-1,3.655085734E-1,1.580015903E0,1.690290963E0
1.480550333E1,7.656092014E-1,2.331910533E-1,2.241992050E0,2.380559571E0
1.481557033E1,1.158969159E0,1.728167975E-1,2.583985754E0,2.837262331E0
1.482563833E1,1.573245996E0,1.549249023E-2,2.717370098E0,3.139975037E0
1.483570633E1,2.058933855E0,-2.235837856E-1,2.878871949E0,3.546421016E0
1.484577333E1,2.245838934E0,-4.232507050E-1,3.040950919E0,3.803986878E0
1.485584092E1,2.125343899E0,-5.675988713E-1,2.994002455E0,3.715280053E0
1.486590892E1,1.985901693E0,-7.208228186E-1,2.599804226E0,3.349981057E0
1.487597592E1,1.752104429E0,-9.374007627E-1,1.961403467E0,2.792076948E0
1.488604392E1,1.408814398E0,-1.149612591E0,1.320481389E0,2.247229008E0
1.489611192E1,1.088007204E0,-1.344629220E0,9.011763847E-1,1.950360554E0
1.490617892E1,9.467222477E-1,-1.412427685E0,6.112246549E-1,1.806884213E0
1.491624692E1,8.429510538E-1,-1.378711470E0,5.300840127E-1,1.700705988E0
1.492631492E1,8.093623812E-1,-1.223511749E0,3.571865237E-1,1.509844587E0
1.493638192E1,8.820998436E-1,-1.039470929E0,1.090996885E-1,1.367663222E0
1.494644992E1,8.502608773E-1,-8.249743009E-1,-2.023627782E-1,1.201863907E0
1.495651792E1,6.844817886E-1,-6.319764233E-1,-5.789328218E-1,1.096846722E0
1.496658492E1,4.579265942E-1,-5.358496597E-1,-1.111937519E0,1.316524466E0
1.497665292E1,1.049009492E-1,-4.712572226E-1,-1.572264249E0,1.644719565E0
1.498672092E1,-7.017287359E-2,-5.233298939E-1,-1.622935050E0,1.706668271E0
1.499678792E1,-5.542707279E-2,-5.937563905E-1,-1.454994830E0,1.572459465E0
1.500685592E1,-9.222444143E-2,-5.546022651E-1,-1.171331196E0,1.299271254E0
1.501692392E1,6.283023253E-2,-4.949972105E-1,-6.881278199E-1,8.499939841E-1
1.502699192E1,3.428848189E-1,-4.977807775E-1,-1.917489123E-1,6.341319633E-1
1.503705892E1,5.012256646E-1,-5.193403387E-1,1.420452404E-1,7.356075072E-1
1.504712692E1,5.195081538E-1,-5.208000961E-1,3.238562250E-1,8.037439371E-1
1.505719392E1,4.741108100E-1,-4.955529884E-1,3.668958253E-1,7.777958415E-1
1.506726192E1,4.174831577E-1,-5.282944724E-1,1.132675838E-1,6.828006898E-1
1.507732992E1,3.332569398E-1,-5.410004720E-1,-4.866070408E-1,8.003300012E-1
1.508739792E1,1.240343544E-1,-4.826364890E-1,-1.168884721E0,1.270674621E0
1.509746492E1,-4.538608789E-2,-3.836539453E-1,-1.678388874E0,1.722277405E0
1.510753292E1,-1.068640056E-1,-3.043338338E-1,-1.904003105E0,1.931130970E0
1.511760092E1,-5.070413053E-2,-1.144697714E-1,-2.085928695E0,2.089682454E0
1.512766792E1,1.022409046E-1,2.284419447E-1,-2.193823857E0,2.208053904E0
1.513773592E1,3.385650422E-1,5.365147805E-1,-1.925878708E0,2.027679264E0
1.514780392E1,3.850185758E-1,5.897405228E-1,-1.309490377E0,1.486875326E0
1.515787092E1,2.228391427E-1,4.377652484E-1,-7.507895064E-1,8.972070994E-1
1.516793892E1,8.822118178E-2,2.249763000E-1,-4.902270520E-1,5.465527193E-1
1.517800692E1,5.825142413E-3,5.157653511E-2,-4.380038148E-1,4.410684902E-1
1.518807392E1,7.600020871E-2,-2.549795330E-2,-4.581299311E-1,4.650905408E-1
1.519814192E1,2.386482596E-1,-1.567843169E-2,-4.516892231E-1,5.110987764E-1
1.520820992E1,4.193725392E-1,7.455726206E-2,-3.403325093E-1,5.452140211E-1
1.521827692E1,5.825968333E-1,2.010322443E-1,-2.173497766E-1,6.535089584E-1
1.522834492E1,7.293560989E-1,3.334000504E-1,-2.127538651E-1,8.296867600E-1
1.523841292E1,8.003622007E-1,4.750237066E-1,-3.464902121E-1,9.931176372E-1
1.524847992E1,7.784668632E-1,5.964510798E-1,-4.764217758E-1,1.090294573E0
1.525854792E1,7.265915354E-1,7.180497766E-1,-5.756086797E-1,1.172542576E0
1.526861592E1,6.723736668E-1,8.449755791E-1,-5.589791983E-1,1.215947294E0
1.527868292E1,5.741340119E-1,9.385517871E-1,-4.349363655E-1,1.183080286E0
1.528875092E1,4.703587979E-1,9.720797217E-1,-3.396542323E-1,1.132051846E0
1.529881892E1,3.826844770E-1,9.588112199E-1,-2.505964601E-1,1.062339376E0
1.530888592E1,3.456875356E-1,9.263071328E-1,3.772097290E-2,9.894279400E-1
1.531895392E1,4.457236013E-1,8.586472464E-1,5.400184321E-1,1.107955112E0
1.532902192E1,7.351461580E-1,8.326306450E-1,1.055144683E0,1.532006516E0
1.533908892E1,1.009689597E0,8.723727080E-1,1.316640353E0,1.874579698E0
1.534915692E1,1.079604609E0,9.005861083E-1,1.539153221E0,2.084608857E0
1.535922492E1,8.396967128E-1,8.524778491E-1,1.685716020E0,2.067231857E0
1.536929192E1,3.421528937E-1,7.130980620E-1,1.554881061E0,1.744486332E0
1.537935992E1,-1.920636387E-1,5.431621876E-1,1.182488853E0,1.315368196E0
1.538942792E1,-4.957554116E-1,4.283892381E-1,8.104889935E-1,1.042201121E0
1.539949492E1,-5.873002970E-1,4.240777937E-1,6.988445967E-1,1.006552226E0
1.540956292E1,-3.751975559E-1,4.501318172E-1,9.185069472E-1,1.089516806E0
1.541963092E1,5.655090764E-2,3.632293287E-1,1.354898685E0,1.403881760E0
1.542969792E1,6.257970858E-1,1.352683175E-1,2.074254144E0,2.170817764E0
1.543976592E1,9.494780405E-1,-2.062318808E-1,2.788299748E0,2.952736971E0
1.544983392E1,8.918239094E-1,-6.874112436E-1,3.259856055E0,3.448846996E0
1.545990092E1,5.506498396E-1,-1.111330578E0,3.269095826E0,3.496463701E0
1.546996892E1,-6.570370048E-3,-1.333373914E0,2.709416131E0,3.019745839E0
1.548003692E1,-5.387045628E-1,-1.381196829E0,1.515946791E0,2.120377787E0
1.549010392E1,-7.810633193E-1,-1.249730956E0,1.144060367E-1,1.478166470E0
1.550017192E1,-7.420980589E-1,-9.886717808E-1,-9.925812292E-1,1.585370277E0
1.551023992E1,-8.468139437E-1,-6.231488818E-1,-1.582614990E0,1.900020682E0
1.552030692E1,-8.184207416E-1,-2.847944856E-1,-1.535634951E0,1.763262633E0
1.553037492E1,-7.003274506E-1,2.501146495E-3,-1.119217887E0,1.320270227E0
1.554044292E1,-5.382369317E-1,1.343894809E-1,-7.628552359E-1,9.432431491E-1
1.555050992E1,-6.134407496E-1,-1.180435896E-2,-5.922861081E-1,8.527905547E-1
1.556057792E1,-8.333333342E-1,-2.241790321E-1,-5.202910960E-1,1.007672322E0
1.557064592E1,-9.416977353E-1,-3.399001077E-1,-4.855258906E-1,1.112682389E0
1.558071292E1,-8.541340730E-1,-4.636678290E-1,-5.341180068E-1,1.108970205E0
1.559078092E1,-7.726827975E-1,-6.245998684E-1,-5.977427298E-1,1.159508548E0
1.560084892E1,-3.828442521E-1,-5.608222407E-1,-5.846057904E-1,8.960218955E-1
1.561091592E1,4.028029919E-2,-4.075254956E-1,-4.103459001E-1,5.797269096E-1
1.562098392E1,4.633232819E-1,-2.210525259E-1,-6.459009826E-2,5.174017429E-1
1.563105192E1,7.223860717E-1,-1.238788185E-1,1.014024138E-2,7.330009705E-1
1.564111892E1,7.506915656E-1,-8.974043459E-2,-3.582396072E-1,8.366162731E-1
1.565118692E1,5.866822828E-1,-1.628244907E-1,-7.937449068E-1,1.000369378E0
1.566125492E1,3.030326821E-1,-3.584232098E-1,-1.012009773E0,1.115553577E0
1.567132192E1,2.296844780E-2,-5.756709525E-1,-1.017193329E0,1.169019617E0
1.568138992E1,-1.960923703E-1,-7.011840677E-1,-9.272590595E-1,1.178948972E0
1.569145792E1,-2.954475095E-1,-7.327409059E-1,-9.677691543E-1,1.249310050E0
1.570152492E1,-3.737920314E-1,-6.993275768E-1,-1.222220099E0,1.456915067E0
1.571159292E1,-4.469582409E-1,-6.179781890E-1,-1.559298048E0,1.735822316E0
1.572166092E1,-4.484269153E-1,-4.867257392E-1,-1.907164695E0,2.018728762E0
1.573172792E1,-4.570480500E-1,-3.442159376E-1,-2.255545312E0,2.326985643E0
1.574179592E1,-5.204767451E-1,-1.864516273E-1,-2.517331588E0,2.577327798E0
1.575186392E1,-4.499754041E-1,-2.850751519E-2,-2.525732868E0,2.565661135E0
1.576193092E1,-4.005189233E-1,1.224813339E-1,-2.340010096E0,2.377196739E0
1.577199892E1,-4.213063596E-1,2.079328358E-1,-1.966219234E0,2.021571960E0
1.578206692E1,-4.111997397E-1,2.297251162E-1,-1.375047605E0,1.453483667E0
1.579213392E1,-3.990002552E-1,2.340950328E-1,-8.534549189E-1,9.707661853E-1
1.580220192E1,-3.610984571E-1,2.402655995E-1,-6.663147819E-1,7.950440507E-1
1.581226992E1,-3.522029418E-1,3.543631956E-1,-6.337300032E-1,8.069906465E-1
1.582233692E1,-4.175005531E-1,4.597472709E-1,-4.555478007E-1,7.701935235E-1
1.583240492E1,-4.423668610E-1,4.719986495E-1,-2.601975882E-1,6.972617512E-1
1.584247292E1,-3.778979462E-1,4.035224918E-1,-2.059938991E-1,5.899752076E-1
1.585253992E1,-3.813469264E-1,4.172070229E-1,-1.867279083E-1,5.952768179E-1
1.586260796E1,-4.590457512E-1,5.359081319E-1,-1.299701554E-1,7.175045427E-1
1.587267596E1,-4.105324262E-1,6.298494986E-1,-1.474667788E-3,7.518307246E-1
1.588274296E1,-3.360725203E-1,7.004894185E-1,5.359265506E-2,7.787825993E-1
1.589281096E1,-3.222950184E-1,8.167528233E-1,1.634577441E-1,8.931280353E-1
1.590287896E1,-3.286179051E-1,8.729992372E-1,3.585395694E-1,9.993337873E-1
1.591294596E1,-1.926407589E-1,8.246500728E-1,5.921720874E-1,1.033356659E0
1.592301396E1,2.821047664E-2,7.315264392E-1,8.915682399E-1,1.153612018E0
1.593308196E1,2.682784402E-1,6.772429356E-1,1.247976499E0,1.445017875E0
1.594314896E1,6.344117886E-1,5.776186600E-1,1.547838675E0,1.769724893E0
1.595321696E1,8.101048315E-1,4.277603701E-1,1.776562455E0,1.998855405E0
1.596328496E1,7.800539437E-1,3.367548904E-1,1.832750689E0,2.020114626E0
1.597335196E1,7.309409867E-1,2.163121882E-1,1.746014847E0,1.905159713E0
1.598341996E1,6.290962310E-1,2.320245337E-1,1.391473603E0,1.544602292E0
1.599348796E1,3.644907193E-1,4.284009326E-1,9.510332537E-1,1.104918591E0
1.600355496E1,2.345468764E-1,5.130054653E-1,6.539496750E-1,8.636185628E-1
1.601362296E1,2.299857558E-1,4.412712389E-1,4.957596874E-1,7.024182670E-1
1.602369096E1,3.930276167E-1,4.190301847E-1,4.053997403E-1,7.031400662E-1
1.603375796E1,6.310588489E-1,4.220461786E-1,3.391490328E-1,8.314928227E-1
1.604382596E1,9.407667124E-1,3.309681934E-1,6.135202718E-1,1.170892427E0
1.605389396E1,1.362328157E0,-3.520900905E-3,1.332288671E0,1.905503479E0
1.606396096E1,1.534061173E0,-5.702628627E-1,2.215215896E0,2.754219468E0
1.607402896E1,1.445358619E0,-1.081702736E0,2.876288064E0,3.395905678E0
1.608409696E1,1.156546950E0,-1.373615914E0,3.107605669E0,3.589099403E0
1.609416396E1,8.370235120E-1,-1.451295297E0,2.917055436E0,3.363937993E0
1.610423196E1,5.976994604E-1,-1.353314674E0,2.284329400E0,2.721555816E0
1.611429996E1,4.890444526E-1,-1.099656027E0,1.223001872E0,1.715850061E0
1.612436696E1,5.047638148E-1,-7.113289869E-1,1.427673715E-1,8.838314085E-1
1.613443496E1,5.322881207E-1,-3.436613292E-1,-4.594057935E-1,7.826157651E-1
1.614450296E1,4.933703689E-1,-1.377188855E-1,-5.459966254E-1,7.486608894E-1
1.615456996E1,5.125865123E-1,-9.161680609E-2,-2.227426636E-1,5.663504798E-1
1.616463796E1,5.178956379E-1,-1.104577044E-1,8.971266031E-2,5.370895248E-1
1.617470596E1,3.379695033E-1,-1.421829423E-1,1.767443722E-1,4.070355603E-1
1.618477296E1,2.144057035E-2,-1.676668623E-1,-6.750201166E-2,1.820120775E-1
1.619484096E1,-2.371276912E-1,-1.806155214E-1,-3.249806446E-1,4.409806434E-1
1.620490896E1,-2.954378799E-1,-2.268813229E-1,-5.472607934E-1,6.620068365E-1
1.621497596E1,-2.237578864E-1,-2.507566738E-1,-6.205205584E-1,7.056856698E-1
1.622504396E1,2.162007074E-2,-1.389552793E-1,-5.893204004E-1,6.058667604E-1
1.623511196E1,2.866397206E-1,-6.685998738E-3,-3.908547914E-1,4.847416838E-1
1.624517896E1,5.111647618E-1,-1.077788025E-2,-1.188873428E-1,5.249188286E-1
1.625524696E1,5.655307111E-1,-1.747767842E-1,8.769478619E-2,5.983830588E-1
1.626531496E1,4.174527521E-1,-4.025942463E-1,2.204143023E-1,6.204283940E-1
1.627538196E1,3.879881939E-1,-5.030385938E-1,5.139392656E-1,8.171390544E-1
1.628544996E1,5.452030121E-1,-3.863281694E-1,9.042830104E-1,1.124376957E0
1.629551796E1,5.756263675E-1,-3.715081090E-1,7.612928599E-1,1.024173232E0
1.630558496E1,4.122064841E-1,-5.079789063E-1,-8.174933732E-2,6.592721054E-1
1.631565296E1,3.336552814E-2,-5.321919340E-1,-1.311569647E0,1.415823595E0
