"Time (s)","Linear Acceleration x (m/s^2)","Linear Acceleration y (m/s^2)","Linear Acceleration z (m/s^2)","Absolute acceleration (m/s^2)"
-2.522875002E-3,-2.202009959E0,2.103564482E0,-1.096602611E0,3.236721903E0
7.544125008E-3,-2.384882213E0,2.081607603E0,-9.566109127E-1,3.306940856E0
1.761212500E-2,-2.334088036E0,2.049626842E0,-7.332349956E-1,3.191640755E0
2.768012500E-2,-2.046564655E0,1.896176607E0,-5.551755846E-1,2.844667387E0
3.774712501E-2,-1.543314684E0,1.773012026E0,-3.485209501E-1,2.376311998E0
4.781512500E-2,-1.149524006E0,1.748382969E0,-1.103112316E-1,2.095332196E0
5.788212501E-2,-8.184113860E-1,1.767415656E0,8.961208820E-2,1.949765530E0
6.795012500E-2,-4.478072566E-1,1.899028294E0,9.715031862E-2,1.953529622E0
7.801812500E-2,-8.125992537E-2,2.087441955E0,-8.044248462E-2,2.090571234E0
8.808512501E-2,3.266009080E-1,2.198815625E0,-2.587217510E-1,2.237944426E0
9.815312500E-2,7.170469791E-1,2.132536851E0,-3.879966724E-1,2.283070566E0
1.082211250E-1,9.618868554E-1,1.950030048E0,-5.447429824E-1,2.241559374E0
1.182881250E-1,1.126339211E0,1.668870776E0,-8.100200468E-1,2.170230901E0
1.283561250E-1,1.228428088E0,1.202589242E0,-1.105575748E0,2.043906599E0
1.384241250E-1,1.001118164E0,6.222378856E-1,-1.396885786E0,1.827760232E0
1.484911250E-1,9.284577388E-1,1.785593480E-1,-1.511702882E0,1.783020700E0
1.585591250E-1,1.031088653E0,-1.227488440E-1,-1.305616012E0,1.668185919E0
1.686271250E-1,1.229703950E0,-4.672322917E-1,-9.247944582E-1,1.608018224E0
1.786941250E-1,1.464654431E0,-7.198782009E-1,-6.381002122E-1,1.752315356E0
1.887621250E-1,1.751110110E0,-1.007918476E0,-5.075617075E-1,2.083243903E0
1.988301250E-1,2.025558532E0,-1.428011100E0,-5.521303546E-1,2.539084677E0
2.088971250E-1,2.232157618E0,-1.770750323E0,-7.136544245E-1,2.937241389E0
2.189651250E-1,2.479748610E0,-2.220776013E0,-7.674365294E-1,3.416132037E0
2.290331250E-1,2.769521415E0,-3.098089326E0,-5.200303102E-1,4.187939572E0
2.391001250E-1,2.932995531E0,-4.040854617E0,-1.036886934E-1,4.994168616E0
2.491681250E-1,2.888173699E0,-4.588401339E0,3.565281272E-1,5.433423090E0
2.592361250E-1,2.781387754E0,-4.699801907E0,7.353932029E-1,5.510449979E0
2.693031250E-1,2.641625851E0,-4.311849673E0,1.021686330E0,5.158883377E0
2.793711250E-1,2.306894975E0,-3.290024180E0,1.077126120E0,4.160075024E0
2.894381250E-1,1.993018193E0,-1.878610402E0,7.624266350E-1,2.842990139E0
2.995061250E-1,1.666558787E0,-4.713276815E-1,3.141504318E-1,1.760187055E0
3.095741250E-1,1.232911148E0,6.911707109E-1,-2.727493127E-2,1.413694017E0
3.196411250E-1,9.475407118E-1,1.548902283E0,-1.941614735E-1,1.826097030E0
3.297091250E-1,7.507514995E-1,2.032678102E0,-1.070367908E-1,2.169531045E0
3.397771250E-1,5.256775510E-1,1.977279242E0,2.940471196E-1,2.066986647E0
3.498441250E-1,3.517433506E-1,1.509283304E0,7.538259655E-1,1.723343571E0
3.599121250E-1,1.309080487E-1,9.572681397E-1,1.049082289E0,1.426209262E0
3.699801250E-1,-6.242019653E-2,4.081064165E-1,1.142790352E0,1.215078976E0
3.800471250E-1,-1.479649615E-1,-2.242734647E-1,1.127814463E0,1.159378144E0
3.901151250E-1,-3.488314372E-1,-8.113970661E-1,1.009282047E0,1.341155778E0
4.001831250E-1,-6.251030213E-1,-1.228582454E0,8.324645841E-1,1.610330996E0
4.102501250E-1,-7.856523603E-1,-1.499116166E0,6.045102972E-1,1.797228869E0
4.203181250E-1,-7.889671469E-1,-1.688747216E0,4.166796041E-1,1.909962882E0
4.303861250E-1,-7.183550012E-1,-1.731956971E0,3.066057694E-1,1.899925250E0
4.404531250E-1,-5.660145682E-1,-1.621765022E0,2.511075068E-1,1.735957735E0
4.505211250E-1,-3.292730856E-1,-1.387244897E0,1.844586039E-1,1.437669693E0
4.605881250E-1,-9.893313468E-2,-1.018158120E0,-5.024396836E-2,1.024186594E0
4.706561250E-1,-4.221338868E-2,-4.996469164E-1,-2.059026825E-1,5.420562018E-1
4.807241250E-1,-3.565339744E-2,2.418993115E-2,-2.383944905E-1,2.422565801E-1
4.907911250E-1,-1.072800350E-1,4.709879583E-1,-1.648055273E-1,5.103915405E-1
5.008591250E-1,-3.515006912E-1,8.364126241E-1,1.137283444E-2,9.073412561E-1
5.109271250E-1,-6.708568990E-1,1.071301709E0,1.964091432E-1,1.279184460E0
5.209941250E-1,-1.032189099E0,1.225079387E0,2.641701682E-1,1.623582372E0
5.310621250E-1,-1.343399550E0,1.369896793E0,2.243716979E-1,1.931756256E0
5.411301250E-1,-1.528643435E0,1.472644066E0,1.921371492E-1,2.131278485E0
5.511971250E-1,-1.671545293E0,1.530206981E0,1.268623420E-1,2.269733712E0
5.612651250E-1,-1.807959664E0,1.502119296E0,-3.248479128E-2,2.350773445E0
5.713331250E-1,-2.149676210E0,1.453558170E0,-3.060116923E-1,2.612964277E0
5.814001250E-1,-2.413517783E0,1.436404778E0,-6.239441031E-1,2.877087593E0
5.914681250E-1,-2.449092243E0,1.367111179E0,-8.300672257E-1,2.925073912E0
6.015361250E-1,-2.427184480E0,1.242707573E0,-8.088242912E-1,2.844247413E0
6.116031250E-1,-2.364179562E0,1.090926719E0,-5.680534923E-1,2.664986093E0
6.216711250E-1,-2.204520169E0,9.341201824E-1,-2.563547981E-1,2.407946734E0
6.317391250E-1,-2.038598993E0,8.181722349E-1,-5.802014848E-2,2.197420760E0
6.418061250E-1,-1.977117859E0,7.957926017E-1,1.484142104E-2,2.131314421E0
6.518741250E-1,-1.816653889E0,7.649719280E-1,1.258507828E-1,1.975158683E0
6.619421250E-1,-1.590991711E0,7.120271444E-1,1.635653329E-1,1.750711540E0
6.720091250E-1,-1.370517182E0,6.807726073E-1,8.490858793E-2,1.532637647E0
6.820771250E-1,-1.222520646E0,6.210304356E-1,-2.917643666E-2,1.371527177E0
6.921441250E-1,-1.128394507E0,4.723152763E-1,-1.230558228E-1,1.229430201E0
7.022121250E-1,-1.051929883E0,2.878543335E-1,-2.764996254E-1,1.125108279E0
7.122801250E-1,-9.868971509E-1,2.346668905E-1,-4.500952721E-1,1.109783893E0
7.223471250E-1,-8.151515633E-1,2.339377427E-1,-4.178560638E-1,9.454113542E-1
7.324151250E-1,-5.668092048E-1,7.694058716E-2,-3.241649580E-1,6.574765765E-1
7.424831250E-1,-2.835472745E-1,-2.447287792E-1,-2.943336332E-1,4.763649020E-1
7.525501250E-1,-6.983271182E-2,-7.183462304E-1,-2.539071536E-1,7.650926460E-1
7.626181250E-1,5.778335452E-2,-1.286108531E0,-2.407170045E-1,1.309717048E0
7.726861250E-1,7.722066879E-2,-1.895562065E0,-1.475451314E-1,1.902863142E0
7.827531250E-1,1.094668937E-1,-2.321293743E0,3.542827507E-2,2.324143456E0
7.928211250E-1,9.135865152E-2,-2.393465341E0,2.839261740E-1,2.411977781E0
8.028901250E-1,1.093037564E-1,-2.333855901E0,3.905057126E-1,2.368823630E0
8.129571250E-1,1.404068506E-1,-2.234171984E0,3.987228048E-1,2.273811429E0
8.230251250E-1,2.998352784E-1,-2.164742730E0,3.481081367E-1,2.212959909E0
8.330931250E-1,5.827732730E-1,-2.343561695E0,2.179584718E-1,2.424749884E0
8.431601250E-1,9.263615119E-1,-2.652112248E0,1.796030646E-2,2.809300197E0
8.532281250E-1,1.089735056E0,-2.875655980E0,-2.009524298E-1,3.081769246E0
8.632961250E-1,1.007809718E0,-2.944545536E0,-3.882048333E-1,3.136356458E0
8.733631250E-1,9.323309344E-1,-3.089634252E0,-5.323819685E-1,3.270857891E0
8.834311250E-1,5.342565858E-1,-3.087497095E0,-4.092571485E-1,3.159993643E0
8.934991250E-1,3.471784294E-1,-3.018194726E0,-1.418160295E-1,3.041404947E0
9.035661250E-1,1.062550181E-1,-2.716881856E0,1.220419157E-1,2.721696415E0
9.136341250E-1,-3.348753029E-1,-2.049642044E0,2.398001611E-1,2.090616678E0
9.237011250E-1,-6.126601464E-1,-1.147724233E0,2.258487046E-1,1.320466208E0
9.337691250E-1,-5.827738577E-1,-1.073817766E-1,1.171173906E-1,6.040469339E-1
9.438371250E-1,-4.211158866E-1,8.461195868E-1,-4.954813600E-2,9.464206057E-1
9.539041250E-1,-2.058254993E-1,1.427094256E0,-2.601940799E-1,1.465149519E0
9.639721250E-1,-1.236452222E-2,1.642054276E0,-4.371588922E-1,1.699294861E0
9.740401250E-1,3.603294021E-1,1.569297372E0,-6.072777843E-1,1.720847996E0
9.841071250E-1,8.043266129E-1,1.307109976E0,-7.775381792E-1,1.720477669E0
9.941751250E-1,1.123582833E0,7.350634199E-1,-9.572581995E-1,1.648969337E0
1.004243125E0,1.365195047E0,8.005364478E-2,-1.005178471E0,1.697218271E0
1.014310125E0,1.463648710E0,-3.278756011E-1,-8.593418956E-1,1.728652206E0
1.024378125E0,1.415134946E0,-4.839863187E-1,-6.107603860E-1,1.615511659E0
1.034446125E0,1.245217198E0,-5.436513072E-1,-3.321569324E-1,1.398731869E0
1.044513125E0,1.030857688E0,-5.632979518E-1,-1.058872283E-1,1.179484743E0
1.054581125E0,7.650222141E-1,-5.126908851E-1,1.092961778E-2,9.209942389E-1
1.064649125E0,3.723723274E-1,-3.964166629E-1,1.865062988E-1,5.749712344E-1
1.074716125E0,-2.740356088E-2,-2.201102471E-1,4.715756035E-1,5.211362834E-1
1.084784125E0,-2.792103946E-1,7.602198958E-2,6.509997547E-1,7.124173411E-1
1.094852125E0,-5.158191454E-1,4.812088913E-1,5.704707313E-1,9.072310858E-1
1.104919125E0,-7.535979241E-1,8.770010716E-1,1.876774961E-1,1.171436534E0
1.114987125E0,-9.271660888E-1,1.238905129E0,-3.446933627E-1,1.585350557E0
1.125055125E0,-1.104407474E0,1.618145011E0,-7.861037654E-1,2.110940140E0
1.135122125E0,-1.281548873E0,1.954725947E0,-1.106907159E0,2.586225918E0
1.145190125E0,-1.312702253E0,2.121701961E0,-1.243457186E0,2.787649940E0
1.155257125E0,-1.346495651E0,2.095002404E0,-1.168008808E0,2.750696310E0
1.165325125E0,-1.348374946E0,1.996472143E0,-9.424436939E-1,2.586931798E0
1.175393125E0,-1.271326185E0,1.825179130E0,-6.702593136E-1,2.323100659E0
1.185460125E0,-1.213833438E0,1.542400180E0,-3.672244388E-1,1.996808382E0
1.195528125E0,-1.268244703E0,1.270071373E0,-9.486405730E-2,1.797366159E0
1.205596125E0,-1.335724495E0,1.002451329E0,2.663570452E-1,1.691157790E0
1.215663125E0,-1.229870011E0,9.442709488E-1,5.792187506E-1,1.655210630E0
1.225731125E0,-1.045506717E0,9.579136723E-1,4.505127633E-1,1.487832198E0
1.235799125E0,-8.771367270E-1,9.426348978E-1,1.106433626E-1,1.292351091E0
1.245866125E0,-6.447321242E-1,9.552882725E-1,-1.259618799E-1,1.159362580E0
1.255934125E0,-5.255582678E-1,1.071653126E0,-2.092934829E-1,1.211798530E0
1.266002125E0,-3.958360344E-1,1.256310536E0,-1.902426696E-1,1.330862353E0
1.276069125E0,-2.826356936E-1,1.491065134E0,-9.394370556E-2,1.520520829E0
1.286137125E0,-1.950309545E-1,1.702811524E0,-5.227120260E-2,1.714740925E0
1.296205125E0,-8.770823479E-3,1.862673231E0,-1.109409767E-1,1.865994746E0
1.306272125E0,1.339105940E-1,1.896954287E0,-1.828395098E-1,1.910444425E0
1.316340125E0,1.448975122E-1,1.713182146E0,-1.501892241E-1,1.725846215E0
1.326408125E0,2.122474962E-1,1.417396064E0,1.181194207E-2,1.433248103E0
1.336475125E0,3.155607802E-1,1.049389268E0,-3.157496452E-2,1.096263390E0
1.346543125E0,4.359876949E-1,6.500881737E-1,-1.760362562E-1,8.023021047E-1
1.356611125E0,7.280865222E-1,2.522874749E-1,-3.124781281E-1,8.315055829E-1
1.366678125E0,1.070112970E0,-2.132684201E-1,-5.783738279E-1,1.234966183E0
1.376746125E0,1.231606634E0,-8.608802980E-1,-7.214002311E-1,1.666849748E0
1.386813125E0,1.215566552E0,-1.322864714E0,-6.550869584E-1,1.912253126E0
1.396881125E0,1.172845041E0,-1.494285196E0,-4.917660391E-1,1.962214966E0
1.406949125E0,1.250438762E0,-1.558963003E0,-3.720349431E-1,2.032823834E0
1.417016125E0,1.380737531E0,-1.627067277E0,-2.216667942E-1,2.145441731E0
1.427084125E0,1.649840428E0,-1.837966990E0,-7.299958209E-2,2.470915829E0
1.437152125E0,2.040753107E0,-2.377217683E0,1.411399087E-2,3.133055436E0
1.447219125E0,2.281250841E0,-3.006923048E0,-2.701064626E-2,3.774443163E0
1.457287125E0,2.387724545E0,-3.300048646E0,-1.749065924E-1,4.077026108E0
1.467355125E0,2.529765108E0,-3.370839132E0,-4.455917466E-1,4.238020760E0
1.477422125E0,2.603454058E0,-3.345175703E0,-7.784719795E-1,4.309778664E0
1.487490125E0,2.414393111E0,-2.987262370E0,-9.516355169E-1,3.957100039E0
1.497558125E0,2.218141842E0,-2.425551353E0,-1.065900051E0,3.455371979E0
1.507625125E0,1.881362686E0,-1.471882174E0,-8.579572749E-1,2.538120048E0
1.517693125E0,1.337842941E0,-3.335012072E-1,-4.441299427E-1,1.448550378E0
1.527761125E0,8.806894952E-1,6.796610516E-1,-4.281623662E-2,1.113277307E0
1.537828125E0,6.571136034E-1,1.475321506E0,2.137613404E-1,1.629130365E0
1.547896125E0,5.088358158E-1,1.892692251E0,3.074653832E-1,1.983868143E0
1.557964125E0,3.773471385E-1,1.836818013E0,3.687125186E-1,1.911083514E0
1.568031125E0,1.463476217E-1,1.385251581E0,2.875391686E-1,1.422328493E0
1.578099125E0,-1.534005332E-1,7.844589436E-1,1.253556059E-1,8.090868839E-1
1.588167125E0,-3.829388309E-1,1.397116166E-1,-4.220878400E-2,4.098085717E-1
1.598234125E0,-5.572004753E-1,-5.097193301E-1,-1.756416605E-1,7.753297093E-1
1.608302125E0,-6.106118667E-1,-1.024381896E0,-2.727679324E-1,1.223359091E0
1.618370125E0,-5.331842065E-1,-1.476741210E0,-4.411268127E-1,1.630841153E0
1.628437125E0,-5.813371968E-1,-1.828829547E0,-5.503715122E-1,1.996366511E0
1.638505125E0,-6.709007531E-1,-2.063357273E0,-5.450436024E-1,2.237101604E0
1.648572125E0,-6.994936377E-1,-2.115655355E0,-4.777164225E-1,2.278925604E0
1.658640125E0,-7.413480073E-1,-1.998996971E0,-2.901008703E-1,2.151684055E0
1.668708125E0,-7.615688485E-1,-1.792729422E0,-5.263374824E-2,1.948495882E0
1.678775125E0,-6.925547469E-1,-1.460353804E0,1.607604235E-1,1.624225730E0
1.688843125E0,-6.158685136E-1,-9.293231267E-1,2.894998131E-1,1.151844452E0
1.698911125E0,-6.696675754E-1,-2.977647793E-1,3.385070086E-1,8.072828006E-1
1.708978125E0,-8.074706608E-1,3.572426569E-1,3.166372526E-1,9.380246978E-1
1.719046125E0,-9.039801246E-1,9.305077726E-1,1.738201797E-1,1.308907268E0
1.729114125E0,-9.590223044E-1,1.339584242E0,-5.301791031E-2,1.648338746E0
1.739181125E0,-1.117970091E0,1.553829147E0,-2.567061426E-1,1.931357084E0
1.749249125E0,-1.330794708E0,1.688724997E0,-3.803052449E-1,2.183446530E0
1.759317125E0,-1.540136722E0,1.750173971E0,-4.067463541E-1,2.366552904E0
1.769384125E0,-1.685096800E0,1.715731532E0,-4.093530794E-1,2.439437611E0
1.779452125E0,-1.772418534E0,1.603493643E0,-4.695197590E-1,2.435797226E0
1.789520125E0,-1.958577508E0,1.472362815E0,-5.437548029E-1,2.509889918E0
1.799586875E0,-2.063015796E0,1.303709235E0,-6.166719210E-1,2.517136508E0
1.809654875E0,-2.069907909E0,1.100133744E0,-6.503776109E-1,2.432653704E0
1.819722875E0,-2.072566053E0,9.422168219E-1,-6.002441686E-1,2.354484157E0
1.829789875E0,-1.992058665E0,7.834304184E-1,-4.778538320E-1,2.193263602E0
1.839857875E0,-1.930803233E0,6.349579185E-1,-2.787702089E-1,2.051556851E0
1.849924875E0,-1.902996799E0,5.028049976E-1,-1.285253815E-1,1.972492955E0
1.859992875E0,-1.854545601E0,3.367926049E-1,-1.318172908E-1,1.889482586E0
1.870060875E0,-1.824080438E0,1.685220176E-1,-1.862788786E-1,1.841295450E0
1.880127875E0,-1.814295707E0,1.479216921E-1,-1.941299351E-1,1.830638187E0
1.890195875E0,-1.826906397E0,3.034687382E-1,-2.762896373E-1,1.872435906E0
1.900263875E0,-1.725412182E0,4.962251258E-1,-5.208950403E-1,1.869389798E0
1.910330875E0,-1.537932322E0,6.678982079E-1,-6.951403856E-1,1.815087876E0
1.920398875E0,-1.308706266E0,7.707676882E-1,-8.043277824E-1,1.718644262E0
1.930466875E0,-1.110490333E0,7.728013498E-1,-7.845571037E-1,1.563950304E0
1.940533875E0,-9.229011297E-1,6.930605310E-1,-7.361808959E-1,1.368956430E0
1.950601875E0,-6.549969113E-1,4.423985821E-1,-7.126948965E-1,1.064270395E0
1.960669875E0,-3.757280445E-1,2.237144709E-3,-6.269793928E-1,7.309444077E-1
1.970736875E0,-1.526743090E-1,-5.062302965E-1,-4.813024467E-1,7.150039181E-1
1.980804875E0,7.374742270E-2,-1.025630277E0,-3.572444477E-1,1.088567748E0
1.990872875E0,3.884948552E-1,-1.477587302E0,-3.071343577E-1,1.558372228E0
2.000939875E0,7.347973716E-1,-1.807428153E0,-3.183411312E-1,1.976882591E0
2.011007875E0,1.015252054E0,-2.029061015E0,-3.795135319E-1,2.300403411E0
2.021075875E0,1.221710222E0,-2.148512614E0,-4.583749294E-1,2.513720329E0
2.031142875E0,1.326098809E0,-2.293624134E0,-4.439609216E-1,2.686326678E0
2.041210875E0,1.555510806E0,-2.478283297E0,-4.135571543E-1,2.955085699E0
2.051278875E0,1.758892754E0,-2.663803171E0,-4.603372550E-1,3.225129678E0
2.061345875E0,1.830142246E0,-2.794139947E0,-5.514912174E-1,3.385377563E0
2.071413875E0,1.930443045E0,-2.943723418E0,-6.962829316E-1,3.588443650E0
2.081480875E0,1.983713518E0,-3.121094611E0,-8.486028993E-1,3.794269070E0
2.091548875E0,2.039749140E0,-3.016447577E0,-7.698578614E-1,3.721856213E0
2.101616875E0,2.012919776E0,-2.668886740E0,-5.972234970E-1,3.395803051E0
2.111683875E0,1.980656594E0,-2.250907300E0,-3.217090909E-1,3.015473587E0
2.121751875E0,1.793470849E0,-1.604849027E0,-4.637075901E-2,2.407120340E0
2.131819875E0,1.517027357E0,-6.251702642E-1,1.305466908E-1,1.645980649E0
2.141886875E0,1.230474029E0,5.113530421E-1,1.657287844E-1,1.342763679E0
2.151954875E0,9.175263691E-1,1.548306452E0,9.305960655E-2,1.802156374E0
2.162022875E0,5.778165883E-1,2.378756670E0,-8.437709430E-2,2.449382535E0
2.172089875E0,2.038497251E-1,2.907913315E0,-3.571660219E-1,2.936849013E0
2.182157875E0,-7.239730060E-2,2.966123516E0,-7.481576747E-1,3.059880715E0
2.192225875E0,-8.542314291E-2,2.512321694E0,-1.160193420E0,2.768592816E0
2.202292875E0,3.381210923E-2,1.681460416E0,-1.653363376E0,2.358402604E0
2.212360875E0,-1.080951369E-1,8.505775040E-1,-2.101289915E0,2.269490242E0
2.222428875E0,-3.627454716E-1,1.535566539E-1,-2.335331154E0,2.368319134E0
2.232495875E0,-4.518494368E-1,-6.102049005E-1,-2.353035353E0,2.472507494E0
2.242563875E0,-6.153522044E-1,-1.292479658E0,-1.931251715E0,2.403933274E0
2.252631875E0,-7.096210152E-1,-1.735797422E0,-1.205492384E0,2.229297325E0
2.262698875E0,-7.670003271E-1,-1.893251830E0,-3.315558386E-1,2.069449508E0
2.272766875E0,-8.012661803E-1,-1.981209741E0,3.374603570E-1,2.163584762E0
2.282834875E0,-7.616401845E-1,-2.020387255E0,7.789204609E-1,2.295381780E0
2.292901875E0,-5.913470453E-1,-1.922900137E0,1.014004843E0,2.252874183E0
2.302969875E0,-4.588239956E-1,-1.587467009E0,9.620780593E-1,1.912110132E0
2.313036875E0,-5.062332201E-1,-1.100941830E0,6.757089186E-1,1.387417575E0
2.323104875E0,-5.954985684E-1,-6.102019769E-1,3.320762408E-1,9.150079930E-1
2.333172875E0,-7.481664455E-1,-1.153643954E-1,2.384903848E-2,7.573841499E-1
2.343239875E0,-9.311328399E-1,3.917985320E-1,-1.934381729E-1,1.028558594E0
2.353307875E0,-1.010248007E0,8.301707214E-1,-3.415990162E-1,1.351471180E0
2.363375875E0,-1.049314424E0,1.177088950E0,-3.371913850E-1,1.612543700E0
2.373442875E0,-1.140062626E0,1.440271541E0,-3.416405314E-1,1.868379821E0
2.383510875E0,-1.354018094E0,1.651183534E0,-2.596386127E-1,2.151089089E0
2.393578875E0,-1.487132882E0,1.893744165E0,-1.245381103E-1,2.411087081E0
2.403645875E0,-1.404852033E0,2.024208995E0,-2.372928385E-1,2.475346275E0
2.413713875E0,-1.389285575E0,1.996088566E0,-4.316437618E-1,2.469979819E0
2.423781875E0,-1.393654615E0,1.837134932E0,-6.283447176E-1,2.390011512E0
2.433848875E0,-1.440790774E0,1.590201752E0,-8.289790589E-1,2.300396911E0
2.443916875E0,-1.590310510E0,1.304742438E0,-9.554420543E-1,2.268107111E0
2.453984875E0,-1.777176413E0,1.014261535E0,-1.030213909E0,2.290943728E0
2.464051875E0,-1.993198287E0,8.326610506E-1,-9.878613567E-1,2.375296591E0
2.474119875E0,-2.084275103E0,7.764962053E-1,-8.562545657E-1,2.383342389E0
2.484187875E0,-1.999070646E0,8.082185197E-1,-7.717196149E-1,2.290207804E0
2.494254875E0,-1.844718770E0,9.210703665E-1,-7.884046447E-1,2.207473634E0
2.504322875E0,-1.691047511E0,1.037263897E0,-8.609270757E-1,2.162580289E0
2.514390875E0,-1.381455569E0,1.061550307E0,-8.395614228E-1,1.933952410E0
2.524457875E0,-1.077328434E0,1.061222863E0,-7.024909204E-1,1.667430362E0
2.534525875E0,-8.023882610E-1,9.642964929E-1,-6.612680501E-1,1.418086768E0
2.544592875E0,-4.689197981E-1,7.978174925E-1,-6.904772311E-1,1.154624326E0
2.554660875E0,-1.683559567E-1,5.185731840E-1,-7.044971001E-1,8.908299722E-1
2.564728875E0,1.397543013E-1,1.875120199E-1,-7.489692682E-1,7.846317525E-1
2.574795875E0,5.721699321E-1,-1.891042167E-1,-8.731015635E-1,1.060870009E0
2.584863875E0,9.550865436E-1,-5.328602707E-1,-1.076981109E0,1.534932795E0
2.594931875E0,1.157054050E0,-7.855909646E-1,-1.240735307E0,1.869585874E0
2.604998875E0,1.309978620E0,-1.055092058E0,-1.297774311E0,2.124495563E0
2.615066875E0,1.381154437E0,-1.305891416E0,-1.164986383E0,2.229379564E0
2.625134875E0,1.494626089E0,-1.397213230E0,-8.914740998E-1,2.231779117E0
2.635201875E0,1.755386179E0,-1.525729183E0,-6.672187614E-1,2.419589026E0
2.645269875E0,2.013035551E0,-1.763374060E0,-4.639549273E-1,2.716073338E0
2.655337875E0,2.373653221E0,-2.130676267E0,-3.888579673E-1,3.213288267E0
2.665404875E0,2.637632788E0,-2.521816987E0,-3.340291743E-1,3.664456731E0
2.675472875E0,2.794758582E0,-2.821205539E0,-1.599353814E-1,3.974349701E0
2.685540875E0,3.048517801E0,-2.949801013E0,-2.667386491E-2,4.242110123E0
2.695607875E0,3.104763338E0,-2.905851586E0,4.175609987E-2,4.252678262E0
2.705675875E0,2.948208232E0,-2.684757838E0,3.117144452E-1,3.999627773E0
2.715743875E0,2.690013900E0,-2.079848760E0,7.113143688E-1,3.473890295E0
2.725810875E0,2.466194764E0,-1.203852240E0,8.965319413E-1,2.887065353E0
2.735878875E0,2.195431842E0,-2.515823007E-1,8.007644892E-1,2.350412388E0
2.745945875E0,1.679461253E0,6.081162751E-1,5.502920266E-1,1.869014933E0
2.756013875E0,1.526864712E0,1.446605245E0,3.269909173E-1,2.128592409E0
2.766081875E0,1.546441190E0,2.298900077E0,1.544086297E-1,2.774934944E0
2.776148875E0,1.418832725E0,2.878987139E0,1.031039536E-2,3.209635424E0
2.786216875E0,1.356359904E0,2.944225693E0,-1.672485306E-1,3.245943498E0
2.796284875E0,1.224987586E0,2.535342767E0,-3.474427601E-1,2.837124249E0
2.806351417E0,9.403632545E-1,1.891509944E0,-6.026326831E-1,2.196647234E0
2.816419417E0,5.628559023E-1,1.235920125E0,-8.721554840E-1,1.613989006E0
2.826487417E0,3.183317757E-1,5.656994033E-1,-1.011075388E0,1.201509207E0
2.836554417E0,1.979709345E-1,-4.722796082E-2,-9.311563019E-1,9.531395647E-1
2.846622417E0,-8.176629424E-2,-5.279211277E-1,-7.165920657E-1,8.938068206E-1
2.856690417E0,-3.398653167E-1,-9.272842026E-1,-4.557466060E-1,1.087689935E0
2.866757417E0,-5.849379122E-1,-1.266151400E0,-2.234881836E-1,1.412529184E0
2.876825417E0,-6.846189058E-1,-1.439444160E0,7.061916232E-2,1.595521734E0
2.886893417E0,-5.819417989E-1,-1.461339059E0,3.760998909E-1,1.617287616E0
2.896960417E0,-4.147745812E-1,-1.285864702E0,6.344714302E-1,1.492662045E0
2.907028417E0,-1.274225235E-1,-9.351112854E-1,8.638249558E-1,1.279399535E0
2.917096417E0,1.658322984E-1,-4.418395883E-1,1.032594311E0,1.135329725E0
2.927163417E0,2.791723877E-1,9.279706657E-2,1.060819405E0,1.100857088E0
2.937231417E0,3.558071655E-1,5.504872870E-1,9.661278409E-1,1.167492183E0
2.947298417E0,2.569611543E-1,9.642000139E-1,7.849115181E-1,1.269565592E0
2.957366417E0,5.784884334E-2,1.315299586E0,4.826437980E-1,1.402249809E0
2.967434417E0,-1.399694788E-1,1.527258230E0,1.520118378E-1,1.541173824E0
2.977501417E0,-3.724115038E-1,1.615046571E0,-1.221027267E-1,1.661919021E0
2.987569417E0,-6.146201330E-1,1.635348689E0,-3.189299458E-1,1.775905277E0
2.997637417E0,-9.060997403E-1,1.590894647E0,-5.197578664E-1,1.903184373E0
3.007704417E0,-1.130673752E0,1.464524038E0,-6.878892535E-1,1.973941594E0
3.017772417E0,-1.338234120E0,1.364277034E0,-7.869831866E-1,2.066752264E0
3.027840417E0,-1.612798317E0,1.310115445E0,-8.198726052E-1,2.233766321E0
3.037907417E0,-1.815853406E0,1.232515292E0,-7.930835867E-1,2.333537896E0
3.047975417E0,-1.836308720E0,1.003861093E0,-6.787173110E-1,2.200096361E0
3.058043417E0,-1.923056842E0,8.120513695E-1,-6.271360981E-1,2.179650139E0
3.068110417E0,-2.042989082E0,7.001339078E-1,-7.414292836E-1,2.283354826E0
3.078178417E0,-2.140832296E0,6.086407703E-1,-8.475866532E-1,2.381598128E0
3.088246417E0,-2.326330535E0,5.629734313E-1,-8.694417912E-1,2.546503852E0
3.098313417E0,-2.528502694E0,5.338098586E-1,-7.243929092E-1,2.683844989E0
3.108381417E0,-2.652170135E0,4.531568742E-1,-3.570614664E-1,2.714194258E0
3.118449417E0,-2.734634002E0,3.723191178E-1,1.097539554E-1,2.762044638E0
3.128516417E0,-2.726280670E0,2.723112649E-1,4.508670680E-1,2.776696028E0
3.138584417E0,-2.610284191E0,1.649236411E-1,6.055563275E-1,2.684675368E0
3.148652417E0,-2.480642064E0,-6.122034788E-4,6.118806760E-1,2.554991857E0
3.158719417E0,-2.215456216E0,-1.770092511E-1,5.282544190E-1,2.284432370E0
3.168787417E0,-1.997459738E0,-3.720805514E-1,3.417259008E-1,2.060355778E0
3.178854417E0,-1.675046605E0,-5.616513759E-1,1.975072138E-1,1.777707090E0
3.188922417E0,-1.155894547E0,-7.313042450E-1,9.853493929E-2,1.371352339E0
3.198990417E0,-6.544040036E-1,-9.330793780E-1,1.415841144E-2,1.139772866E0
3.209057417E0,-6.980172157E-2,-1.337823061E0,1.242650270E-2,1.339700429E0
3.219125417E0,4.280734885E-1,-1.704568028E0,-5.514160076E-2,1.758362781E0
3.229193417E0,7.517180443E-1,-1.894552835E0,-9.909978032E-2,2.040644807E0
3.239260417E0,1.011689930E0,-1.950735222E0,-1.050136360E-1,2.199980065E0
3.249328417E0,1.198171086E0,-1.888009801E0,-6.983503243E-2,2.237201799E0
3.259396417E0,1.280992802E0,-1.838867462E0,-5.066902896E-2,2.241638564E0
3.269463417E0,1.442029799E0,-1.963510219E0,3.035289645E-3,2.436150967E0
3.279531417E0,1.603029959E0,-2.125795596E0,1.223015412E-1,2.665271024E0
3.289599417E0,1.703511436E0,-2.399865704E0,2.347499210E-1,2.952357386E0
3.299666417E0,1.768427809E0,-2.707383054E0,2.762078494E-1,3.245543204E0
3.309734417E0,1.781326182E0,-2.926372390E0,2.464414287E-1,3.434750603E0
3.319802417E0,1.728281996E0,-2.984251639E0,1.543056822E-1,3.452032263E0
3.329869417E0,1.801517202E0,-2.808543393E0,1.236861527E-2,3.336694952E0
3.339937417E0,1.956663714E0,-2.440655295E0,-8.359530330E-2,3.129268179E0
3.350005417E0,1.940984990E0,-1.843390868E0,-1.585004747E-1,2.681535945E0
3.360072417E0,1.711505165E0,-1.073708423E0,-1.872676063E-1,2.029080792E0
3.370140417E0,1.119464055E0,-1.600435549E-1,-1.576233923E-1,1.141778807E0
3.380207417E0,4.194576162E-1,8.244515598E-1,-8.101902008E-3,9.250571372E-1
3.390275417E0,-9.722633243E-2,1.629586843E0,2.504830241E-1,1.651589532E0
3.400343417E0,-3.445974684E-1,2.197546780E0,3.662146246E-1,2.254345230E0
3.410410417E0,-2.945844787E-1,2.502477906E0,2.335202515E-1,2.530554760E0
3.420478417E0,-8.278487921E-2,2.351571211E0,-1.908987272E-1,2.360758950E0
3.430546417E0,1.323505569E-1,1.841892811E0,-8.356086320E-1,2.026900980E0
3.440613417E0,3.177213264E-1,1.194838173E0,-1.486552253E0,1.933500117E0
3.450681417E0,4.304246539E-1,5.652596927E-1,-2.024091466E0,2.145164368E0
3.460749417E0,4.011950076E-1,-4.691104174E-2,-2.246580945E0,2.282604658E0
3.470816417E0,1.409588277E-1,-6.114790088E-1,-2.110917356E0,2.202214352E0
3.480884417E0,-9.093238950E-2,-1.000287859E0,-1.548232192E0,1.845499234E0
3.490952417E0,-1.327551842E-1,-1.215509250E0,-6.784372294E-1,1.398343216E0
3.501019417E0,-2.707781249E-1,-1.267323182E0,2.972899854E-1,1.329590228E0
3.511087417E0,-3.775190467E-1,-1.270530379E0,1.091910220E0,1.717275751E0
3.521155417E0,-3.915798461E-1,-1.186138101E0,1.560670974E0,1.998987809E0
3.531222417E0,-3.487103999E-1,-1.008965712E0,1.688378842E0,1.997556974E0
3.541290417E0,-2.981126887E-1,-6.638209444E-1,1.351913681E0,1.535317564E0
3.551358417E0,-3.748556399E-1,-1.062906861E-1,5.747462153E-1,6.943685425E-1
3.561425417E0,-5.068752444E-1,4.461747140E-1,-1.463745189E-1,6.909557790E-1
3.571493417E0,-5.742427701E-1,8.925780541E-1,-4.973045218E-1,1.172075991E0
3.581561417E0,-6.660306072E-1,1.265977737E0,-5.800554872E-1,1.543619373E0
3.591628417E0,-7.701484680E-1,1.600444320E0,-4.884179235E-1,1.842037663E0
3.601696417E0,-9.026861358E-1,1.873566009E0,-3.629887158E-1,2.111125922E0
3.611763417E0,-1.052552612E0,2.062927503E0,-2.941430140E-1,2.334535713E0
3.621831417E0,-1.105976282E0,2.120740094E0,-3.808677471E-1,2.421937721E0
3.631899417E0,-1.284965401E0,2.055387518E0,-6.047178733E-1,2.498286941E0
3.641966417E0,-1.532179831E0,1.949841183E0,-7.668728578E-1,2.595679035E0
3.652034417E0,-1.599139221E0,1.734251418E0,-6.927757716E-1,2.458620040E0
3.662102417E0,-1.630270382E0,1.548222837E0,-5.175060672E-1,2.307073471E0
3.672169417E0,-1.681014858E0,1.338881407E0,-4.150762975E-1,2.188767395E0
3.682237417E0,-1.650872462E0,1.133249450E0,-2.921309688E-1,2.023604384E0
3.692305417E0,-1.520488324E0,1.034478868E0,-8.540912786E-2,1.841012219E0
3.702372417E0,-1.351993203E0,1.066829758E0,1.802263892E-1,1.731615692E0
3.712440417E0,-1.163383076E0,1.067503942E0,3.759578401E-1,1.623073981E0
3.722508417E0,-1.049493933E0,9.323894066E-1,5.309996502E-1,1.500915770E0
3.732575417E0,-1.050599642E0,7.611542809E-1,6.133021706E-1,1.435010453E0
3.742643417E0,-1.219458459E0,6.517522913E-1,4.652951092E-1,1.458889825E0
3.752711417E0,-1.225148969E0,5.479683065E-1,3.288152852E-1,1.381802719E0
3.762778417E0,-9.122650445E-1,4.017580944E-1,3.722033429E-1,1.064035905E0
3.772846417E0,-6.268373054E-1,5.551954651E-1,2.883209413E-1,8.856048651E-1
3.782913417E0,-3.159361714E-1,6.084869885E-1,-1.347040612E-1,6.987254566E-1
3.792981417E0,2.574002802E-2,4.520751393E-1,-7.334414023E-1,8.619575229E-1
3.803049542E0,3.115437430E-1,3.499178499E-1,-1.221043054E0,1.307841025E0
3.813116542E0,4.191184777E-1,3.279931301E-1,-1.650231022E0,1.733926820E0
3.823184542E0,6.159158760E-1,1.359927875E-1,-2.008372981E0,2.105091075E0
3.833252542E0,9.761657560E-1,-1.978557444E-1,-2.236379893E0,2.448150629E0
3.843319542E0,1.369474039E0,-4.475675207E-1,-2.230979404E0,2.655756942E0
3.853387542E0,1.745290377E0,-5.840959132E-1,-2.015815902E0,2.729600755E0
3.863455542E0,2.010847523E0,-7.592896038E-1,-1.729255557E0,2.758686869E0
3.873522542E0,2.120676359E0,-9.556408596E-1,-1.362683083E0,2.695815805E0
3.883590542E0,2.117182063E0,-1.053188789E0,-9.915141124E-1,2.564130798E0
3.893658542E0,2.008932559E0,-1.225843034E0,-7.911048889E-1,2.482810528E0
3.903725542E0,1.960379035E0,-1.531017990E0,-6.581346003E-1,2.572983326E0
3.913793542E0,1.959529434E0,-1.876670880E0,-5.311563921E-1,2.764738018E0
3.923861542E0,1.959280928E0,-2.213775142E0,-4.253288785E-1,2.986718398E0
3.933928542E0,2.065887948E0,-2.629259575E0,-3.873108671E-1,3.366141506E0
3.943996542E0,2.159028831E0,-3.065747207E0,-3.184277431E-1,3.763191153E0
3.954064542E0,2.059457765E0,-3.162118676E0,-2.312812795E-1,3.780721074E0
3.964131542E0,1.762543756E0,-2.778001047E0,-2.871936712E-1,3.302473393E0
3.974199542E0,1.579132388E0,-1.926299123E0,-5.067862936E-1,2.541873278E0
3.984267542E0,1.321750234E0,-7.222884232E-1,-6.999607571E-1,1.660924234E0
3.994334542E0,1.095727867E0,4.700909954E-1,-9.337716883E-1,1.514442032E0
4.004402542E0,9.181321406E-1,1.247528602E0,-1.259556325E0,1.996440928E0
4.014469542E0,8.925429708E-1,1.628309811E0,-1.553686037E0,2.421149746E0
4.024537542E0,9.598455924E-1,1.544152005E0,-1.769324187E0,2.536970054E0
4.034605542E0,9.310123873E-1,1.058244292E0,-1.888611626E0,2.356590528E0
4.044672542E0,7.852699524E-1,3.905419654E-1,-1.924812322E0,2.115200795E0
4.054740542E0,7.407328802E-1,-3.290754497E-1,-1.947240780E0,2.109199494E0
4.064808542E0,7.926286733E-1,-1.004526506E0,-1.915400498E0,2.303495774E0
4.074875542E0,7.893904853E-1,-1.564365830E0,-1.832143018E0,2.535177671E0
4.084943542E0,5.824990386E-1,-1.948268282E0,-1.675489240E0,2.634828006E0
4.095011542E0,3.573192555E-1,-2.184885803E0,-1.318657642E0,2.576870389E0
4.105078542E0,1.873506367E-1,-2.220175504E0,-8.609756076E-1,2.388631099E0
4.115146542E0,1.100808513E-1,-2.133931412E0,-3.850164197E-1,2.171179106E0
4.125214542E0,1.618760723E-1,-2.001912977E0,8.553833306E-2,2.010267703E0
4.135281542E0,1.283282572E-1,-1.710535696E0,5.517858806E-1,1.801906814E0
4.145349542E0,3.117443025E-2,-1.227483178E0,9.905358732E-1,1.577608352E0
4.155417542E0,1.417540491E-2,-6.426978779E-1,1.300802000E0,1.450981511E0
4.165484542E0,-2.119615674E-3,-3.165390193E-2,1.381769564E0,1.382133709E0
4.175552542E0,-1.238124526E-1,4.692946047E-1,1.144693548E0,1.243338356E0
4.185620542E0,-4.603670758E-1,7.395418024E-1,7.426227734E-1,1.144704549E0
4.195687542E0,-1.004415409E0,9.362637717E-1,3.427474093E-1,1.415244131E0
4.205755542E0,-1.500933480E0,1.234385816E0,-1.804626167E-2,1.943408172E0
4.215822542E0,-1.688639043E0,1.477216589E0,-3.447647353E-1,2.269919248E0
4.225890542E0,-1.762683504E0,1.535686406E0,-6.986903033E-1,2.439990577E0
4.235958542E0,-1.894862738E0,1.453901986E0,-1.041217784E0,2.605469296E0
4.246025542E0,-2.283395015E0,1.386870675E0,-1.237946185E0,2.944454758E0
4.256093542E0,-2.608789058E0,1.403529977E0,-1.261804579E0,3.219911108E0
4.266161542E0,-2.751635951E0,1.397396248E0,-1.238611599E0,3.325413565E0
4.276228542E0,-2.849184465E0,1.342963933E0,-1.160886900E0,3.356942454E0
4.286296542E0,-2.881789125E0,1.202999132E0,-9.946401069E-1,3.277380724E0
4.296364542E0,-2.884613914E0,9.891109067E-1,-8.453348174E-1,3.164479227E0
4.306431542E0,-3.006836509E0,8.327885199E-1,-7.668436217E-1,3.212888366E0
4.316499542E0,-2.978145391E0,7.457141232E-1,-7.216499803E-1,3.153762550E0
4.326567542E0,-2.777479475E0,7.190975976E-1,-6.696044985E-1,2.946160853E0
4.336634542E0,-2.557454013E0,7.115073270E-1,-6.250597519E-1,2.727180485E0
4.346702542E0,-2.350395920E0,6.012674314E-1,-6.206375027E-1,2.504211336E0
4.356770542E0,-2.415869533E0,2.781812847E-1,-7.359428412E-1,2.540752308E0
4.366837542E0,-2.331031111E0,-3.492074132E-2,-9.394335473E-1,2.513455966E0
4.376905542E0,-1.923608819E0,-1.392602116E-1,-1.013542328E0,2.178745590E0
4.386973542E0,-1.388947606E0,-1.176471484E-1,-8.068087560E-1,1.610576503E0
4.397040542E0,-9.491966432E-1,-1.839656836E-1,-4.766247107E-1,1.077955822E0
4.407108542E0,-6.175384784E-1,-3.575753635E-1,-2.221211046E-1,7.473631634E-1
4.417175542E0,-4.452116776E-1,-5.467661190E-1,-2.800461810E-2,7.056563507E-1
4.427243542E0,-3.043083984E-1,-7.259113580E-1,1.304607002E-1,7.978539310E-1
4.437311542E0,-8.954016745E-2,-9.950300431E-1,3.232627326E-1,1.050048105E0
4.447378542E0,8.977464080E-2,-1.215522698E0,4.474008385E-1,1.298353737E0
4.457446542E0,2.510238916E-1,-1.348118253E0,5.078920386E-1,1.462323542E0
4.467514542E0,5.596492893E-1,-1.584344596E0,5.240491015E-1,1.760108686E0
4.477581542E0,1.019529877E0,-1.897284654E0,3.661953288E-1,2.184772127E0
4.487649542E0,1.405692278E0,-2.061905994E0,1.483830192E-1,2.499888923E0
4.497717542E0,1.499928929E0,-2.030362605E0,-2.692408919E-2,2.524457170E0
4.507784542E0,1.552383716E0,-1.992879614E0,-1.968319334E-1,2.533812772E0
4.517852542E0,1.652187501E0,-2.061413074E0,-4.041525292E-1,2.672543108E0
4.527920542E0,1.833514920E0,-2.407712667E0,-5.848601443E-1,3.082356021E0
4.537987542E0,2.091409290E0,-2.984601887E0,-7.290349406E-1,3.716629278E0
4.548055542E0,2.007071391E0,-3.593304053E0,-7.597386700E-1,4.185376020E0
4.558123542E0,1.839295478E0,-4.069010714E0,-6.936598706E-1,4.518962277E0
4.568190542E0,1.501926922E0,-4.233309873E0,-6.143558389E-1,4.533666293E0
4.578258542E0,9.905136538E-1,-4.089619811E0,-4.361724669E-1,4.230408244E0
4.588326542E0,4.974822772E-1,-3.641780394E0,-1.208327206E-1,3.677588014E0
4.598393542E0,-2.325361651E-1,-2.564584692E0,3.319253826E-1,2.596409477E0
4.608461542E0,-7.585844296E-1,-1.088390781E0,8.455488986E-1,1.573212563E0
4.618529542E0,-8.735781115E-1,4.972244149E-1,1.222581457E0,1.582743269E0
4.628596542E0,-7.625646293E-1,1.972327235E0,1.490482167E0,2.587105840E0
4.638664542E0,-5.210272604E-1,2.933811802E0,1.413074387E0,3.297802347E0
4.648731542E0,7.869533658E-2,3.168298014E0,1.017466979E0,3.328594946E0
4.658799542E0,8.792054719E-1,2.791803399E0,3.182867521E-1,2.944227393E0
4.668867542E0,1.364641900E0,2.148168797E0,-5.075850964E-1,2.595095244E0
4.678934542E0,1.639706034E0,1.339172598E0,-1.441416426E0,2.561191215E0
4.689002542E0,1.603818748E0,5.324597365E-1,-2.251656328E0,2.815262718E0
4.699070542E0,1.230235462E0,1.184166420E-1,-2.722823796E0,2.990195850E0
4.709137542E0,3.779014546E-1,1.972920728E-1,-3.006247110E0,3.036322670E0
4.719205542E0,-2.145793658E-1,-8.285504580E-4,-2.511646925E0,2.520796554E0
4.729273542E0,-4.251861334E-1,-5.930532628E-1,-1.054350631E0,1.282244389E0
4.739340542E0,-6.839482301E-1,-9.013810372E-1,9.705851734E-1,1.490740935E0
4.749408542E0,-8.020409364E-1,-7.469812149E-1,2.736096976E0,2.947452673E0
4.759476542E0,-3.829417545E-1,-4.468249243E-1,3.840478138E0,3.885301691E0
4.769543542E0,1.809783411E-1,2.230455494E-1,3.779817953E0,3.790715795E0
4.779611542E0,3.425860262E-1,8.255373877E-1,2.569554241E0,2.720567250E0
4.789679542E0,2.201482540E-1,1.320555063E0,1.127366567E0,1.750224644E0
4.799746542E0,-1.549412745E-1,1.814553570E0,-8.543485561E-2,1.823159502E0
4.809814625E0,-4.910924399E-1,2.014547641E0,-8.443753624E-1,2.238871085E0
4.819881625E0,-6.303584987E-1,2.035550255E0,-1.367310569E0,2.531867862E0
4.829949625E0,-5.123201716E-1,2.043537551E0,-1.573306807E0,2.629412861E0
4.840017625E0,-1.944269371E-1,1.994729673E0,-1.707087593E0,2.632659559E0
4.850085625E0,-7.422806382E-2,1.972706720E0,-1.736752857E0,2.629333013E0
4.860152625E0,-6.121391594E-2,1.905238622E0,-1.800618485E0,2.622195317E0
4.870220625E0,-1.789715767E-1,1.639958049E0,-1.818763565E0,2.455482464E0
4.880287625E0,-4.694173962E-1,1.296416003E0,-1.700117712E0,2.188937500E0
4.890355625E0,-6.824039805E-1,9.687637657E-1,-1.533174443E0,1.937731224E0
4.900423625E0,-8.385661536E-1,6.986416984E-1,-1.302222873E0,1.699140320E0
4.910490625E0,-8.998402959E-1,4.552870148E-1,-1.036880320E0,1.446416130E0
4.920558625E0,-9.200687385E-1,3.109262770E-1,-8.033998293E-1,1.260417756E0
4.930626625E0,-9.582960802E-1,2.200354028E-1,-5.708782822E-1,1.136947215E0
4.940693625E0,-9.460338843E-1,5.883351445E-2,-2.724352258E-1,9.862365056E-1
4.950761625E0,-1.003481609E0,-4.864532590E-2,-7.486716449E-2,1.007445680E0
4.960829625E0,-1.040904958E0,-3.359693170E-2,7.333987176E-2,1.044026160E0
4.970896625E0,-1.038187172E0,3.620478988E-2,3.030471539E-1,1.082118741E0
4.980964625E0,-9.892342830E-1,1.140961343E-1,4.564944649E-1,1.095440364E0
4.991032625E0,-8.671186924E-1,1.671870983E-1,3.638020635E-1,9.550907255E-1
5.001099625E0,-6.975219566E-1,2.349861485E-1,2.543189803E-2,7.364795661E-1
5.011167625E0,-3.749111885E-1,2.360544348E-1,-3.365055066E-1,5.563416679E-1
5.021234625E0,-3.613930106E-2,7.503673375E-2,-6.069526792E-1,6.126402821E-1
5.031302625E0,2.981875330E-1,-2.765446490E-1,-8.631355691E-1,9.541466126E-1
5.041370625E0,5.656426853E-1,-7.110529983E-1,-1.061291276E0,1.397099562E0
5.051437625E0,8.802065152E-1,-1.032085603E0,-1.099291745E0,1.745968655E0
5.061505625E0,1.137641879E0,-1.196527433E0,-9.610887104E-1,1.910392225E0
5.071573625E0,1.286308506E0,-1.355352429E0,-7.760044545E-1,2.023302422E0
5.081640625E0,1.466582842E0,-1.568656517E0,-5.801484579E-1,2.224437172E0
5.091708625E0,1.681466264E0,-1.823437829E0,-3.626712120E-1,2.506747837E0
5.101776625E0,1.859765995E0,-2.166341944E0,-2.257668618E-1,2.864042187E0
5.111843625E0,2.029559197E0,-2.609242217E0,-8.276090562E-2,3.306675801E0
5.121911625E0,2.183167892E0,-3.015680423E0,-2.620723883E-2,3.723068261E0
5.131979625E0,2.182392551E0,-3.255362470E0,-6.304000139E-2,3.919718880E0
5.142046625E0,2.052858013E0,-3.317123685E0,-9.415246943E-2,3.902102030E0
5.152114625E0,1.845401725E0,-3.191879250E0,-1.376569233E-1,3.689518953E0
5.162182625E0,1.643151798E0,-3.008370818E0,-1.318921351E-1,3.430399153E0
5.172249625E0,1.515852651E0,-2.814674783E0,1.910283526E-2,3.196962357E0
5.182317625E0,1.444166957E0,-2.559057319E0,3.016361843E-1,2.953874904E0
5.192385625E0,1.404409398E0,-2.298702441E0,5.964650766E-1,2.759015994E0
5.202452625E0,1.296400216E0,-1.976571729E0,8.282066417E-1,2.504678734E0
5.212520625E0,1.167917007E0,-1.454019515E0,9.131643462E-1,2.076552915E0
5.222588625E0,9.959445477E-1,-8.278183866E-1,8.468756318E-1,1.547380741E0
5.232655625E0,6.945083016E-1,-1.727729434E-1,5.552632928E-1,9.058198470E-1
5.242723625E0,4.709698319E-1,3.599674594E-1,3.741633296E-2,5.939605512E-1
5.252790625E0,4.112779462E-1,7.474869990E-1,-5.770758191E-1,1.030001390E0
5.262858625E0,3.809443456E-1,1.081222680E0,-1.079575007E0,1.574688310E0
5.272926625E0,2.607150668E-1,1.273523569E0,-1.326404179E0,1.857197532E0
5.282993625E0,1.999537253E-1,1.220246079E0,-1.510859714E0,1.952352186E0
5.293061625E0,1.750229520E-1,9.698022312E-1,-1.545202750E0,1.832703178E0
5.303129625E0,1.523386788E-1,6.447052270E-1,-1.402486249E0,1.551070463E0
5.313196625E0,1.798433965E-1,2.595795375E-1,-1.094135159E0,1.138796264E0
5.323264625E0,1.952092946E-1,-7.853863120E-2,-6.379949623E-1,6.717980033E-1
5.333332625E0,2.772024608E-1,-2.831905943E-1,-1.927400885E-1,4.406663802E-1
5.343399625E0,2.899640089E-1,-4.019878900E-1,3.285601638E-2,4.967422954E-1
5.353467625E0,2.769054222E-1,-5.322930908E-1,2.359066464E-2,6.004740351E-1
5.363535625E0,3.211045253E-1,-6.489351028E-1,-5.903005399E-2,7.264361163E-1
5.373602625E0,3.162168378E-1,-7.615928221E-1,-2.999212325E-2,8.251764918E-1
5.383670625E0,3.553499132E-1,-8.617778456E-1,8.477585614E-2,9.360136547E-1
5.393738625E0,4.048302215E-1,-8.104609269E-1,2.767995876E-1,9.472868805E-1
5.403805625E0,4.926647562E-1,-6.539666319E-1,4.780379462E-1,9.481092741E-1
5.413873625E0,6.170110595E-1,-5.114968836E-1,5.838403168E-1,9.915650382E-1
5.423941625E0,7.035972136E-1,-3.765805686E-1,5.565841788E-1,9.729583299E-1
5.434008625E0,7.326882809E-1,-1.970827425E-1,4.883161454E-1,9.022895224E-1
5.444076625E0,6.464634848E-1,1.076004624E-2,4.284594047E-1,7.756341130E-1
5.454143625E0,5.169903427E-1,2.596116972E-1,3.508866970E-1,6.766082485E-1
5.464211625E0,3.827189755E-1,5.435817254E-1,3.557258161E-1,7.539865799E-1
5.474279625E0,2.785297787E-1,9.260048318E-1,4.736022484E-1,1.076737143E0
5.484346625E0,1.249965137E-1,1.350408608E0,5.248121631E-1,1.454185457E0
5.494414625E0,-1.265056801E-1,1.727204354E0,5.215757293E-1,1.808667965E0
5.504482625E0,-2.894482845E-1,2.025983040E0,5.323533171E-1,2.114660172E0
5.514549625E0,-4.021878648E-1,2.322068499E0,5.003918517E-1,2.409180192E0
5.524617625E0,-5.434308672E-1,2.556733051E0,3.908489076E-1,2.642908222E0
5.534685625E0,-8.004738826E-1,2.714681548E0,1.065527145E-1,2.832244309E0
5.544752625E0,-1.026592144E0,2.825258828E0,-1.099457806E-1,3.008000491E0
5.554820625E0,-1.147096826E0,2.909296181E0,-1.059777870E-1,3.129068023E0
5.564888625E0,-1.168326897E0,3.009725034E0,-5.035797536E-2,3.228926825E0
5.574955625E0,-1.285533165E0,3.141483268E0,-4.274146535E-2,3.394604465E0
5.585023625E0,-1.391406360E0,3.192814804E0,-1.029811621E-1,3.484348311E0
5.595091625E0,-1.414231551E0,3.201808991E0,-1.702281620E-1,3.504370033E0
5.605158625E0,-1.427801185E0,3.247845290E0,-1.684215551E-1,3.551827849E0
5.615226625E0,-1.291454056E0,3.270858176E0,-1.462652125E-1,3.519625023E0
5.625294625E0,-1.091658205E0,3.194547919E0,-1.871103162E-1,3.381104008E0
5.635361625E0,-9.534914231E-1,2.993400192E0,-2.958908929E-1,3.155493943E0
5.645429625E0,-8.476825476E-1,2.763697003E0,-3.802602579E-1,2.915679113E0
5.655496625E0,-7.576208085E-1,2.546520889E0,-3.426123752E-1,2.678832053E0
5.665564625E0,-7.231830472E-1,2.293676759E0,-2.496545468E-1,2.417906985E0
5.675632625E0,-5.736679888E-1,2.018968720E0,-1.588776932E-1,2.104892343E0
5.685699625E0,-3.900431979E-1,1.700109526E0,-1.857883338E-1,1.754144635E0
5.695767625E0,-4.308567631E-1,1.268853983E0,-3.383713531E-1,1.382072050E0
5.705835625E0,-6.344398552E-1,8.653762221E-1,-5.460715429E-1,1.203986738E0
5.715902625E0,-6.428732944E-1,6.506728953E-1,-6.222935072E-1,1.106304885E0
5.725970625E0,-6.342808110E-1,6.747768724E-1,-5.401108912E-1,1.072080104E0
5.736038625E0,-5.160998118E-1,6.439766639E-1,-5.158262352E-1,9.732120346E-1
5.746105625E0,-2.709617275E-1,4.106903011E-1,-4.903966578E-1,6.946766608E-1
5.756173625E0,-6.644191146E-2,8.494601011E-2,-3.482537323E-1,3.645696289E-1
5.766241625E0,1.659644455E-1,-3.223803878E-1,-1.611077847E-1,3.967732726E-1
5.776308625E0,4.751874286E-1,-8.067105228E-1,1.042511408E-1,9.420473768E-1
5.786376625E0,8.968880367E-1,-1.291440607E0,3.867733983E-1,1.619203710E0
5.796444625E0,1.299355983E0,-1.693743662E0,6.234663856E-1,2.223916342E0
5.806511167E0,1.498716801E0,-2.008743694E0,7.716892093E-1,2.622347710E0
5.816579167E0,1.578567547E0,-2.251914775E0,8.444385123E-1,2.876816306E0
5.826647167E0,1.594239255E0,-2.349936914E0,9.668476331E-1,2.999766098E0
5.836714167E0,1.668656183E0,-2.550713927E0,9.472723246E-1,3.191845838E0
5.846782167E0,1.713818908E0,-3.078977117E0,8.267138475E-1,3.619493213E0
5.856849167E0,1.553895221E0,-3.677634351E0,7.737649709E-1,4.066730506E0
5.866917167E0,1.324740500E0,-4.045826504E0,7.823095071E-1,4.328470591E0
5.876985167E0,1.019788324E0,-4.131761279E0,8.970143366E-1,4.349259041E0
5.887052167E0,5.350968307E-1,-3.855499635E0,1.153612379E0,4.059806347E0
5.897120167E0,-9.241290450E-2,-3.076417206E0,1.385732807E0,3.375372332E0
5.907188167E0,-5.056952763E-1,-1.915813311E0,1.582552425E0,2.535851047E0
5.917255167E0,-5.581184882E-1,-6.044635195E-1,1.730813840E0,1.916399995E0
5.927323167E0,-5.804203534E-1,5.790532744E-1,1.638487474E0,1.832165845E0
5.937391167E0,-6.294855094E-1,1.442626215E0,1.334548620E0,2.063599385E0
5.947458167E0,-4.295113188E-1,1.987722369E0,9.110915083E-1,2.228364406E0
5.957526167E0,-2.331413519E-1,2.318160220E0,2.754167211E-1,2.346076739E0
5.967594167E0,-1.478661436E-1,2.363103089E0,-5.002205282E-1,2.419987848E0
5.977661167E0,-5.268458247E-2,2.048749174E0,-1.189959256E0,2.369842163E0
5.987729167E0,1.293959588E-1,1.419790499E0,-1.608676615E0,2.149508973E0
5.997797167E0,3.470492059E-1,7.214967102E-1,-1.764003221E0,1.937190754E0
6.007864167E0,6.106381792E-1,-3.113642335E-3,-1.623175371E0,1.734239593E0
6.017932167E0,7.106723446E-1,-5.884696305E-1,-1.252260754E0,1.555476996E0
6.027999167E0,5.205606526E-1,-9.136677915E-1,-7.979782909E-1,1.320053627E0
6.038067167E0,2.376858079E-1,-1.164744308E0,-3.442250007E-1,1.237584218E0
6.048135167E0,-4.400439084E-2,-1.338194944E0,5.748982430E-2,1.340151922E0
6.058202167E0,-2.723299760E-1,-1.256912799E0,5.517146176E-1,1.399422173E0
6.068270167E0,-5.457668298E-1,-9.730392498E-1,1.185541685E0,1.627936086E0
6.078338167E0,-7.491049236E-1,-6.584765893E-1,1.557915766E0,1.849824624E0
6.088405167E0,-7.873357737E-1,-2.871105677E-1,1.629985623E0,1.832807472E0
6.098473167E0,-7.558812618E-1,1.918126470E-1,1.471404456E0,1.665286656E0
6.108541167E0,-8.289083076E-1,6.889318120E-1,1.027705454E0,1.489259723E0
6.118608167E0,-9.942739981E-1,1.018566256E0,3.678495061E-1,1.470160284E0
6.128676167E0,-1.162012489E0,1.209917557E0,-2.490358382E-1,1.695934070E0
6.138744167E0,-1.269555064E0,1.381079008E0,-6.654827231E-1,1.990481485E0
6.148811167E0,-1.337031932E0,1.600464785E0,-9.195214391E-1,2.279180027E0
6.158879167E0,-1.347976166E0,1.791449466E0,-1.096430703E0,2.495694537E0
6.168947167E0,-1.303866525E0,1.953021483E0,-1.164116317E0,2.620978373E0
6.179014167E0,-1.194679129E0,2.075815936E0,-1.111093254E0,2.640226929E0
6.189082167E0,-1.008842921E0,2.083345980E0,-9.706635261E-1,2.510036293E0
6.199150167E0,-7.879292661E-1,1.959639947E0,-8.673076306E-1,2.283252893E0
6.209217167E0,-7.944904268E-1,1.749762912E0,-9.024762207E-1,2.123051722E0
6.219285167E0,-1.111090257E0,1.514768577E0,-1.064177461E0,2.159055134E0
6.229352167E0,-1.251434543E0,1.260177299E0,-1.049498026E0,2.062906044E0
6.239420167E0,-1.211165353E0,1.067765898E0,-7.903675550E-1,1.797700308E0
6.249488167E0,-1.094745535E0,9.987102807E-1,-4.118954122E-1,1.538033758E0
6.259555167E0,-9.463572353E-1,1.000624074E0,-1.492098155E-1,1.385317337E0
6.269623167E0,-7.952950037E-1,9.512917006E-1,2.051554084E-2,1.240109241E0
6.279691167E0,-7.290033656E-1,8.361360508E-1,1.064397719E-1,1.114405145E0
6.289758167E0,-7.733831477E-1,8.680758816E-1,-6.323471367E-2,1.164334943E0
6.299826167E0,-5.702941453E-1,1.163217015E0,-4.229963511E-1,1.362804149E0
6.309894167E0,-1.327148384E-1,1.438076497E0,-7.361960256E-1,1.621006424E0
6.319961167E0,2.458982223E-1,1.522281080E0,-8.952823913E-1,1.783069315E0
6.330029167E0,5.455387884E-1,1.422125877E0,-9.593000472E-1,1.800086431E0
6.340097167E0,7.732931006E-1,1.172493038E0,-1.050454119E0,1.753903076E0
6.350164167E0,9.098226625E-1,6.884283668E-1,-1.282227150E0,1.716338357E0
6.360232167E0,9.485318148E-1,1.140657288E-1,-1.507753088E0,1.784949010E0
6.370300167E0,1.066726847E0,-3.402600038E-1,-1.365888526E0,1.766163782E0
6.380367167E0,1.165400366E0,-7.566840845E-1,-1.191779494E0,1.830592030E0
6.390435167E0,1.344343291E0,-1.193426655E0,-1.060594872E0,2.087196097E0
6.400503167E0,1.452920823E0,-1.489301029E0,-8.138300925E-1,2.234125308E0
6.410570167E0,1.526982826E0,-1.706177182E0,-5.166629352E-1,2.347266008E0
6.420638167E0,1.400412242E0,-1.951146281E0,-2.314842876E-1,2.412822255E0
6.430705167E0,1.120466267E0,-2.223518357E0,-1.039792818E-1,2.492045391E0
6.440773167E0,1.014959693E0,-2.775429441E0,-1.814601699E-1,2.960756585E0
6.450841167E0,1.180618914E0,-3.313213652E0,6.507194538E-2,3.517880055E0
6.460908167E0,1.340268366E0,-3.670012506E0,4.146605239E-1,3.929027161E0
6.470976167E0,1.318802653E0,-3.835523207E0,6.538666445E-1,4.108286784E0
6.481044167E0,1.288337490E0,-3.809861532E0,8.479117584E-1,4.110208356E0
6.491111167E0,1.354651347E0,-3.331607239E0,9.721878952E-1,3.725565242E0
6.501179167E0,1.296479738E0,-2.284510664E0,1.017888563E0,2.817081080E0
6.511247167E0,1.012835400E0,-9.505058348E-1,9.615863085E-1,1.689362340E0
6.521314167E0,8.255865043E-1,3.822430122E-1,8.219752640E-1,1.226110163E0
6.531382167E0,8.608095467E-1,1.523035371E0,6.637595487E-1,1.871151131E0
6.541450167E0,1.008826548E0,2.237927651E0,4.420261510E-1,2.494281118E0
6.551517167E0,1.306608285E0,2.324093975E0,1.798614864E-1,2.672262743E0
6.561585167E0,1.531372331E0,2.027250132E0,-9.981781840E-2,2.542598653E0
6.571653167E0,1.394990119E0,1.522576364E0,-5.149397242E-1,2.128238505E0
6.581720167E0,1.119893240E0,8.561089700E-1,-8.498161966E-1,1.645986332E0
6.591788167E0,1.038389486E0,2.023838282E-1,-9.136882567E-1,1.397869153E0
6.601855167E0,8.351537186E-1,-3.612415677E-1,-9.536153841E-1,1.318089339E0
6.611923167E0,3.779160726E-1,-9.307223654E-1,-8.888294041E-1,1.341298769E0
6.621991167E0,-1.614258367E-1,-1.462518443E0,-7.070236820E-1,1.632452444E0
6.632058167E0,-7.227661407E-1,-1.736695554E0,-3.672741767E-1,1.916609679E0
6.642126167E0,-1.051642785E0,-1.711364831E0,1.687131850E-1,2.015734673E0
6.652194167E0,-1.055558081E0,-1.498293462E0,8.556756914E-1,2.022688075E0
6.662261167E0,-8.764344764E-1,-1.073906643E0,1.561129981E0,2.087711591E0
6.672329167E0,-6.496373534E-1,-5.404423553E-1,2.042548202E0,2.210454657E0
6.682397167E0,-5.104823917E-1,-3.434011281E-2,2.264412029E0,2.321493777E0
6.692464167E0,-4.607278490E-1,4.200487697E-1,2.253756064E0,2.338402770E0
6.702532167E0,-4.380272037E-1,8.045897377E-1,1.961746699E0,2.165105676E0
6.712600167E0,-4.966168892E-1,1.147981510E0,1.471674598E0,1.931402600E0
6.722667167E0,-6.457875466E-1,1.454111901E0,8.902602178E-1,1.823196707E0
6.732735167E0,-7.273211217E-1,1.645871338E0,3.744866806E-1,1.837968648E0
6.742803167E0,-8.049148428E-1,1.703453549E0,-8.078549691E-3,1.884066655E0
6.752870167E0,-8.920921504E-1,1.729473073E0,-3.037780925E-1,1.969565091E0
6.762938167E0,-9.680550832E-1,1.763586314E0,-5.218944025E-1,2.078398686E0
6.773005167E0,-9.603297418E-1,1.792517168E0,-6.365904611E-1,2.130867998E0
6.783073167E0,-9.848845392E-1,1.824627737E0,-6.354654568E-1,2.168658637E0
6.793141167E0,-1.056888907E0,1.801603741E0,-5.811781891E-1,2.168077095E0
6.803208250E0,-1.181895361E0,1.646784673E0,-5.006924351E-1,2.087934223E0
6.813276250E0,-1.398196147E0,1.440061626E0,-3.944988127E-1,2.045570646E0
6.823344250E0,-1.466434908E0,1.264641649E0,-2.584592110E-1,1.953599499E0
6.833411250E0,-1.523756917E0,1.134344049E0,-8.969807882E-2,1.901740600E0
6.843479250E0,-1.618071921E0,9.410725218E-1,7.643885951E-2,1.873397217E0
6.853547250E0,-1.643787391E0,6.453086597E-1,1.913115041E-1,1.776248953E0
6.863614250E0,-1.645871923E0,3.369732839E-1,2.458321122E-1,1.697904240E0
6.873682250E0,-1.773762224E0,6.262484908E-2,2.787613285E-1,1.796625219E0
6.883750250E0,-1.855644293E0,1.137809694E-2,2.568074091E-1,1.873364686E0
6.893817250E0,-1.746586704E0,1.748153758E-1,2.220620477E-1,1.769304124E0
6.903885250E0,-1.553590581E0,3.474836540E-1,1.277300870E-1,1.597092220E0
6.913953250E0,-1.288043960E0,2.958112246E-1,-8.833039680E-2,1.324523983E0
6.924020250E0,-1.119532467E0,-3.380041480E-2,-3.429474207E-1,1.171370286E0
6.934088250E0,-1.023286128E0,-5.886725289E-1,-5.938326967E-1,1.321471573E0
6.944155250E0,-7.965299356E-1,-1.248413286E0,-8.004833112E-1,1.683380291E0
6.954223250E0,-3.659450680E-1,-1.753554831E0,-7.902652287E-1,1.957904357E0
6.964291250E0,1.235171682E-1,-2.092879865E0,-6.144254208E-1,2.184701631E0
6.974358250E0,5.499019808E-1,-2.370275284E0,-4.612260318E-1,2.476555383E0
6.984426250E0,7.546679646E-1,-2.405885997E0,-2.507075572E-1,2.533903204E0
6.994494250E0,6.543654120E-1,-2.130520731E0,-1.991444707E-2,2.228835854E0
7.004561250E0,5.875422621E-1,-1.848666226E0,1.968464967E-1,1.949749027E0
7.014629250E0,7.825726318E-1,-1.864415116E0,4.592911881E-1,2.073502362E0
7.024697250E0,1.084671367E0,-2.190627769E0,8.337106258E-1,2.582718608E0
7.034764250E0,8.381673735E-1,-2.572837452E0,1.026639506E0,2.894132992E0
7.044832250E0,1.913162184E-1,-2.945320292E0,8.969845158E-1,3.084816808E0
7.054900250E0,-2.791595238E-1,-3.519478862E0,6.381908441E-1,3.587749860E0
7.064967250E0,-7.070804000E-1,-3.930274998E0,5.980251503E-1,4.037902715E0
7.075035250E0,-9.578142697E-1,-3.776610755E0,6.192961514E-1,3.945088680E0
7.085103250E0,-9.800196558E-1,-3.318072104E0,6.337452060E-1,3.517339051E0
7.095170250E0,-1.080799926E0,-2.618975492E0,8.775454473E-1,2.966015361E0
7.105238250E0,-1.159246171E0,-1.588698433E0,9.385564649E-1,2.179151815E0
7.115305250E0,-1.038304701E0,-3.610988957E-1,8.148901197E-1,1.368398689E0
7.125373250E0,-6.893405324E-1,7.850699776E-1,6.242469889E-1,1.217049523E0
7.135441250E0,2.942903638E-2,1.625000287E0,3.883908113E-1,1.671029450E0
7.145508250E0,9.207142711E-1,1.993332773E0,1.095622033E-1,2.198429937E0
7.155576250E0,1.509538243E0,1.937153894E0,-7.300891936E-2,2.456949576E0
7.165644250E0,1.650212311E0,1.537777956E0,-1.920588148E-1,2.263812780E0
7.175711250E0,1.609680582E0,8.875851166E-1,-3.038253818E-1,1.863112658E0
7.185779250E0,1.354110480E0,1.746241719E-1,-5.489459975E-1,1.471546976E0
7.195847250E0,1.141595181E0,-5.233673161E-1,-6.560909253E-1,1.416900917E0
7.205914250E0,8.810350657E-1,-9.382471472E-1,-3.626086468E-1,1.337166978E0
7.215982250E0,3.797333872E-1,-9.842729205E-1,1.518521905E-1,1.065856330E0
7.226050250E0,-1.350648344E-2,-9.257551557E-1,5.462632585E-1,1.074992363E0
7.236117250E0,-2.973753548E-1,-7.542779553E-1,7.816511106E-1,1.126208593E0
7.246185250E0,-4.975553674E-1,-4.247206950E-1,9.898008782E-1,1.186446287E0
7.256253250E0,-5.685803264E-1,2.226034999E-3,1.079233457E0,1.219849744E0
7.266320250E0,-5.932555765E-1,5.071477246E-1,9.942558718E-1,1.263999894E0
7.276388250E0,-6.517704177E-1,1.053151367E0,6.397017646E-1,1.393969450E0
7.286456250E0,-7.361053938E-1,1.610454753E0,1.274955954E-1,1.775294564E0
7.296523250E0,-6.723257196E-1,2.001077410E0,-3.297847170E-1,2.136607272E0
7.306591250E0,-4.857328820E-1,2.283787363E0,-6.699722153E-1,2.429091172E0
7.316658250E0,-3.440776509E-1,2.546817343E0,-8.420797455E-1,2.704397586E0
7.326726250E0,-3.604334825E-1,2.575644116E0,-9.551333213E-1,2.770583796E0
7.336794250E0,-5.554445565E-1,2.360763618E0,-9.463356006E-1,2.603319916E0
7.346861250E0,-8.746271020E-1,2.147514494E0,-8.442765445E-1,2.467710265E0
7.356929250E0,-9.733865744E-1,1.995496243E0,-7.149724600E-1,2.332524876E0
7.366997250E0,-1.032154015E0,1.882214625E0,-5.301799071E-1,2.211145527E0
7.377064250E0,-1.090848366E0,1.783903635E0,-3.465960467E-1,2.119526163E0
7.387132250E0,-1.038283651E0,1.666789168E0,-2.765522138E-1,1.983103678E0
7.397200250E0,-9.690029168E-1,1.509382122E0,-2.828636984E-1,1.815822931E0
7.407267250E0,-9.412724966E-1,1.302370223E0,-2.336611694E-1,1.623810227E0
7.417335250E0,-1.008255275E0,1.169235554E0,-1.680478450E-1,1.553039137E0
7.427403250E0,-9.432640582E-1,1.141802173E0,-5.942585567E-2,1.482224921E0
7.437470250E0,-6.988165301E-1,1.063882762E0,3.389751513E-2,1.273318544E0
7.447538250E0,-4.699904233E-1,9.258498806E-1,1.043751200E-1,1.043543562E0
7.457606250E0,-3.375784707E-1,9.354141712E-1,1.072151309E-1,1.000226964E0
7.467673250E0,-1.671759886E-1,1.081629061E0,4.381907064E-2,1.095348962E0
7.477741250E0,1.266202855E-1,1.102585482E0,-1.160760015E-1,1.115885783E0
7.487808250E0,4.569768602E-1,8.750188655E-1,-3.921434812E-1,1.062196957E0
7.497876250E0,7.353645515E-1,4.465506899E-1,-6.381861663E-1,1.071190984E0
7.507944250E0,1.020360766E0,2.441738784E-2,-8.047534597E-1,1.299753989E0
7.518011250E0,1.266954222E0,-3.569175518E-1,-8.140043396E-1,1.547632452E0
7.528079250E0,1.446024032E0,-7.457252330E-1,-7.386951256E-1,1.786830186E0
7.538147250E0,1.546475689E0,-1.144143398E0,-5.468655582E-1,1.999928276E0
7.548214250E0,1.415065949E0,-1.307346788E0,-1.959846719E-1,1.936485801E0
7.558282250E0,1.147911928E0,-1.197346628E0,2.315450255E-1,1.674799642E0
7.568350250E0,1.296251112E0,-1.043359619E0,5.170295191E-1,1.742465427E0
7.578417250E0,1.577495753E0,-1.045710785E0,7.667699468E-1,2.042043106E0
7.588485250E0,1.794487680E0,-1.301732292E0,9.536013508E-1,2.413306555E0
7.598553250E0,2.152226765E0,-1.922732322E0,8.936229515E-1,3.021182154E0
7.608620250E0,2.107295006E0,-2.498539222E0,7.380285430E-1,3.350832227E0
7.618688250E0,1.839303079E0,-2.807255836E0,6.497139519E-1,3.418457162E0
7.628756250E0,1.521129178E0,-2.755426701E0,4.866497254E-1,3.184813690E0
7.638823250E0,1.201247306E0,-2.186131260E0,4.144506454E-1,2.528623008E0
7.648891250E0,8.726361251E-1,-1.177455570E0,4.381780253E-1,1.529671667E0
7.658958250E0,6.190716183E-1,4.379330635E-2,5.241747435E-1,8.123587164E-1
7.669026250E0,5.836959636E-1,1.124285084E0,4.732074883E-1,1.352273366E0
7.679094250E0,6.431264788E-1,1.573408549E0,2.146284094E-1,1.713269238E0
7.689161250E0,9.801564807E-1,1.274919884E0,-1.763906157E-1,1.617788950E0
7.699229250E0,1.271508619E0,6.615902317E-1,-6.031777167E-1,1.555075291E0
7.709297250E0,1.170758754E0,-3.950671256E-2,-8.135190207E-1,1.426201261E0
7.719364250E0,1.016031488E0,-9.342564225E-1,-9.281098294E-1,1.663292789E0
7.729432250E0,1.152807802E0,-1.879935966E0,-1.030886997E0,2.434307512E0
7.739500250E0,1.141591673E0,-2.585471531E0,-1.012958191E0,3.002328910E0
7.749567250E0,7.910610348E-1,-3.049828162E0,-8.343462181E-1,3.259350087E0
7.759635250E0,3.528771257E-1,-3.235283132E0,-5.387695034E-1,3.298765191E0
7.769703250E0,-8.104650199E-2,-2.981958945E0,-7.495070659E-2,2.984001558E0
7.779770250E0,-3.179990691E-1,-2.365126811E0,5.811693817E-1,2.456156772E0
7.789838250E0,-4.375003695E-1,-1.641162575E0,1.187796956E0,2.072602900E0
7.799906250E0,-4.491848606E-1,-8.745645368E-1,1.529445089E0,1.818194832E0
7.809973667E0,-4.319870299E-1,-1.724630409E-1,1.734566583E0,1.795850084E0
7.820041667E0,-4.604080063E-1,3.975223714E-1,1.819145388E0,1.918147416E0
7.830109667E0,-4.678304619E-1,8.707176536E-1,1.795330263E0,2.049445127E0
7.840176667E0,-6.692799050E-1,1.228808157E0,1.568668796E0,2.102053013E0
7.850244667E0,-9.345610625E-1,1.413141046E0,1.114942988E0,2.028169090E0
7.860311667E0,-1.230453563E0,1.521398735E0,5.820324673E-1,2.041428881E0
7.870379667E0,-1.457060652E0,1.559781613E0,4.743842404E-2,2.134992934E0
7.880447667E0,-1.564979787E0,1.563646622E0,-3.551119681E-1,2.240593003E0
7.890514667E0,-1.622529838E0,1.655411655E0,-6.716772634E-1,2.413325749E0
7.900582667E0,-1.706026908E0,1.733541566E0,-8.427907670E-1,2.574099930E0
7.910650667E0,-1.750275128E0,1.682949702E0,-9.195413196E-1,2.596408859E0
7.920717667E0,-1.722191536E0,1.592763417E0,-9.176001171E-1,2.518894393E0
7.930785667E0,-1.756183739E0,1.522917257E0,-7.504363346E-1,2.442665141E0
7.940853667E0,-1.732119523E0,1.449904829E0,-4.602776134E-1,2.305280360E0
7.950920667E0,-1.618822703E0,1.343793653E0,-1.892691447E-1,2.112389911E0
7.960988667E0,-1.540671158E0,1.203898433E0,-5.069652915E-2,1.955916459E0
7.971056667E0,-1.495313721E0,9.344832945E-1,-1.442445975E-2,1.763357655E0
7.981123667E0,-1.510972565E0,5.100385880E-1,-8.763806820E-2,1.597140534E0
7.991191667E0,-1.506718715E0,1.106989020E-1,-1.707170624E-1,1.520394636E0
8.001258667E0,-1.463729986E0,-1.967664081E-1,-2.045350553E-1,1.490991979E0
8.011326667E0,-1.355974572E0,-4.871742207E-1,-2.082755192E-1,1.455810583E0
8.021394667E0,-1.054054177E0,-7.897144210E-1,-2.420782729E-1,1.339134409E0
8.031461667E0,-6.941095215E-1,-1.067804489E0,-2.310141349E-1,1.294357750E0
8.041529667E0,-4.499181014E-1,-1.373824368E0,-2.366531897E-1,1.464863278E0
8.051597667E0,-2.962474269E-1,-1.631395971E0,-1.999385591E-1,1.670087058E0
8.061664667E0,-8.398238897E-2,-1.774307769E0,-1.280920297E-1,1.780906698E0
8.071732667E0,5.231269956E-2,-1.856278716E0,-5.696770448E-2,1.857889289E0
8.081800667E0,1.052650845E-1,-1.883585798E0,5.072163563E-2,1.887206634E0
8.091867667E0,1.456640822E-1,-1.895562065E0,1.164759145E-1,1.904715255E0
8.101935667E0,2.220100075E-1,-1.871382074E0,1.904180678E-1,1.894100934E0
8.112003667E0,3.202017152E-1,-1.891864285E0,2.885267268E-1,1.940342054E0
8.122070667E0,3.792392975E-1,-1.937372580E0,3.422281766E-1,2.003585557E0
8.132138667E0,4.252182931E-1,-2.066852739E0,3.358763462E-1,2.136703948E0
8.142206667E0,4.210983449E-1,-2.350068476E0,3.342011189E-1,2.410774989E0
8.152273667E0,4.836395788E-1,-2.679359688E0,4.667604214E-1,2.762379567E0
8.162341667E0,5.521245074E-1,-2.874202362E0,7.449411213E-1,3.020069199E0
8.172409667E0,5.357587355E-1,-2.802571632E0,1.008727731E0,3.026380149E0
8.182476667E0,5.087393367E-1,-2.657802173E0,1.226597909E0,2.971072287E0
8.192544667E0,5.501750457E-1,-2.644142493E0,1.302323445E0,2.998370968E0
8.202611667E0,5.593844104E-1,-2.657943091E0,1.157721217E0,2.952607460E0
8.212679667E0,6.302953488E-1,-2.709174641E0,9.128825104E-1,2.927499605E0
8.222747667E0,5.676441872E-1,-2.595854432E0,5.362680280E-1,2.710768074E0
8.232814667E0,3.327808303E-1,-2.304680634E0,8.103304426E-2,2.329991901E0
8.242882667E0,9.311515510E-2,-2.032121447E0,-2.768411211E-1,2.053004875E0
8.252950667E0,-1.748001730E-1,-1.635294895E0,-4.283062077E-1,1.699467770E0
8.263017667E0,-3.931276041E-1,-1.047935650E0,-2.572921067E-1,1.148441408E0
8.273085667E0,-3.876581186E-1,-3.126535445E-1,2.434938473E-1,5.543647802E-1
8.283153667E0,-2.667534864E-1,5.810454208E-1,8.404723459E-1,1.056013716E0
8.293220667E0,-2.850751519E-1,1.522118527E0,1.253510889E0,1.992335866E0
8.303288667E0,-3.415803051E-1,2.171556491E0,1.472119571E0,2.645651286E0
8.313356667E0,-1.471527833E-1,2.367571532E0,1.472857490E0,2.792195925E0
8.323423667E0,5.769798517E-2,2.316597844E0,1.267724301E0,2.641416198E0
8.333491667E0,7.991155744E-2,2.012273659E0,9.673715436E-1,2.234152823E0
8.343559667E0,-5.132393539E-2,1.429849464E0,6.670807672E-1,1.578638777E0
8.353626667E0,-2.028153527E-1,6.883389044E-1,2.698256135E-1,7.666487959E-1
8.363694667E0,-2.018388677E-1,-1.100644791E-1,-1.231183881E-1,2.607896768E-1
8.373761667E0,-8.949806750E-2,-7.498481047E-1,-3.364347553E-1,8.267227037E-1
8.383829667E0,-8.686798990E-2,-1.023100771E0,-3.885369551E-1,1.097835234E0
8.393897667E0,-2.091233289E-1,-9.923941183E-1,-3.559983695E-1,1.074855103E0
8.403964667E0,-1.991737068E-1,-8.011176610E-1,-2.886951631E-1,8.745310569E-1
8.414032667E0,-1.528701907E-1,-4.959976691E-1,-2.199155349E-1,5.636894761E-1
8.424100667E0,-1.806503123E-1,-2.117709482E-1,-8.303982695E-2,2.904773359E-1
8.434167667E0,-2.605969530E-1,4.534808099E-2,1.373733060E-1,2.980581245E-1
8.444235667E0,-2.991885763E-1,3.148181838E-1,4.166638166E-1,6.018579808E-1
8.454303667E0,-3.352413386E-1,5.119126207E-1,6.401794821E-1,8.855907947E-1
8.464370667E0,-3.349039543E-1,5.678587800E-1,7.096408957E-1,9.686147085E-1
8.474438667E0,-3.526917690E-1,5.722202182E-1,6.456752801E-1,9.320536623E-1
8.484506667E0,-4.129040569E-1,6.534544158E-1,4.733788848E-1,9.064105043E-1
8.494573667E0,-3.762981480E-1,7.991190827E-1,2.124123877E-1,9.084660847E-1
8.504641667E0,-2.635913122E-1,9.641637611E-1,-9.123118222E-2,1.003700785E0
8.514709667E0,-1.850140893E-1,1.161203234E0,-4.878986907E-1,1.273054711E0
8.524776667E0,-8.892913342E-2,1.311211213E0,-8.632554370E-1,1.572384554E0
8.534844667E0,-7.343576610E-2,1.444288579E0,-1.040316728E0,1.781466027E0
8.544912667E0,-5.622507155E-2,1.636248575E0,-1.047269068E0,1.943513097E0
8.554979667E0,-1.974955559E-2,1.866255820E0,-9.754378507E-1,2.105891695E0
8.565047667E0,1.543431044E-2,2.029687836E0,-8.489829683E-1,2.200146134E0
8.575114667E0,9.755494595E-3,2.151447916E0,-7.232356721E-1,2.269778214E0
8.585182667E0,-6.710089266E-2,2.290132762E0,-6.218548930E-1,2.374008025E0
8.595250667E0,-1.612527591E-1,2.421590449E0,-5.433572288E-1,2.487034345E0
8.605317667E0,-1.944585121E-1,2.423054591E0,-5.495576163E-1,2.492192055E0
8.615385667E0,-2.460484958E-1,2.324338973E0,-6.227512711E-1,2.418865575E0
8.625453667E0,-2.701969117E-1,2.332101152E0,-6.869776726E-1,2.446148090E0
8.635520667E0,-1.376381940E-1,2.345485429E0,-7.739900887E-1,2.473723272E0
8.645588667E0,7.597053409E-2,2.226316835E0,-8.848427725E-1,2.396915706E0
8.655656667E0,2.289290178E-1,2.087161288E0,-9.752348793E-1,2.315109891E0
8.665723667E0,2.755938917E-1,1.981113846E0,-1.049291620E0,2.258711351E0
8.675791667E0,3.493401450E-1,1.869988682E0,-1.022428342E0,2.159688848E0
8.685859667E0,5.655748576E-1,1.673029316E0,-8.599698865E-1,1.964293822E0
8.695926667E0,6.963583606E-1,1.473801815E0,-6.198925674E-1,1.743924755E0
8.705994667E0,7.410936534E-1,1.447878184E0,-3.624280409E-1,1.666410851E0
8.716061667E0,8.049423248E-1,1.550902031E0,-1.629584284E-1,1.754931539E0
8.726129667E0,8.154696518E-1,1.565090300E0,-1.017000737E-1,1.767722067E0
8.736197667E0,8.777810901E-1,1.447313343E0,-1.884335411E-1,1.703150832E0
8.746264667E0,1.055844010E0,1.165485735E0,-3.674483506E-1,1.614986644E0
8.756332667E0,1.244735388E0,7.805378008E-1,-4.741623751E-1,1.543837881E0
8.766400667E0,1.505104299E0,3.106105274E-1,-5.534202870E-1,1.633429480E0
8.776467667E0,1.780136858E0,-2.075890195E-1,-5.898869590E-1,1.886782197E0
8.786535667E0,1.909171459E0,-6.212263173E-1,-5.422766634E-1,2.079644628E0
8.796603667E0,1.976584008E0,-9.264948285E-1,-4.303223276E-1,2.224961643E0
8.806670792E0,2.199866370E0,-1.373273560E0,-4.388054681E-1,2.630179187E0
8.816738792E0,2.456045167E0,-2.002713461E0,-6.004932966E-1,3.225462954E0
8.826806792E0,2.620620899E0,-2.601104647E0,-5.162307894E-1,3.728256095E0
8.836873792E0,2.717155505E0,-2.935788746E0,-2.080983851E-1,4.005632851E0
8.846941792E0,2.622492592E0,-2.839136610E0,1.795048428E-1,3.869158316E0
8.857009792E0,2.345578399E0,-2.257700595E0,6.804796618E-1,3.325958896E0
8.867076792E0,2.188639716E0,-1.332817844E0,1.183833713E0,2.822766280E0
8.877144792E0,1.868050330E0,-3.364511275E-1,1.331465383E0,2.318536492E0
8.887211792E0,1.520137491E0,5.400307113E-1,1.165127885E0,1.989968379E0
8.897279792E0,1.198580391E0,1.113296996E0,8.625859308E-1,1.849345734E0
8.907347792E0,8.458061761E-1,1.466386961E0,4.364069037E-1,1.748178993E0
8.917414792E0,5.822172028E-1,1.572513340E0,7.123070799E-2,1.678347071E0
8.927482792E0,2.193466008E-1,1.291370441E0,-1.171173906E-1,1.315092023E0
8.937550792E0,-3.254226941E-1,8.095078307E-1,-1.997702324E-1,8.950480454E-1
8.947617792E0,-6.046184707E-1,2.959860563E-1,-3.075109184E-1,7.400906739E-1
8.957685792E0,-7.616618192E-1,-2.121627116E-1,-3.817302845E-1,8.779861919E-1
8.967753792E0,-9.029030675E-1,-7.376601684E-1,-4.546666253E-1,1.251438458E0
8.977820792E0,-9.828321666E-1,-1.238313391E0,-5.189070600E-1,1.663924174E0
8.987888792E0,-1.075481299E0,-1.582524358E0,-5.245314968E-1,1.983980005E0
8.997956792E0,-1.253734252E0,-1.689345387E0,-4.053599062E-1,2.142441146E0
9.008023792E0,-1.381892356E0,-1.668165017E0,-1.339100093E-1,2.170330136E0
9.018091792E0,-1.457493346E0,-1.676573898E0,2.739788542E-1,2.238359064E0
9.028159792E0,-1.694199745E0,-1.622608775E0,7.407417241E-1,2.460054942E0
9.038226792E0,-1.927818230E0,-1.432792368E0,1.288874849E0,2.725908192E0
9.048294792E0,-2.041999733E0,-1.213527043E0,1.684372914E0,2.911962038E0
9.058361792E0,-2.080718241E0,-1.035769349E0,1.910901650E0,3.008945274E0
9.068429792E0,-2.059043782E0,-8.522158939E-1,2.037960477E0,3.019803989E0
9.078497792E0,-1.971237899E0,-5.436080378E-1,1.797742825E0,2.722713319E0
9.088564792E0,-1.850162528E0,-1.852620113E-1,1.202806100E0,2.214535145E0
9.098632792E0,-1.751090814E0,1.169659477E-1,5.628242908E-1,1.843033167E0
9.108700792E0,-1.592400305E0,3.574765456E-1,8.570673287E-2,1.634280838E0
9.118767792E0,-1.385539849E0,6.030970252E-1,-1.728080267E-1,1.520956708E0
9.128835792E0,-1.137464708E0,8.563504601E-1,-2.373770019E-1,1.443436841E0
9.138903792E0,-8.553564334E-1,1.134665061E0,-7.403795622E-2,1.422877735E0
9.148970792E0,-6.559757352E-1,1.331951287E0,2.006659527E-1,1.498220685E0
9.159038792E0,-5.532354784E-1,1.458749912E0,5.203542824E-1,1.644624389E0
9.169106792E0,-5.426590347E-1,1.578192156E0,8.050066441E-1,1.852890986E0
9.179173792E0,-6.332201260E-1,1.605272951E0,9.107582170E-1,1.951243066E0
9.189241792E0,-7.401545906E-1,1.496340492E0,8.563218087E-1,1.876206472E0
9.199308792E0,-8.229839087E-1,1.381781843E0,6.857135046E-1,1.748378273E0
9.209376792E0,-8.557481968E-1,1.333501384E0,4.970542244E-1,1.660600439E0
9.219444792E0,-8.531356609E-1,1.324754534E0,2.876221991E-1,1.601730801E0
9.229511792E0,-6.975441760E-1,1.279749684E0,1.192071855E-2,1.457555912E0
9.239579792E0,-5.529074496E-1,1.232993594E0,-2.014921278E-1,1.366227993E0
9.249647792E0,-4.624673957E-1,1.206146103E0,-3.228358859E-1,1.331498225E0
9.259714792E0,-3.947911370E-1,1.172070869E0,-4.912223577E-1,1.330755263E0
9.269782792E0,-4.015458405E-1,1.141468881E0,-6.639378887E-1,1.380218747E0
9.279850792E0,-4.945323569E-1,1.187084180E0,-6.862841928E-1,1.457640935E0
9.289917792E0,-5.466509289E-1,1.182950783E0,-5.715975263E-1,1.422998077E0
9.299985792E0,-4.814796174E-1,1.048853663E0,-3.796854401E-1,1.214939366E0
9.310053792E0,-3.420767337E-1,7.868867075E-1,-2.283594990E-1,8.878937116E-1
9.320120792E0,-1.408588403E-1,3.886223245E-1,-2.212703347E-1,4.688593446E-1
9.330188792E0,-7.508409619E-3,-2.032006842E-1,-3.900433075E-1,4.398643836E-1
9.340255792E0,3.199888766E-2,-7.447048938E-1,-6.014809278E-1,9.578040584E-1
9.350323792E0,1.458587945E-2,-1.062983460E0,-7.140035033E-1,1.280604383E0
9.360391792E0,8.849702418E-2,-1.254535906E0,-7.015051530E-1,1.440069978E0
9.370458792E0,1.814028490E-1,-1.454178559E0,-6.280378119E-1,1.594356851E0
9.380526792E0,3.389589983E-1,-1.714195468E0,-5.446131011E-1,1.830290342E0
9.390594792E0,5.980736822E-1,-2.137822149E0,-4.757949178E-1,2.270320787E0
9.400661792E0,8.877967858E-1,-2.794935753E0,-4.435697429E-1,2.965906794E0
9.410729792E0,1.230792117E0,-3.642075679E0,-4.717024515E-1,3.873250274E0
9.420797792E0,1.272933585E0,-4.385183113E0,-4.047331943E-1,4.584102945E0
9.430864792E0,9.777035737E-1,-4.666989672E0,-7.311588686E-2,4.768861794E0
9.440932792E0,5.563970679E-1,-4.491924035E0,3.488057460E-1,4.539672310E0
9.451000792E0,3.557796836E-2,-3.882247723E0,9.219012558E-1,3.990365284E0
9.461067792E0,-3.879019475E-1,-2.709669900E0,1.640307713E0,3.191142159E0
9.471135792E0,-5.054660654E-1,-1.290545399E0,2.254830197E0,2.646745660E0
9.481203792E0,-5.229334527E-1,3.765256047E-2,2.530434029E0,2.584177526E0
9.491270792E0,-3.529332590E-1,1.031362302E0,2.513858927E0,2.740028611E0
9.501338792E0,2.043537551E-1,1.654454466E0,2.208866404E0,2.767321960E0
9.511405792E0,8.780266732E-1,1.879161209E0,1.454808304E0,2.533504469E0
9.521473792E0,1.338506016E0,1.808659576E0,4.011008674E-1,2.285548013E0
9.531541792E0,1.682185471E0,1.499565232E0,-6.701721901E-1,2.351079456E0
9.541608792E0,1.766640900E0,8.809602213E-1,-1.589980143E0,2.534787532E0
9.551676792E0,1.542609510E0,8.532257080E-2,-2.209741148E0,2.696271496E0
9.561744792E0,1.165573443E0,-6.711112529E-1,-2.359631013E0,2.716028402E0
9.571811792E0,8.929709870E-1,-1.156064701E0,-2.098588502E0,2.556942799E0
9.581879792E0,6.549302530E-1,-1.189906046E0,-1.456081243E0,1.991226412E0
9.591947792E0,4.355912536E-1,-1.160943618E0,-5.909828003E-1,1.373604927E0
9.602014792E0,2.067750871E-1,-1.209353886E0,1.807731038E-1,1.240149859E0
9.612082792E0,-1.035857642E-1,-1.201712744E0,7.437032658E-1,1.417017317E0
9.622150792E0,-3.914137852E-1,-1.068006218E0,1.088898904E0,1.574656425E0
9.632217792E0,-6.525837654E-1,-7.822539586E-1,1.088812950E0,1.491073596E0
9.642285792E0,-9.163949329E-1,-4.457098603E-1,7.908727545E-1,1.289928938E0
9.652352792E0,-1.203295001E0,-1.921851146E-1,2.422681978E-1,1.242396015E0
9.662420792E0,-1.562014664E0,5.150402963E-2,-3.026267757E-1,1.591893666E0
9.672488792E0,-1.866115487E0,3.139908028E-1,-6.708147991E-1,2.007727503E0
9.682555792E0,-2.037233668E0,6.296626800E-1,-7.987548012E-1,2.277016763E0
9.692623792E0,-2.192835093E0,9.663950586E-1,-7.948213792E-1,2.524715069E0
9.702691792E0,-2.225328071E0,1.166340598E0,-8.430620778E-1,2.650130012E0
9.712758792E0,-2.128772414E0,1.268392637E0,-9.515570911E-1,2.654421362E0
9.722826792E0,-2.107613094E0,1.420621973E0,-1.056894754E0,2.752676201E0
9.732894792E0,-2.018265885E0,1.547893054E0,-1.072679898E0,2.760436968E0
9.742961792E0,-1.824077514E0,1.589161533E0,-1.109377023E0,2.661467741E0
9.753029792E0,-1.556993660E0,1.627229830E0,-9.678790820E-1,2.451304978E0
9.763097792E0,-1.340129787E0,1.784483094E0,-7.558339725E-1,2.356186061E0
9.773164792E0,-1.103633303E0,1.935554681E0,-6.031549126E-1,2.308283830E0
9.783232792E0,-8.119993293E-1,2.040883500E0,-4.722644055E-1,2.246682452E0
9.793299792E0,-5.861056012E-1,2.193374206E0,-4.079023852E-1,2.306684751E0
9.803367792E0,-5.419146842E-1,2.368000132E0,-5.095409169E-1,2.482081404E0
9.813435250E0,-7.120365000E-1,2.506121891E0,-8.511527970E-1,2.740821774E0
9.823502250E0,-9.516168058E-1,2.702115882E0,-1.378689251E0,3.179274891E0
9.833570250E0,-1.155208084E0,2.813924586E0,-1.848710665E0,3.559551715E0
9.843638250E0,-1.299710909E0,2.617371016E0,-2.158232440E0,3.632884082E0
9.853705250E0,-1.291107901E0,2.270498396E0,-2.316683214E0,3.491295417E0
9.863773250E0,-1.125128253E0,1.825924650E0,-2.420584143E0,3.234059678E0
9.873841250E0,-6.941188771E-1,1.151995624E0,-2.226058972E0,2.600814004E0
9.883908250E0,-2.846307635E-1,4.370109576E-1,-1.613380115E0,1.695579147E0
9.893976250E0,2.247377336E-2,-3.866412878E-2,-8.284055932E-1,8.296118443E-1
9.904044250E0,3.321382213E-1,-2.874286562E-1,-2.069172841E-1,4.855366030E-1
9.914111250E0,8.468709540E-1,-3.210442990E-1,3.218394838E-1,9.611662229E-1
9.924179250E0,1.378289886E0,-2.475021136E-1,4.727420499E-1,1.477980160E0
9.934246250E0,1.847920121E0,-3.787937397E-1,1.574684411E-1,1.892905117E0
9.944314250E0,2.418882018E0,-6.822420126E-1,-2.263773294E-1,2.523428437E0
9.954382250E0,2.837928575E0,-9.438201284E-1,-5.017309006E-1,3.032551554E0
9.964449250E0,2.940708593E0,-9.445913762E-1,-5.385519505E-1,3.135292347E0
9.974517250E0,2.895523649E0,-7.648760337E-1,-4.467846151E-1,3.027987623E0
9.984585250E0,2.968493977E0,-7.842250550E-1,-1.769303503E-1,3.075430015E0
9.994652250E0,3.187325438E0,-1.078820643E0,-5.184378941E-2,3.365350681E0
1.000472025E1,3.295657387E0,-1.572986380E0,-2.100711991E-1,3.657837295E0
1.001478825E1,3.207258012E0,-2.396048056E0,-3.234597472E-1,4.016488074E0
1.002485525E1,2.978755841E0,-3.455284621E0,-2.279180707E-1,4.567704545E0
1.003492325E1,2.653151298E0,-4.238656567E0,2.254458680E-1,5.005621554E0
1.004499125E1,2.081362604E0,-4.511954257E0,8.904163384E-1,5.048033554E0
1.005505825E1,1.441437476E0,-4.531187503E0,1.678244448E0,5.042410794E0
1.006512625E1,9.172129583E-1,-4.237029871E0,2.387125205E0,4.948946200E0
1.007519425E1,4.819210821E-1,-3.340215510E0,2.867390356E0,4.428455152E0
1.008526125E1,2.467326200E-1,-1.809745989E0,3.024399791E0,3.533136231E0
1.009532925E1,1.643324876E-1,-1.435532373E-1,2.805984651E0,2.814455998E0
1.010539625E1,5.392419219E-2,9.797822589E-1,2.298310093E0,2.499021884E0
1.011546425E1,2.734064484E-1,1.323286883E0,1.729326308E0,2.194631801E0
1.012553225E1,3.706795585E-1,1.113850143E0,1.087242973E0,1.600050861E0
1.013559925E1,1.914787710E-1,4.452485150E-1,2.817586477E-1,5.606231314E-1
1.014566725E1,-8.431509554E-2,-4.824631190E-1,-4.305626482E-1,6.521226039E-1
1.015573525E1,-3.295981908E-1,-1.170023759E0,-8.343327695E-1,1.474347901E0
1.016580225E1,-8.361255258E-1,-1.545057154E0,-1.087211983E0,2.065995499E0
1.017587025E1,-1.476223732E0,-1.867562672E0,-1.132172978E0,2.636065723E0
1.018593825E1,-2.078460047E0,-2.170481772E0,-9.900593251E-1,3.164048792E0
1.019600525E1,-2.550808652E0,-2.233732274E0,-7.887870526E-1,3.481144878E0
1.020607325E1,-2.829510924E0,-2.099922836E0,-4.335126050E-1,3.550174808E0
1.021614125E1,-3.009461909E0,-1.772841287E0,3.580827557E-2,3.493008652E0
1.022620825E1,-2.854932863E0,-1.377447302E0,6.023637112E-1,3.226584071E0
1.023627625E1,-2.494972420E0,-8.763111001E-1,1.208766825E0,2.907563544E0
1.024634325E1,-2.240462419E0,-3.620841515E-1,1.518231883E0,2.730531969E0
1.025641125E1,-1.995645347E0,-1.005083746E-1,1.566481352E0,2.539008884E0
1.026647925E1,-1.636211153E0,1.157321852E-1,1.482397222E0,2.210900812E0
1.027654625E1,-1.317896919E0,3.758099055E-1,1.164383535E0,1.798297637E0
1.028661425E1,-1.114941233E0,5.944127405E-1,5.562983231E-1,1.380539128E0
1.029668225E1,-9.428535837E-1,7.900909817E-1,-1.848322409E-1,1.243937135E0
1.030674925E1,-8.579128361E-1,9.898149115E-1,-7.180784279E-1,1.493781986E0
1.031681725E1,-8.807362729E-1,1.174714395E0,-9.076942029E-1,1.726139930E0
1.032688525E1,-9.091888243E-1,1.422106581E0,-7.287478423E-1,1.838500711E0
1.033695225E1,-9.008594656E-1,1.637105777E0,-2.745969415E-1,1.888667939E0
1.034702025E1,-8.608984244E-1,1.744878733E0,2.005711913E-1,1.956010402E0
1.035708825E1,-8.887750250E-1,1.729730351E0,5.674558703E-1,2.025807073E0
1.036715525E1,-9.225923967E-1,1.715870696E0,7.814049429E-1,2.099043272E0
1.037722325E1,-9.304054463E-1,1.695231194E0,8.248544329E-1,2.102343438E0
1.038729125E1,-1.054244211E0,1.677649786E0,6.883207780E-1,2.097552182E0
1.039735825E1,-1.102134077E0,1.650139806E0,4.841991208E-1,2.042574280E0
1.040742625E1,-1.022293856E0,1.566562044E0,3.591815937E-1,1.904786808E0
1.041749425E1,-9.249616885E-1,1.523839948E0,2.432207457E-1,1.799110514E0
1.042756125E1,-7.831976992E-1,1.488214032E0,8.579498928E-2,1.683906298E0
1.043762925E1,-6.605026495E-1,1.400909255E0,-1.398408766E-1,1.555109630E0
1.044769625E1,-5.115957016E-1,1.240178652E0,-3.669344169E-1,1.390832167E0
1.045776425E1,-3.006860483E-1,1.001233939E0,-5.122945169E-1,1.164185197E0
1.046783225E1,5.169523358E-2,7.380723971E-1,-4.734046856E-1,8.783707969E-1
1.047789925E1,5.462585807E-1,4.337183905E-1,-3.369054927E-1,7.746066035E-1
1.048796725E1,8.890252858E-1,1.637617993E-1,-1.965868986E-1,9.251109633E-1
1.049803525E1,1.178061342E0,2.128854275E-2,-2.486353040E-2,1.178515983E0
1.050810225E1,1.548277801E0,-1.869734913E-1,1.048335234E-1,1.563046161E0
1.051817025E1,1.725834936E0,-3.910840023E-1,1.686213837E-1,1.777606845E0
1.052823825E1,1.813934349E0,-5.630827743E-1,2.000279850E-1,1.909824921E0
1.053830525E1,1.917731783E0,-8.231692654E-1,8.302991409E-2,2.088587273E0
1.054837325E1,1.850413374E0,-1.179178160E0,-8.197916944E-2,2.195725705E0
1.055844125E1,1.879501517E0,-1.513493299E0,-9.029391009E-2,2.414816952E0
1.056850825E1,1.891408787E0,-1.764773884E0,-3.350282807E-2,2.587078758E0
1.057857625E1,2.000469884E0,-1.954801961E0,-6.206464928E-2,2.797674478E0
1.058864325E1,2.194400393E0,-2.353285614E0,-2.274216787E-1,3.225688591E0
1.059871125E1,2.098769181E0,-2.792407417E0,-4.226741695E-1,3.518668030E0
1.060877925E1,1.644283234E0,-3.028623819E0,-6.129173873E-1,3.500271035E0
1.061884625E1,1.028139902E0,-3.126628416E0,-7.776983929E-1,3.381965656E0
1.062891425E1,8.778600276E-1,-3.086467400E0,-6.351906377E-1,3.271144507E0
1.063898225E1,9.195647085E-1,-2.793500261E0,-1.123367437E-1,2.943104230E0
1.064904925E1,1.130940970E0,-2.375381657E0,2.576341689E-1,2.643452451E0
1.065911725E1,1.623971177E0,-2.289446298E0,2.419986777E-1,2.817340962E0
1.066918525E1,2.027308019E0,-2.665875424E0,-4.519133907E-2,3.349464411E0
1.067925225E1,1.791597401E0,-2.946154690E0,-3.419925338E-1,3.465055208E0
1.068932025E1,1.113036211E0,-2.646024127E0,-3.513135803E-1,2.892008734E0
1.069938825E1,3.196164089E-1,-1.754876302E0,3.300928652E-2,1.784050195E0
1.070945525E1,-4.425365764E-1,-7.138093758E-1,6.760960042E-1,1.078178210E0
1.071952325E1,-1.108954854E0,1.276178205E-1,1.192789308E0,1.633650364E0
1.072959025E1,-1.664808131E0,7.809751725E-1,1.673651460E0,2.486486988E0
1.073965825E1,-1.901668897E0,1.348991243E0,2.046681014E0,3.102422463E0
1.074972625E1,-1.918001339E0,1.721794510E0,2.095142738E0,3.321585249E0
1.075979325E1,-2.006260967E0,2.008923204E0,1.682555600E0,3.300280117E0
1.076986125E1,-2.047831162E0,2.254108651E0,7.999891484E-1,3.148745927E0
1.077992925E1,-1.935208526E0,2.302504885E0,-1.441437878E-1,3.011202121E0
1.078999625E1,-1.862862096E0,2.114890539E0,-8.590992361E-1,2.946365333E0
1.080006425E1,-1.650827438E0,1.914324026E0,-1.388584494E0,2.884100311E0
1.081013279E1,-1.531456531E0,1.738561401E0,-1.745171678E0,2.900617009E0
1.082019979E1,-1.538043419E0,1.454376780E0,-1.805276962E0,2.782052172E0
1.083026779E1,-1.591576433E0,9.894693410E-1,-1.566520529E0,2.442570712E0
1.084033579E1,-1.715838536E0,5.881591433E-1,-1.021098685E0,2.081508007E0
1.085040279E1,-1.781081184E0,3.751035619E-1,-3.252595568E-1,1.848985301E0
1.086047079E1,-1.855092900E0,3.226534528E-1,2.468782522E-1,1.899058659E0
1.087053779E1,-1.794246190E0,2.676919645E-1,6.283277607E-1,1.919837012E0
1.088060579E1,-1.577927862E0,1.654417044E-1,7.633809006E-1,1.760675352E0
1.089067379E1,-1.497350891E0,6.952339411E-2,5.003883433E-1,1.580278991E0
1.090074079E1,-1.461222115E0,-6.898954332E-2,-2.007701794E-2,1.462987599E0
1.091080879E1,-1.480834846E0,-2.038555723E-1,-5.182024340E-1,1.582075440E0
1.092087679E1,-1.503448368E0,-3.199684113E-1,-8.127559590E-1,1.738766525E0
1.093094379E1,-1.320089040E0,-4.301884264E-1,-8.349239230E-1,1.620121944E0
1.094101179E1,-9.547474051E-1,-5.021623886E-1,-6.421862465E-1,1.255433330E0
1.095107979E1,-3.888065118E-1,-5.308307022E-1,-2.950704189E-1,7.211229369E-1
1.096114679E1,1.784225231E-1,-4.692168367E-1,-3.961956382E-2,5.035561006E-1
1.097121479E1,5.452780026E-1,-4.312368321E-1,2.848646522E-2,6.957763895E-1
1.098128179E1,6.416313457E-1,-4.875537050E-1,5.861190498E-2,8.079819023E-1
1.099134979E1,5.525577861E-1,-4.300749904E-1,9.665374383E-3,7.002699649E-1
1.100141779E1,5.255915970E-1,-3.507785600E-1,-1.469791575E-1,6.487642081E-1
1.101148479E1,5.128551918E-1,-3.084616756E-1,-2.232379228E-1,6.387520828E-1
1.102155279E1,4.541930008E-1,-2.698150885E-1,-1.727489698E-1,5.558180192E-1
1.103162079E1,3.105883080E-1,-1.841878778E-1,-1.389333888E-1,3.869014834E-1
1.104168779E1,1.195363837E-1,-1.963407308E-1,-2.029060211E-1,3.066096590E-1
1.105175579E1,1.063737166E-1,-2.170404589E-1,-1.889258766E-1,3.067815432E-1
1.106182379E1,1.380147547E-1,-1.133851129E-1,-1.299379591E-1,2.208803512E-1
1.107189079E1,1.568919057E-1,4.277647555E-2,-2.456848355E-1,2.946284700E-1
1.108195879E1,2.034468520E-1,2.023136616E-1,-3.983989056E-1,4.909614315E-1
1.109202579E1,2.405877811E-1,4.385382503E-1,-4.979535993E-1,7.058017175E-1
1.110209379E1,2.884858328E-1,8.090119869E-1,-5.273165621E-1,1.007862703E0
1.111216179E1,3.452734065E-1,1.097700718E0,-5.098749026E-1,1.258623458E0
1.112222879E1,4.588479692E-1,1.220101653E0,-4.313192413E-1,1.373035247E0
1.113229679E1,5.383139688E-1,1.263240071E0,-3.036634139E-1,1.406331709E0
1.114236479E1,5.545294672E-1,1.285889845E0,-1.789008619E-1,1.411744008E0
1.115243179E1,4.777023160E-1,1.115169275E0,-1.533362138E-1,1.222830327E0
1.116249979E1,3.093065983E-1,7.841706759E-1,-1.905537049E-1,8.642366199E-1
1.117256779E1,1.459125888E-1,4.960222274E-1,-2.880210157E-1,5.918484934E-1
1.118263479E1,4.171929896E-2,4.462250000E-1,-3.526508750E-1,5.702805364E-1
1.119270279E1,7.017009616E-2,6.036215204E-1,-3.623846984E-1,7.075347708E-1
1.120277079E1,9.952896595E-2,8.385369176E-1,-4.801932299E-1,9.714091390E-1
1.121283779E1,8.998631001E-2,1.041715382E0,-5.287707281E-1,1.171694054E0
1.122290579E1,4.898972690E-2,1.097366257E0,-5.151425860E-1,1.213253716E0
1.123297279E1,-3.416820467E-2,1.180077462E0,-4.796214088E-1,1.274279003E0
1.124304079E1,7.689848721E-2,1.221938263E0,-3.912845618E-1,1.285359912E0
1.125310879E1,2.022271228E-1,1.124259941E0,-4.153066778E-1,1.215457058E0
1.126317579E1,3.112338406E-1,8.388602686E-1,-5.625389832E-1,1.056883703E0
1.127324379E1,3.665040618E-1,5.089779031E-1,-6.436720971E-1,8.987199240E-1
1.128331179E1,4.301895958E-1,1.879376972E-1,-5.755911380E-1,7.427575813E-1
1.129337879E1,4.203048778E-1,-1.777881002E-1,-3.335076392E-1,5.652363614E-1
1.130344679E1,4.600057179E-1,-4.551612997E-1,-3.379690647E-3,6.471386957E-1
1.131351479E1,6.774426180E-1,-7.820300102E-1,2.109061450E-1,1.055926531E0
1.132358179E1,9.612144256E-1,-1.454090266E0,1.023227656E-1,1.746076064E0
1.133364979E1,1.411419041E0,-2.439432642E0,-1.335117408E-1,2.821482006E0
1.134371679E1,1.901952487E0,-3.501226194E0,-1.623613181E-1,3.987777491E0
1.135378479E1,2.145201336E0,-4.223808147E0,-1.230254173E-2,4.737361648E0
1.136385279E1,2.202717472E0,-4.164930779E0,5.960063260E-2,4.711917326E0
1.137391979E1,2.261352181E0,-3.420438139E0,-1.466048992E-1,4.102999360E0
1.138398779E1,2.201716429E0,-2.239463714E0,-4.249089388E-1,3.169116686E0
1.139405579E1,1.972745311E0,-7.488903308E-1,-3.672571466E-1,2.141830666E0
1.140412279E1,1.615610828E0,4.039320892E-1,4.484171212E-2,1.665944254E0
1.141419079E1,1.278063932E0,1.169043766E0,5.403177730E-1,1.814401840E0
1.142425879E1,9.743618900E-1,1.754744740E0,9.978296169E-1,2.241466961E0
1.143432579E1,7.262230146E-1,2.144574514E0,1.310381932E0,2.616046735E0
1.144439379E1,4.080795193E-1,2.217807966E0,1.119424878E0,2.517600669E0
1.145446079E1,-5.431946397E-2,1.948172387E0,5.552668011E-1,2.026486486E0
1.146452879E1,-5.466596997E-1,1.622283670E0,-1.802240503E-1,1.721372081E0
1.147459679E1,-7.740052915E-1,1.444140644E0,-7.748863938E-1,1.812477673E0
1.148466379E1,-8.942345703E-1,1.284538554E0,-1.237385437E0,1.995198608E0
1.149473179E1,-9.367935294E-1,9.789233029E-1,-1.594538047E0,2.092468526E0
1.150479979E1,-7.616717595E-1,5.632961977E-1,-1.700438139E0,1.946519032E0
1.151486679E1,-5.347167617E-1,3.265529609E-1,-1.602046457E0,1.720206878E0
1.152493479E1,-3.193298954E-1,2.155722231E-1,-1.549394034E0,1.596579105E0
1.153500279E1,-1.811180896E-1,9.895301521E-2,-1.492309422E0,1.506513482E0
1.154506979E1,-4.994106889E-2,-5.179872930E-2,-1.333008463E0,1.334948981E0
1.155513779E1,-5.370667577E-3,-2.848628980E-1,-9.852230930E-1,1.025592637E0
1.156520479E1,-1.537735856E-1,-6.213514477E-1,-5.341794026E-1,8.337095246E-1
1.157527279E1,-5.175797421E-1,-9.647145689E-1,-1.331522101E-1,1.102856518E0
1.158534079E1,-1.049815530E0,-1.141745455E0,3.414036826E-1,1.588159880E0
1.159540779E1,-1.348728118E0,-1.159943744E0,7.942998075E-1,1.948191266E0
1.160547579E1,-1.497792941E0,-1.007740136E0,1.201318642E0,2.168430389E0
1.161554379E1,-1.567423339E0,-7.152191395E-1,1.494260638E0,2.280607199E0
1.162561079E1,-1.550844144E0,-3.332070923E-1,1.529651495E0,2.203628422E0
1.163567879E1,-1.481930614E0,1.288679552E-1,1.423290642E0,2.058757282E0
1.164574679E1,-1.403584941E0,4.679175854E-1,1.195221165E0,1.901986117E0
1.165581379E1,-1.338756861E0,6.643588883E-1,8.232388473E-1,1.706272213E0
1.166588179E1,-1.387040244E0,7.597825241E-1,4.865696186E-1,1.654660121E0
1.167594879E1,-1.463243498E0,8.079922324E-1,2.710161066E-1,1.693334790E0
1.168601679E1,-1.417429978E0,7.615659249E-1,1.527327812E-1,1.616297529E0
1.169608479E1,-1.410880512E0,7.605578649E-1,9.966524262E-2,1.605915703E0
1.170615179E1,-1.443617318E0,9.168855143E-1,6.169397235E-2,1.711290786E0
1.171621979E1,-1.316074927E0,1.072055415E0,8.996405404E-2,1.699838097E0
1.172628779E1,-1.217432984E0,1.146771137E0,1.414897549E-1,1.678465507E0
1.173635479E1,-1.138290335E0,1.202359446E0,1.513797720E-1,1.662615097E0
1.174642279E1,-1.060245793E0,1.289403437E0,1.029361751E-1,1.672506569E0
1.175649079E1,-9.846108896E-1,1.316684207E0,4.444472272E-2,1.644716157E0
1.176655779E1,-8.222266942E-1,1.284133927E0,-5.837337513E-2,1.525930578E0
1.177662579E1,-7.386764145E-1,1.262413859E0,-2.291336703E-1,1.480484325E0
1.178669279E1,-7.152197242E-1,1.197183491E0,-5.148894382E-1,1.486572803E0
1.179676079E1,-7.127200395E-1,1.023313025E0,-8.096662903E-1,1.486841923E0
1.180682879E1,-6.413559419E-1,7.973631638E-1,-9.053676689E-1,1.366314779E0
1.181689537E1,-5.522864753E-1,6.461553365E-1,-8.260595441E-1,1.185289602E0
1.182696338E1,-3.283661824E-1,4.572768223E-1,-7.903546911E-1,9.703540487E-1
1.183703138E1,-1.127360719E-1,2.496825403E-1,-7.091590852E-1,7.602350958E-1
1.184709838E1,5.509246588E-3,3.011725366E-2,-4.839138498E-1,4.848814440E-1
1.185716638E1,2.018599176E-1,-3.536986595E-1,-2.292705317E-1,4.673490610E-1
1.186723438E1,3.854513794E-1,-9.292857045E-1,6.400417071E-2,1.008087903E0
1.187730138E1,4.270315146E-1,-1.541176357E0,3.904057252E-1,1.646206885E0
1.188736938E1,2.977717960E-1,-1.987448135E0,7.169651181E-1,2.133695647E0
1.189743638E1,2.739081395E-1,-2.234967206E0,1.095275293E0,2.503943299E0
1.190750438E1,4.141185236E-1,-2.450523641E0,1.444372194E0,2.874503662E0
1.191757238E1,2.155698842E-1,-2.448480039E0,1.663750370E0,2.968095377E0
1.192763938E1,2.141835093E-2,-2.316891375E0,1.715150903E0,2.882739497E0
1.193770738E1,1.512885189E-1,-2.402012216E0,1.340423902E0,2.754866084E0
1.194777538E1,3.591003174E-1,-2.720462106E0,6.746523267E-1,2.825778277E0
1.195784238E1,3.079588151E-1,-3.085291525E0,-1.260922819E-1,3.103185732E0
1.196791038E1,1.031302661E-1,-3.357971165E0,-6.751025623E-1,3.426714120E0
1.197797837E1,-1.202433121E-1,-3.454645520E0,-6.728841287E-1,3.521619964E0
1.198804538E1,-4.051301837E-1,-3.227542588E0,-3.321516699E-1,3.269783839E0
1.199811337E1,-6.199755979E-1,-2.657365971E0,1.267974561E-1,2.731673707E0
1.200818038E1,-6.988434273E-1,-1.952830279E0,5.623699621E-1,2.148997024E0
1.201824838E1,-8.500325435E-1,-1.164335588E0,9.480043960E-1,1.725382572E0
1.202831637E1,-9.907691771E-1,-4.505870229E-1,1.196640869E0,1.617591295E0
1.203838338E1,-1.000492512E0,1.082331312E-1,1.081684610E0,1.477410326E0
1.204845137E1,-1.010298877E0,5.052777851E-1,7.047748429E-1,1.331434204E0
1.205851938E1,-1.029087151E0,6.930272019E-1,2.719060894E-1,1.270133846E0
1.206858637E1,-1.065189030E0,6.035729885E-1,-2.340886009E-1,1.246485256E0
1.207865438E1,-1.087104394E0,3.866670156E-1,-7.198723537E-1,1.359971893E0
1.208872238E1,-1.030679932E0,1.747153884E-1,-9.814785361E-1,1.433920049E0
1.209878937E1,-8.413886046E-1,1.379533589E-2,-1.068162339E0,1.359814648E0
1.210885738E1,-4.922303081E-1,-1.981247163E-1,-1.093779575E0,1.215688216E0
1.211892437E1,-1.373668832E-1,-4.225835377E-1,-1.032435778E0,1.123997394E0
1.212899238E1,1.688933158E-1,-5.626161665E-1,-9.597691400E-1,1.125263838E0
1.213906038E1,3.986000133E-1,-6.528866512E-1,-8.503891506E-1,1.143811461E0
1.214912737E1,4.045945787E-1,-6.645992088E-1,-6.822145307E-1,1.034797346E0
1.215919538E1,3.540395522E-1,-4.507080603E-1,-5.905804753E-1,8.229623673E-1
1.216926338E1,2.497316569E-1,-1.673151523E-1,-6.512294772E-1,7.172587347E-1
1.217933038E1,1.686863244E-1,4.849797606E-2,-6.240668216E-1,6.482796676E-1
1.218939838E1,3.318587244E-2,3.171325117E-1,-6.481883403E-1,7.223727962E-1
1.219946638E1,-1.214706427E-1,5.956465030E-1,-7.708313497E-1,9.816979389E-1
1.220953338E1,-3.249853224E-1,8.263127285E-1,-9.712627926E-1,1.315963372E0
1.221960138E1,-5.268645358E-1,1.016570601E0,-1.148193764E0,1.621527350E0
1.222966838E1,-6.770034921E-1,1.113806289E0,-1.156077492E0,1.742243767E0
1.223973638E1,-8.178138006E-1,1.187450801E0,-1.155928534E0,1.847979868E0
1.224980438E1,-8.476293379E-1,1.306869655E0,-1.227481424E0,1.983203075E0
1.225987138E1,-8.735377657E-1,1.410291697E0,-1.238565406E0,2.070274176E0
1.226993938E1,-8.682963216E-1,1.495370439E0,-1.228945566E0,2.121409545E0
1.228000738E1,-8.296789706E-1,1.577451898E0,-1.213580838E0,2.156269959E0
1.229007438E1,-7.104407948E-1,1.598278511E0,-1.209812819E0,2.126703406E0
1.230014238E1,-6.137611771E-1,1.538534585E0,-1.210011697E0,2.051321467E0
1.231021037E1,-5.402710319E-1,1.453427192E0,-1.269560326E0,2.004027648E0
1.232027738E1,-5.046076941E-1,1.406280507E0,-1.337556428E0,2.005320670E0
1.233034537E1,-4.259550422E-1,1.360060607E0,-1.332091035E0,1.950812415E0
1.234041238E1,-3.701533091E-1,1.364331998E0,-1.276645398E0,1.904793622E0
1.235048038E1,-3.849210370E-1,1.378186390E0,-1.230242040E0,1.887076418E0
1.236054837E1,-4.024328631E-1,1.446491809E0,-1.159433355E0,1.896991426E0
1.237061538E1,-3.637055844E-1,1.462374601E0,-1.076877687E0,1.852157331E0
1.238068337E1,-3.466627049E-1,1.463791966E0,-1.023377929E0,1.819385704E0
1.239075138E1,-3.993203902E-1,1.468496636E0,-1.003133115E0,1.822694486E0
1.240081837E1,-3.189357930E-1,1.460792930E0,-9.885782985E-1,1.792462852E0
1.241088638E1,-1.771606940E-1,1.409186574E0,-9.649689958E-1,1.717078296E0
1.242095438E1,-6.576363444E-2,1.219704627E0,-1.021586927E0,1.592370586E0
1.243102137E1,9.077042162E-2,8.919792992E-1,-1.045875018E0,1.377577908E0
1.244108938E1,1.939036113E-1,5.736861151E-1,-9.490651540E-1,1.125805949E0
1.245115637E1,3.190562457E-1,2.832566679E-1,-9.058974266E-1,1.001339790E0
1.246122438E1,4.853592449E-1,-8.813742042E-2,-9.333116587E-1,1.055657356E0
1.247129238E1,5.859564972E-1,-5.436074531E-1,-9.977181543E-1,1.278395711E0
1.248135938E1,7.758062339E-1,-1.024356169E0,-9.382928286E-1,1.591092174E0
1.249142738E1,8.713854057E-1,-1.373010435E0,-7.562420350E-1,1.793424711E0
1.250149538E1,9.958112311E-1,-1.598225302E0,-6.143083303E-1,1.980741994E0
1.251156238E1,1.110279833E0,-1.730574104E0,-4.247949547E-1,2.099537757E0
1.252163038E1,1.030977556E0,-1.814920190E0,-2.067195386E-1,2.097518292E0
1.253169838E1,1.020385324E0,-1.862766786E0,-1.715770416E-1,2.130850767E0
1.254176538E1,1.208591409E0,-2.030428094E0,-3.742732573E-1,2.392365337E0
1.255183338E1,1.524707090E0,-2.438125205E0,-6.248112452E-1,2.942715636E0
1.256190038E1,1.596334312E0,-2.985291858E0,-8.012369442E-1,3.478826146E0
1.257196838E1,1.555073435E0,-3.476257998E0,-7.145754341E-1,3.874692389E0
1.258203638E1,1.685814838E0,-3.832976160E0,-4.782683265E-1,4.214548434E0
1.259210338E1,1.754010329E0,-3.850127798E0,-1.542437748E-1,4.233654147E0
1.260217138E1,1.667330620E0,-3.305471354E0,1.011487909E-1,3.703560901E0
1.261223937E1,1.368252556E0,-2.260558714E0,2.406409176E-1,2.653327874E0
1.262230638E1,1.017243615E0,-8.334720594E-1,1.837243398E-1,1.327861017E0
1.263237438E1,7.606379718E-1,4.620212531E-1,4.733364925E-2,8.912206443E-1
1.264244237E1,6.293270499E-1,1.222026556E0,-9.200601138E-2,1.377630773E0
1.265250938E1,7.859909141E-1,1.593808900E0,-2.785994337E-1,1.798784637E0
1.266257737E1,8.461248493E-1,1.624604430E0,-5.418977273E-1,1.910214638E0
1.267264438E1,7.016535991E-1,1.188778118E0,-1.034825023E0,1.725217093E0
1.268271237E1,1.983843327E-1,4.795161223E-1,-1.490827299E0,1.578562032E0
1.269278038E1,-1.122068989E-1,-3.969885206E-1,-1.893757468E0,1.938171205E0
1.270284738E1,-2.829689848E-1,-1.089247398E0,-2.158086845E0,2.433900197E0
1.271291537E1,-7.840601635E-1,-1.565101994E0,-2.214279757E0,2.822645821E0
1.272298338E1,-1.038673661E0,-2.012376570E0,-2.164826784E0,3.132886438E0
1.273305037E1,-1.075336872E0,-2.273676943E0,-2.012319267E0,3.221084454E0
1.274311838E1,-9.798880935E-1,-2.116274575E0,-1.733963735E0,2.906102026E0
1.275318638E1,-5.726312774E-1,-1.720421584E0,-1.298120466E0,2.229994115E0
1.276325338E1,-2.077001166E-1,-1.110138330E0,-7.243204768E-1,1.341710328E0
1.277332138E1,-1.330750269E-1,-3.842041683E-1,-3.308730300E-1,5.242125215E-1
1.278338837E1,-1.450893009E-1,1.804053140E-1,-1.406495831E-1,2.708861159E-1
1.279345638E1,-6.366389930E-2,6.745523393E-1,-1.220355568E-1,6.884523423E-1
1.280352438E1,-2.467583477E-2,1.172199508E0,-2.667498319E-1,1.202420915E0
1.281359200E1,-5.039715171E-3,1.474885889E0,-4.797804165E-1,1.550968417E0
1.282366000E1,-5.375637710E-2,1.603503583E0,-7.808869527E-1,1.784348038E0
1.283372800E1,-1.593337029E-1,1.703875133E0,-1.096694485E0,2.032564019E0
1.284379500E1,-2.793887347E-1,1.722673931E0,-1.428735570E0,2.255426538E0
1.285386300E1,-2.506145865E-1,1.673287763E0,-1.591705071E0,2.322977538E0
1.286393100E1,-1.603277296E-1,1.598680800E0,-1.555397955E0,2.236235247E0
1.287399800E1,-3.218196398E-1,1.480256556E0,-1.468369313E0,2.109700403E0
1.288406600E1,-6.386679769E-1,1.195825183E0,-1.405170121E0,1.952536228E0
1.289413300E1,-8.417470390E-1,8.773267615E-1,-1.329076942E0,1.801301152E0
1.290420100E1,-1.052803457E0,8.553318751E-1,-1.203397985E0,1.813326900E0
1.291426900E1,-1.211078230E0,1.013416028E0,-1.048972946E0,1.895802407E0
1.292433600E1,-1.201982886E0,1.129503139E0,-9.235618651E-1,1.890372111E0
1.293440400E1,-1.172490699E0,1.176208944E0,-9.236940122E-1,1.900371687E0
1.294447200E1,-1.198196229E0,1.137462954E0,-9.696894530E-1,1.915670590E0
1.295453900E1,-1.149832739E0,1.004877339E0,-9.143957698E-1,1.779891406E0
1.296460700E1,-9.733859897E-1,9.471062636E-1,-7.662870399E-1,1.559386542E0
1.297467500E1,-7.677119333E-1,1.005525210E0,-6.038349438E-1,1.401812827E0
1.298474200E1,-5.316493124E-1,1.078309597E0,-5.536016603E-1,1.323585047E0
1.299481000E1,-3.960132051E-1,1.161310823E0,-6.292895546E-1,1.378939676E0
1.300487700E1,-3.878738809E-1,1.208225373E0,-7.647982657E-1,1.481610977E0
1.301494500E1,-3.420673782E-1,1.211513262E0,-8.408448136E-1,1.513867391E0
1.302501300E1,-2.572236943E-1,1.134024206E0,-7.865382866E-1,1.403858043E0
1.303508000E1,-3.438595498E-1,1.026685115E0,-6.924997830E-1,1.285253930E0
1.304514800E1,-4.704102534E-1,8.736938864E-1,-6.561488859E-1,1.189604209E0
1.305521600E1,-3.806595862E-1,5.511386669E-1,-6.034093396E-1,9.015311319E-1
1.306528300E1,-3.002200252E-1,1.037670279E-1,-5.524748287E-1,6.372818026E-1
1.307535100E1,-2.312310666E-1,-3.521082169E-1,-5.159594786E-1,6.660797145E-1
1.308541900E1,-6.612499237E-2,-8.759988588E-1,-5.638949525E-1,1.043898478E0
1.309548600E1,1.225617331E-1,-1.404588323E0,-5.819500581E-1,1.525305086E0
1.310555400E1,2.458374113E-1,-1.773391510E0,-4.716035970E-1,1.851422003E0
1.311562100E1,3.600434732E-1,-1.955801250E0,-3.620748691E-1,2.021357970E0
1.312568900E1,4.742290699E-1,-2.125206782E0,-2.550268223E-1,2.192358492E0
1.313575700E1,3.938152367E-1,-2.215602397E0,-1.493297017E-1,2.255279092E0
1.314582400E1,3.681044447E-1,-2.127551515E0,-3.079852737E-2,2.159380671E0
1.315589200E1,5.431969786E-1,-1.994087064E0,6.204955615E-2,2.067678970E0
1.316596000E1,8.448408008E-1,-2.009361745E0,-6.509007175E-2,2.180717157E0
1.317602700E1,1.239003947E0,-2.355213441E0,-4.478932837E-1,2.698660691E0
1.318609500E1,1.380620586E0,-3.021225337E0,-8.380620506E-1,3.425823075E0
1.319616300E1,1.119207947E0,-3.565856638E0,-1.044830852E0,3.880674104E0
1.320623000E1,7.617278928E-1,-3.860391415E0,-9.365894616E-1,4.044755998E0
1.321629800E1,5.995308083E-1,-3.855161081E0,-2.156336188E-1,3.907454671E0
1.322636500E1,4.049307936E-1,-3.462504178E0,7.079165518E-1,3.557253150E0
1.323643300E1,8.275622785E-2,-2.753995303E0,1.417332914E0,3.098414322E0
1.324650100E1,-3.209396338E-1,-1.717616090E0,1.916568187E0,2.593538296E0
1.325656800E1,-6.919805503E-1,-4.255088997E-1,2.145518839E0,2.294154745E0
1.326663600E1,-8.176097327E-1,8.359056705E-1,1.951160899E0,2.274698402E0
1.327670400E1,-7.620939285E-1,1.911395740E0,1.384399642E0,2.480077257E0
1.328677100E1,-3.989227796E-1,2.601741409E0,6.750762498E-1,2.717337978E0
1.329683900E1,-2.551958799E-2,2.895169893E0,2.347364724E-2,2.895377518E0
1.330690600E1,2.434517473E-1,2.705154095E0,-7.422071095E-1,2.815670227E0
1.331697400E1,5.215967792E-1,2.079907233E0,-1.556216565E0,2.649506991E0
1.332704200E1,6.831676269E-1,1.361807755E0,-2.223788499E0,2.695639748E0
1.333710900E1,5.750274664E-1,7.041503602E-1,-2.732828382E0,2.880075569E0
1.334717700E1,3.276411277E-1,2.273549473E-1,-3.091350410E0,3.116967491E0
1.335724500E1,1.889147669E-1,-1.668584847E-1,-3.153140277E0,3.163198405E0
1.336731200E1,-1.369768739E-1,-6.074707425E-1,-2.921640823E0,2.987267726E0
1.337738000E1,-5.382595897E-1,-9.390897310E-1,-2.376482688E0,2.611375667E0
1.338744800E1,-9.221813375E-1,-1.126328101E0,-1.554292831E0,2.129520983E0
1.339751500E1,-1.320158622E0,-1.272416691E0,-7.617273080E-1,1.985470099E0
1.340758300E1,-1.668786576E0,-1.322806242E0,-2.568915725E-1,2.144914513E0
1.341765100E1,-1.980775293E0,-1.102118874E0,7.317790389E-2,2.267926758E0
1.342771800E1,-2.086274850E0,-7.005870670E-1,2.777339727E-1,2.218220266E0
1.343778600E1,-2.050973455E0,-9.868755162E-2,3.079728484E-1,2.076313710E0
1.344785300E1,-1.796523680E0,5.549791181E-1,1.829406667E-1,1.889170835E0
1.345792100E1,-1.428554306E0,1.141197571E0,-2.196097255E-2,1.828546304E0
1.346798900E1,-1.128251250E0,1.617745646E0,-1.941890285E-1,1.981858027E0
1.347805600E1,-9.327507645E-1,1.886095423E0,-2.476062306E-1,2.118652585E0
1.348812400E1,-6.973734373E-1,2.076988302E0,-2.418555305E-1,2.204246859E0
1.349819200E1,-3.991291863E-1,2.241803770E0,-3.150012016E-1,2.298741831E0
1.350825900E1,-1.054884481E-1,2.314446069E0,-4.082782515E-1,2.352547460E0
1.351832700E1,5.942408323E-2,2.246215494E0,-6.108346456E-1,2.328547666E0
1.352839400E1,1.097224170E-1,2.143070610E0,-8.899145743E-1,2.323088160E0
1.353846200E1,7.087117732E-2,1.985425583E0,-1.179320320E0,2.310353628E0
1.354853000E1,-4.947036803E-2,1.713267515E0,-1.365205572E0,2.191236899E0
1.355859700E1,-2.275069749E-1,1.315761516E0,-1.426643436E0,1.954046899E0
1.356866500E1,-4.479165995E-1,9.641105515E-1,-1.405696955E0,1.762419464E0
1.357873300E1,-6.651061624E-1,8.031250101E-1,-1.243711540E0,1.623020143E0
1.358880000E1,-7.295465720E-1,8.794978327E-1,-1.065973141E0,1.562707067E0
1.359886800E1,-6.072239900E-1,1.192893974E0,-9.262620362E-1,1.627783267E0
1.360893600E1,-5.809349084E-1,1.420468776E0,-8.896281338E-1,1.773881374E0
1.361900300E1,-4.251551431E-1,1.455475472E0,-8.882997195E-1,1.757339505E0
1.362907100E1,-1.435450512E-1,1.358156753E0,-8.823155328E-1,1.625938390E0
1.363913800E1,2.245857060E-2,1.151289865E0,-8.644044149E-1,1.439849899E0
1.364920600E1,2.568915725E-1,9.814171404E-1,-7.680178157E-1,1.272408837E0
1.365927400E1,4.814427799E-1,8.111853969E-1,-7.782702506E-1,1.222911886E0
1.366934100E1,7.749437696E-1,5.725634497E-1,-1.003948216E0,1.391502343E0
1.367940900E1,1.056485449E0,3.303653455E-1,-1.428604592E0,1.807266955E0
1.368947700E1,1.215723258E0,-7.436839700E-2,-1.821341017E0,2.191072066E0
1.369954400E1,1.294111031E0,-5.906231600E-1,-2.019764526E0,2.470426647E0
1.370961200E1,1.285882244E0,-9.874742711E-1,-1.914017047E0,2.508397863E0
1.371968000E1,1.388536547E0,-1.318287513E0,-1.522663342E0,2.446307291E0
1.372974700E1,1.756516446E0,-1.640313560E0,-1.008575776E0,2.606377504E0
1.373981500E1,2.029589018E0,-1.868200604E0,-5.946011670E-1,2.821870944E0
1.374988200E1,2.238948575E0,-2.049244434E0,-3.445449165E-1,3.054669322E0
1.375995000E1,2.753921628E0,-2.392520431E0,-2.608249944E-1,3.657358066E0
1.377001800E1,3.175574874E0,-2.834707344E0,-4.141020052E-1,4.276835510E0
1.378008500E1,3.281467364E0,-3.054507104E0,-6.369196594E-1,4.528102071E0
1.379015300E1,3.355210694E0,-3.051043214E0,-7.739990057E-1,4.600584523E0
1.380022100E1,3.508258640E0,-2.998439907E0,-7.496598975E-1,4.675522487E0
1.381028750E1,3.383649212E0,-2.617157593E0,-7.469046164E-1,4.342402833E0
1.382035550E1,3.033169445E0,-1.816863804E0,-7.154647225E-1,3.607353702E0
1.383042250E1,2.582004132E0,-8.057153267E-1,-6.361203450E-1,2.778591661E0
1.384049050E1,2.046383976E0,2.882244623E-1,-5.776440954E-1,2.145794356E0
1.385055850E1,1.650260258E0,1.168136863E0,-5.382150047E-1,2.092266245E0
1.386062550E1,1.564428395E0,1.717914882E0,-5.408393812E-1,2.385618365E0
1.387069350E1,1.540224431E0,2.027364737E0,-5.672639720E-1,2.608502921E0
1.388076150E1,1.512440801E0,2.010031836E0,-6.324171571E-1,2.593772661E0
1.389082850E1,1.498904496E0,1.625344103E0,-8.316296017E-1,2.362216319E0
1.390089650E1,1.274353874E0,1.067309230E0,-1.092309000E0,1.989036385E0
1.391096450E1,9.618044096E-1,5.303857291E-1,-1.438155288E0,1.809604204E0
1.392103150E1,7.857435769E-1,-6.908660710E-2,-1.764388991E0,1.932675461E0
1.393109950E1,6.628082067E-1,-6.825986928E-1,-1.725996319E0,1.970867572E0
1.394116650E1,3.915020782E-1,-1.037304828E0,-1.446309961E0,1.822385164E0
1.395123450E1,-1.760947466E-2,-1.287827613E0,-1.033619401E0,1.651417306E0
1.396130250E1,-2.680626780E-1,-1.549824974E0,-5.934223683E-1,1.681060724E0
1.397136950E1,-5.543025953E-1,-1.618408720E0,-1.906232502E-1,1.721288871E0
1.398143750E1,-7.667208302E-1,-1.532692632E0,2.306504381E-1,1.729221548E0
1.399150550E1,-8.302163297E-1,-1.241905335E0,5.820926571E-1,1.603252905E0
1.400157250E1,-7.766154885E-1,-7.521098077E-1,8.077109083E-1,1.349517577E0
1.401164050E1,-6.295755565E-1,-2.546994513E-1,1.040202050E0,1.242279154E0
1.402170850E1,-6.950585246E-1,3.153836095E-1,1.072336154E0,1.316236302E0
1.403177550E1,-8.028613007E-1,7.975607997E-1,9.025813975E-1,1.447529853E0
1.404184350E1,-9.109774876E-1,1.239569957E0,6.042875183E-1,1.652748337E0
1.405191050E1,-1.020244991E0,1.559341317E0,3.033079398E-1,1.887972694E0
1.406197850E1,-1.114823704E0,1.718106086E0,-4.525744915E-2,2.048601633E0
1.407204650E1,-1.205933264E0,1.849205924E0,-3.725226009E-1,2.238886034E0
1.408211350E1,-1.342451132E0,1.965379574E0,-6.026905706E-1,2.455224600E0
1.409218150E1,-1.410363033E0,1.924207574E0,-7.978420508E-1,2.515601441E0
1.410224950E1,-1.504478647E0,1.759581556E0,-1.018970883E0,2.529404063E0
1.411231650E1,-1.640519382E0,1.611054093E0,-1.242302361E0,2.613448734E0
1.412238450E1,-1.766680661E0,1.535833756E0,-1.283895945E0,2.669894133E0
1.413245150E1,-1.847409074E0,1.440576766E0,-1.157256437E0,2.612934015E0
1.414251950E1,-1.893050686E0,1.228362599E0,-9.187068488E-1,2.436501149E0
1.415258750E1,-1.917711318E0,9.773007005E-1,-6.000160541E-1,2.234446827E0
1.416265450E1,-2.002852625E0,8.018719518E-1,-3.101678932E-1,2.179592023E0
1.417272250E1,-2.130559323E0,7.268925208E-1,-1.747452823E-1,2.257917554E0
1.418279050E1,-2.263226214E0,6.747616696E-1,-1.908496837E-1,2.369371184E0
1.419285750E1,-2.382490118E0,5.840403646E-1,-1.999502901E-1,2.461166883E0
1.420292550E1,-2.468652933E0,5.389641792E-1,-1.039881257E-1,2.528941127E0
1.421299350E1,-2.538301458E0,5.018419611E-1,2.342511535E-2,2.587540991E0
1.422306050E1,-2.482103868E0,4.351877958E-1,1.826932564E-1,2.526579675E0
1.423312850E1,-2.243197746E0,2.843366486E-1,3.396764517E-1,2.286517778E0
1.424319550E1,-1.884372248E0,5.609000087E-2,4.730233010E-1,1.943645004E0
1.425326350E1,-1.500559258E0,-1.749943006E-1,5.053467091E-1,1.593008597E0
1.426333150E1,-1.207476345E0,-3.585845929E-1,4.190045301E-1,1.327458786E0
1.427339850E1,-8.347911912E-1,-5.815184605E-1,3.151099598E-1,1.065051332E0
1.428346650E1,-4.685631180E-1,-9.094425935E-1,2.486171045E-1,1.052828424E0
1.429353450E1,-1.215261912E-1,-1.408114779E0,2.003209305E-1,1.427474806E0
1.430360150E1,1.986123741E-1,-2.063166654E0,2.331787741E-1,2.085779437E0
1.431366950E1,4.998006982E-1,-2.681938310E0,3.431380764E-1,2.749606804E0
1.432373750E1,7.058869833E-1,-3.148677682E0,3.966733557E-1,3.251122472E0
1.433380450E1,8.227435881E-1,-3.329000550E0,4.508619151E-1,3.458674333E0
1.434387250E1,9.953235734E-1,-3.280867440E0,5.586137108E-1,3.473731344E0
1.435393950E1,9.737362379E-1,-2.949425038E0,5.418883352E-1,3.152921388E0
1.436400750E1,6.046611553E-1,-2.483858618E0,2.007255578E-1,2.564265878E0
1.437407550E1,4.280033219E-1,-2.286402238E0,-1.754895598E-1,2.332727722E0
1.438414250E1,2.458081752E-1,-2.255586827E0,-3.846380317E-1,2.301312671E0
1.439421050E1,3.535811305E-3,-2.138968788E0,-4.424072798E-1,2.184244533E0
1.440427850E1,-1.121495962E-1,-1.960895344E0,-4.075322199E-1,2.005933845E0
1.441434550E1,7.502211571E-2,-1.909960248E0,-4.079871333E-1,1.954489695E0
1.442441350E1,3.812659425E-1,-1.957513899E0,-4.300697644E-1,2.040143227E0
1.443448150E1,5.130487347E-1,-1.899498995E0,-4.448813464E-1,2.017234455E0
1.444454850E1,6.553892595E-1,-1.701635649E0,-4.562056124E-1,1.879686816E0
1.445461650E1,8.794031078E-1,-1.237162074E0,-4.364449837E-1,1.579368243E0
1.446468350E1,1.088222966E0,-4.965964240E-1,-5.150263361E-1,1.302339955E0
1.447475150E1,1.220218597E0,3.423457056E-1,-5.173938006E-1,1.368879232E0
1.448481950E1,1.229785227E0,1.105231347E0,-2.434956014E-1,1.671286373E0
1.449488650E1,1.473793044E0,1.691977803E0,3.510609806E-2,2.244122827E0
1.450495450E1,1.779663234E0,1.945068101E0,1.835317836E-1,2.642758986E0
1.451502250E1,2.099546860E0,1.750462824E0,1.645681304E-1,2.738484943E0
1.452508950E1,2.134720786E0,1.439179866E0,-4.754195631E-2,2.574981895E0
1.453515750E1,1.867098404E0,1.010560833E0,-3.583852394E-1,2.153074459E0
1.454522450E1,1.398917109E0,3.681471294E-1,-8.189715493E-1,1.662292328E0
1.455529250E1,9.220947987E-1,-2.070920062E-1,-1.171611863E0,1.505264187E0
1.456536050E1,4.959526455E-1,-4.150850683E-1,-1.171908317E0,1.338519235E0
1.457542750E1,-9.224275053E-2,-3.529110396E-1,-1.028552715E0,1.091318292E0
1.458549550E1,-6.012510592E-1,-3.674150580E-1,-8.257695222E-1,1.085537639E0
1.459556350E1,-8.492507708E-1,-3.698106623E-1,-5.254816693E-1,1.064949662E0
1.460563050E1,-1.043612219E0,-2.349580818E-1,-1.517410934E-1,1.080443022E0
1.461569850E1,-1.122656050E0,-5.812717080E-3,2.492784612E-1,1.150013106E0
1.462576650E1,-1.133575725E0,3.186001629E-1,6.325757629E-1,1.336657055E0
1.463583350E1,-1.157739344E0,6.938621843E-1,7.556169677E-1,1.546855559E0
1.464590150E1,-1.122513378E0,1.105821331E0,5.330731094E-1,1.663443428E0
1.465596850E1,-1.092616564E0,1.526867636E0,2.137718654E-1,1.889665088E0
1.466603650E1,-1.118113348E0,1.918083200E0,-1.021965023E-1,2.222535657E0
1.467610450E1,-1.143879104E0,2.235921471E0,-3.819185648E-1,2.540406664E0
1.468617150E1,-1.085907469E0,2.470645664E0,-5.996554271E-1,2.764574409E0
1.469623950E1,-1.066985294E0,2.561956369E0,-6.804165119E-1,2.857454231E0
1.470630750E1,-1.172073208E0,2.496486849E0,-6.153422642E-1,2.825747387E0
1.471637450E1,-1.403047582E0,2.247696594E0,-5.160572002E-1,2.699443930E0
1.472644250E1,-1.654686601E0,1.948445452E0,-3.919388652E-1,2.586125191E0
1.473650950E1,-1.726150686E0,1.684227319E0,-2.626651132E-1,2.425945344E0
1.474657750E1,-1.656444274E0,1.452554203E0,-1.062264398E-1,2.205675724E0
1.475664550E1,-1.512576456E0,1.255818785E0,-6.405858636E-2,1.966995643E0
1.476671250E1,-1.279846163E0,1.150300516E0,-8.994073827E-2,1.723161866E0
1.477678050E1,-1.109108051E0,9.986120474E-1,-1.531619668E-1,1.500268402E0
1.478684850E1,-9.221421611E-1,8.529228222E-1,-2.902078378E-1,1.289202891E0
1.479691550E1,-6.458495271E-1,8.048078388E-1,-5.771231085E-1,1.182331743E0
1.480698350E1,-3.089464098E-1,8.637214601E-1,-7.237011105E-1,1.168420276E0
1.481705163E1,2.807189763E-2,9.977285331E-1,-7.604351465E-1,1.254795549E0
1.482711863E1,3.473263639E-1,1.109782820E0,-5.892286356E-1,1.303627207E0
1.483718663E1,4.111107159E-1,1.292938079E0,-3.373948681E-1,1.398047279E0
1.484725363E1,4.754704338E-1,1.406152453E0,-2.237928236E-1,1.501139595E0
1.485732163E1,7.249845743E-1,1.309499733E0,-1.872301841E-1,1.508458592E0
1.486738963E1,8.789142805E-1,1.062053753E0,-1.340953660E-1,1.385074024E0
1.487745663E1,8.437462020E-1,7.279742557E-1,-2.081696481E-1,1.133661666E0
1.488752463E1,8.426036561E-1,2.212083542E-1,-4.074269700E-1,9.617228255E-1
1.489759262E1,8.525152713E-1,-4.132981592E-1,-5.775506131E-1,1.109577562E0
1.490765963E1,9.196863306E-1,-9.632820010E-1,-7.005958378E-1,1.504848726E0
1.491772762E1,1.129152306E0,-1.355890957E0,-8.021878476E-1,1.938280310E0
1.492779463E1,1.265673682E0,-1.662238280E0,-8.897339684E-1,2.270813181E0
1.493786263E1,1.269329946E0,-1.830655632E0,-9.387792438E-1,2.417396332E0
1.494793062E1,1.454741061E0,-1.908495521E0,-8.326329108E-1,2.540059896E0
1.495799763E1,1.804416252E0,-1.957461859E0,-6.397771206E-1,2.738044869E0
1.496806562E1,2.174118741E0,-2.113678996E0,-3.823482621E-1,3.056243019E0
1.497813363E1,2.521567896E0,-2.390911278E0,-1.243949083E-1,3.477101592E0
1.498820062E1,2.661845523E0,-2.657502796E0,-6.172562040E-2,3.761854962E0
1.499826863E1,2.672518446E0,-2.840095553E0,-2.002473287E-1,3.904945145E0
1.500833663E1,2.670917478E0,-2.877998375E0,-3.343051994E-1,3.940613504E0
1.501840362E1,2.542534257E0,-2.828265467E0,-3.500832530E-1,3.819178483E0
1.502847163E1,2.411473011E0,-2.618044031E0,-2.626037905E-1,3.569077946E0
1.503853862E1,2.129636632E0,-2.000997303E0,-5.148707271E-2,2.922668868E0
1.504860663E1,1.715222824E0,-9.849558753E-1,2.070258596E-1,1.988714942E0
1.505867463E1,1.497644421E0,1.202286941E-1,3.686551794E-1,1.547029539E0
1.506874163E1,1.430786188E0,9.980127078E-1,3.766484693E-1,1.784668751E0
1.507880963E1,1.408915848E0,1.535827324E0,3.398547918E-1,2.111708009E0
1.508887763E1,1.538258012E0,1.720638515E0,2.356245913E-1,2.319989991E0
1.509894463E1,1.515635719E0,1.669073675E0,-3.653925061E-3,2.254544725E0
1.510901263E1,1.326333867E0,1.365103245E0,-3.188779787E-1,1.929857912E0
1.511908063E1,1.038967776E0,8.759976894E-1,-5.075296209E-1,1.450659266E0
1.512914763E1,8.290375310E-1,3.547049654E-1,-5.847532133E-1,1.074734926E0
1.513921563E1,8.633934313E-1,-1.120788449E-1,-5.220886032E-1,1.015178011E0
1.514928263E1,8.064210856E-1,-5.119570595E-1,-4.240495078E-1,1.045099509E0
1.515935063E1,5.241473347E-1,-1.027962146E0,-2.588796258E-1,1.182563006E0
1.516941863E1,1.223272598E-1,-1.338993673E0,-7.186754286E-2,1.346489123E0
1.517948563E1,-2.036129129E-1,-1.256704053E0,5.840082049E-2,1.274430834E0
1.518955363E1,-3.804982030E-1,-1.004954522E0,1.861969811E-1,1.090587819E0
1.519962162E1,-3.371855378E-1,-6.795587254E-1,4.041852736E-1,8.595695920E-1
1.520968863E1,-2.301300359E-1,-1.790242016E-1,6.637314820E-1,7.249475694E-1
1.521975663E1,-1.761795312E-1,4.400491709E-1,9.030819923E-1,1.019921362E0
1.522982363E1,-2.399159360E-1,9.704810929E-1,9.897880143E-1,1.406795480E0
1.523989163E1,-3.151087904E-1,1.339233409E0,9.288465786E-1,1.659998687E0
1.524995962E1,-2.869906998E-1,1.663704177E0,7.963767385E-1,1.866679179E0
1.526002663E1,-3.096562618E-1,2.044023455E0,5.760483172E-1,2.146101244E0
1.527009462E1,-4.321057284E-1,2.296744793E0,2.416607451E-1,2.349500356E0
1.528016263E1,-6.388872474E-1,2.362088013E0,-1.261426045E-1,2.450214001E0
1.529022963E1,-8.521697009E-1,2.390244110E0,-3.778985310E-1,2.565592993E0
1.530029762E1,-1.032217165E0,2.457727996E0,-4.788145296E-1,2.708350518E0
1.531036463E1,-1.239085808E0,2.461807013E0,-4.575312128E-1,2.793772041E0
1.532043262E1,-1.424463009E0,2.352794448E0,-3.778330787E-1,2.776237457E0
1.533050063E1,-1.623066612E0,2.208738935E0,-2.282174482E-1,2.750446530E0
1.534056763E1,-1.785177158E0,2.000031928E0,-8.613650322E-2,2.682238747E0
1.535063562E1,-1.948795116E0,1.692766008E0,9.366618209E-3,2.581345946E0
1.536070363E1,-2.069662326E0,1.395532156E0,1.537969379E-1,2.500932954E0
1.537077062E1,-2.131774959E0,1.174384612E0,3.379491476E-1,2.457204371E0
1.538083863E1,-2.196125321E0,9.492399126E-1,3.819044584E-1,2.422782255E0
1.539090663E1,-2.272418037E0,7.121481818E-1,3.260985957E-1,2.403617911E0
1.540097363E1,-2.363305403E0,5.301126641E-1,2.541597168E-1,2.435329347E0
1.541104163E1,-2.377769660E0,4.227805889E-1,1.863822830E-1,2.422244897E0
1.542110862E1,-2.405145155E0,3.388373762E-1,2.412601743E-1,2.440848306E0
1.543117663E1,-2.433388960E0,2.529984963E-1,3.927644920E-1,2.477832524E0
1.544124463E1,-2.312831653E0,1.949204421E-1,6.306672317E-1,2.405187184E0
1.545131163E1,-2.057499533E0,1.073806071E-1,8.291234851E-1,2.220873854E0
1.546137963E1,-1.569067576E0,-2.140180331E-1,9.109225237E-1,1.826898087E0
1.547144763E1,-9.292406809E-1,-8.540373015E-1,8.433936149E-1,1.517952814E0
1.548151463E1,-4.011435521E-1,-1.571908153E0,6.656961465E-1,1.753557171E0
1.549158263E1,6.301544309E-3,-2.040560149E0,3.845058846E-1,2.076480245E0
1.550165063E1,3.827774477E-1,-2.474506581E0,1.370996563E-1,2.507687722E0
1.551171763E1,7.308844149E-1,-2.951280359E0,-8.928698301E-3,3.040448570E0
1.552178563E1,9.833069605E-1,-3.345218972E0,3.830978751E-2,3.486954285E0
1.553185263E1,8.581449705E-1,-3.495593571E0,4.463682568E-1,3.626959033E0
1.554192063E1,6.556634939E-1,-3.470440019E0,1.051675529E0,3.685087511E0
1.555198863E1,7.912113082E-1,-3.525664047E0,1.518456416E0,3.919442842E0
1.556205563E1,1.028560901E0,-3.694942694E0,1.718331789E0,4.202761375E0
1.557212363E1,1.137123815E0,-3.795724719E0,1.607999507E0,4.276241238E0
1.558219162E1,1.169051952E0,-3.896688007E0,1.344257337E0,4.284610563E0
1.559225863E1,6.229769737E-1,-3.829422222E0,8.874985778E-1,3.979978466E0
1.560232662E1,1.402016133E-1,-3.804915372E0,4.086981547E-1,3.829369617E0
1.561239363E1,-9.209306180E-2,-3.648363774E0,2.770480943E-1,3.660026640E0
1.562246163E1,-5.492529398E-1,-3.142133478E0,4.184618354E-1,3.217109245E0
1.563252962E1,-1.049368803E0,-2.466725691E0,5.972240818E-1,2.746377090E0
1.564259663E1,-1.231572136E0,-1.521453699E0,7.825778943E-1,2.108084307E0
1.565266462E1,-1.202039019E0,-3.148684698E-1,9.852955985E-1,1.585827031E0
1.566273263E1,-8.700516558E-1,9.833087146E-1,9.872959310E-1,1.642753532E0
1.567279962E1,-4.832121474E-1,2.040176572E0,7.828071052E-1,2.237990480E0
1.568286763E1,-2.296248364E-1,2.504444325E0,9.130778074E-2,2.516606058E0
1.569293463E1,3.656854516E-1,2.366859925E0,-8.196995276E-1,2.531335432E0
1.570300262E1,9.385623121E-1,2.035374838E0,-1.495492061E0,2.694465893E0
1.571307063E1,9.903920317E-1,1.623990473E0,-2.003498157E0,2.762648421E0
1.572313762E1,8.279481947E-1,8.619795746E-1,-2.298932821E0,2.591061388E0
1.573320563E1,8.875400931E-1,-2.381547546E-1,-2.182509495E0,2.368077870E0
1.574327363E1,9.249435622E-1,-9.756856996E-1,-1.794032766E0,2.241882411E0
1.575334063E1,6.079256558E-1,-1.257467700E0,-1.252945463E0,1.876345105E0
1.576340863E1,2.719692028E-1,-1.382785810E0,-7.224240786E-1,1.583654127E0
1.577347663E1,6.366565347E-2,-1.364298084E0,-3.599048942E-1,1.412407204E0
1.578354363E1,-2.241617829E-1,-1.114869897E0,-3.005118012E-2,1.137579213E0
1.579361163E1,-5.002164352E-1,-8.317880613E-1,2.171743602E-1,9.946117653E-1
1.580367863E1,-8.100130302E-1,-5.205495429E-1,3.774091190E-1,1.034181115E0
1.581374650E1,-1.007551855E0,-4.967502058E-2,5.884485805E-1,1.167861328E0
1.582381450E1,-1.084255046E0,5.237672657E-1,7.776159471E-1,1.433397263E0
1.583388150E1,-1.077685114E0,1.088548656E0,7.223737925E-1,1.693566437E0
1.584394950E1,-1.068087494E0,1.548987068E0,3.425070888E-1,1.912454689E0
1.585401750E1,-1.150421553E0,1.902633103E0,-2.516226465E-1,2.237587189E0
1.586408450E1,-1.143504297E0,2.076645656E0,-7.340424961E-1,2.481708614E0
1.587415250E1,-1.129585000E0,2.234394178E0,-1.022331862E0,2.704374614E0
1.588421950E1,-1.212272816E0,2.442514125E0,-1.267523156E0,3.007007746E0
1.589428750E1,-1.242121682E0,2.471518654E0,-1.549137926E0,3.170346833E0
1.590435550E1,-1.263901391E0,2.347201002E0,-1.754292750E0,3.191291638E0
1.591442250E1,-1.272472240E0,2.191434100E0,-1.808923870E0,3.113482710E0
1.592449050E1,-1.301412449E0,2.036689877E0,-1.709565643E0,2.960472041E0
1.593455850E1,-1.359742518E0,1.804689317E0,-1.443483417E0,2.681314532E0
1.594462550E1,-1.404701759E0,1.430086861E0,-1.068817227E0,2.271718673E0
1.595469350E1,-1.399449790E0,1.044078242E0,-7.047350818E-1,1.882872971E0
1.596476150E1,-1.349620403E0,7.721599102E-1,-4.660727888E-1,1.623246748E0
1.597482850E1,-1.296863315E0,5.815623146E-1,-2.956235290E-1,1.451710183E0
1.598489650E1,-1.324446970E0,4.805136573E-1,-1.220758295E-1,1.414197886E0
1.599496350E1,-1.367131060E0,3.727687687E-1,-4.290047307E-2,1.417689790E0
1.600503150E1,-1.472031863E0,4.140308154E-1,-2.081140995E-2,1.529291482E0
1.601509950E1,-1.379769232E0,5.583845365E-1,3.012191316E-2,1.488779283E0
1.602516650E1,-1.180190898E0,6.548700267E-1,1.837095390E-1,1.362150690E0
1.603523450E1,-1.080511073E0,6.901339996E-1,3.608094585E-1,1.331905621E0
1.604530250E1,-9.239384258E-1,6.575316793E-1,4.848668728E-1,1.233331265E0
1.605536950E1,-5.125610769E-1,4.981780958E-1,4.520353782E-1,8.457164157E-1
1.606543750E1,-1.340064883E-1,2.841284877E-1,1.800655542E-1,3.620916186E-1
1.607550450E1,2.567927545E-1,-5.473987877E-2,-2.665494551E-1,3.741491482E-1
1.608557250E1,5.790661383E-1,-4.282711244E-1,-6.872501528E-1,9.955131948E-1
1.609564050E1,8.372370815E-1,-7.486172658E-1,-1.035027337E0,1.527309834E0
1.610570750E1,1.112273734E0,-1.040496238E0,-1.236215994E0,1.961635864E0
1.611577550E1,1.439443576E0,-1.368205778E0,-1.277417230E0,2.361308882E0
1.612584350E1,1.788445167E0,-1.575970799E0,-1.065512381E0,2.611041307E0
1.613591050E1,2.132941478E0,-1.674971176E0,-7.131299293E-1,2.804197227E0
1.614597850E1,2.500131419E0,-1.868490626E0,-4.153991004E-1,3.148725257E0
1.615604650E1,2.956953328E0,-2.455580898E0,-2.851294945E-1,3.854185953E0
1.616611350E1,3.246800977E0,-3.268614015E0,-2.809048812E-1,4.615675651E0
1.617618150E1,3.203981817E0,-3.696907943E0,-1.990017986E-1,4.896144355E0
1.618624850E1,3.211248152E0,-3.805695391E0,-9.736491144E-2,4.980452994E0
1.619631650E1,3.255036780E0,-3.647809458E0,5.907262903E-2,4.889301367E0
1.620638450E1,3.235369670E0,-2.917869954E0,1.379989672E-1,4.358970714E0
1.621645150E1,3.100570884E0,-1.857225380E0,2.193197767E-1,3.620901419E0
1.622651950E1,2.525883726E0,-6.232032609E-1,2.697221178E-1,2.615572771E0
1.623658750E1,2.310343663E0,5.816272187E-1,2.280466729E-1,2.393320569E0
1.624665450E1,2.432019542E0,1.633299240E0,1.383614945E-1,2.932836403E0
1.625672250E1,2.611237872E0,2.248713425E0,-5.437947102E-3,3.446056422E0
1.626678950E1,2.698679473E0,2.357586241E0,-1.952677667E-1,3.588762083E0
1.627685750E1,2.660983059E0,2.067233393E0,-3.727828020E-1,3.390169871E0
1.628692550E1,2.240976389E0,1.614277663E0,-5.839474304E-1,2.822917312E0
1.629699250E1,1.565178008E0,8.494109845E-1,-7.010519207E-1,1.913832546E0
1.630706050E1,1.268107878E0,-1.372633874E-1,-6.962244594E-1,1.453157708E0
1.631712850E1,1.065852689E0,-8.335001260E-1,-5.656286885E-1,1.466526586E0
1.632719550E1,5.746427196E-1,-1.219474831E0,-3.010205455E-1,1.381284362E0
1.633726350E1,2.187928694E-1,-1.641238589E0,-8.398940563E-3,1.655779263E0
1.634733050E1,-2.036994517E-2,-1.917506080E0,2.796425039E-1,1.937896910E0
1.635739850E1,-2.011243379E-1,-1.917770374E0,6.373296223E-1,2.030882384E0
1.636746650E1,-3.161507642E-1,-1.720895793E0,1.069231210E0,2.050533837E0
1.637753350E1,-4.483124560E-1,-1.422943903E0,1.589218251E0,2.179763303E0
1.638760150E1,-4.403614122E-1,-9.991382968E-1,1.960445108E0,2.244001010E0
1.639766950E1,-4.047910452E-1,-5.007286513E-1,2.192105945E0,2.284712990E0
