"Time (s)","Linear Acceleration x (m/s^2)","Linear Acceleration y (m/s^2)","Linear Acceleration z (m/s^2)","Absolute acceleration (m/s^2)"
2.653125004E-3,-6.445092868E0,6.218560624E-1,7.098320997E-1,6.513815215E0
1.272112501E-2,-6.288124949E0,8.235393941E-1,7.323941660E-1,6.383974759E0
2.278812500E-2,-5.441500747E0,1.165886269E0,9.783268869E-1,5.650340226E0
3.285612501E-2,-4.633293922E0,1.054059439E0,1.219346923E0,4.905635615E0
4.292312500E-2,-4.374017270E0,5.470397687E-1,1.310892393E0,4.598882305E0
5.299112501E-2,-4.505016536E0,-1.159491169E-1,1.388819844E0,4.715658888E0
6.305812500E-2,-4.506368704E0,-5.439191097E-1,1.457597426E0,4.767367948E0
7.312612500E-2,-4.475104227E0,-7.171516442E-1,1.515930419E0,4.779007152E0
8.319312501E-2,-4.716641011E0,-9.105354381E-1,1.652192471E0,5.079913107E0
9.326112500E-2,-5.664514137E0,-1.738516377E0,1.952480177E0,6.238696855E0
1.033281250E-1,-6.919794978E0,-2.878404756E0,2.381019250E0,7.863715988E0
1.133961250E-1,-7.632090510E0,-3.354476284E0,2.917802711E0,8.832603769E0
1.234631250E-1,-7.890737416E0,-3.215476273E0,3.668372069E0,9.276851744E0
1.335311250E-1,-7.221806005E0,-2.374510422E0,4.335731164E0,8.751648213E0
1.435991250E-1,-6.733182845E0,-1.781532589E0,4.636370142E0,8.366931198E0
1.536661250E-1,-5.593045959E0,-8.676905501E-1,4.404823326E0,7.171995435E0
1.637341250E-1,-4.587008240E0,-5.541990995E-3,3.391668084E0,5.704742562E0
1.738011250E-1,-3.419276589E0,4.399965459E-1,2.884086788E0,4.494775407E0
1.838691250E-1,-2.449820513E0,1.065263289E-1,2.822449826E0,3.738875690E0
1.939361250E-1,-1.166583257E0,-8.998695320E-1,2.349534041E0,2.773263759E0
2.040041250E-1,9.678334737E-1,-2.239636207E0,1.455879514E0,2.841171789E0
2.140711250E-1,2.626652302E0,-3.805240477E0,5.389402787E-1,4.655063268E0
2.241391250E-1,3.389166645E0,-5.227549957E0,-1.926985002E-1,6.233045950E0
2.342061250E-1,4.157216839E0,-6.069677650E0,-1.049236071E0,7.431307755E0
2.442741250E-1,4.452938309E0,-6.458722728E0,-1.882182466E0,8.067612391E0
2.543411250E-1,3.886249557E0,-6.115435036E0,-2.830492671E0,7.779021150E0
2.644091250E-1,2.939545582E0,-4.888489802E0,-3.341821740E0,6.611053873E0
2.744761250E-1,2.009747954E0,-3.412543228E0,-3.537346199E0,5.310118290E0
2.845441250E-1,1.348083170E0,-2.368246885E0,-3.231471916E0,4.227095018E0
2.946121250E-1,6.900041914E-1,-2.126444052E0,-2.323139125E0,3.224103827E0
3.046791250E-1,3.473111612E-1,-2.192263235E0,-1.284064929E0,2.564267123E0
3.147471250E-1,7.458070940E-1,-2.184870601E0,-9.672939219E-1,2.503107128E0
3.248141250E-1,1.097539920E0,-2.245003951E0,-1.581137983E0,2.957132722E0
3.348821250E-1,1.610144851E0,-2.336346231E0,-2.438437154E0,3.741263945E0
3.449491250E-1,2.091160784E0,-2.116454085E0,-2.709668146E0,4.024255555E0
3.550171250E-1,2.117455713E0,-1.572834937E0,-2.272149650E0,3.481392317E0
3.650841250E-1,2.224160382E0,-8.927867997E-1,-1.604501557E0,2.884160696E0
3.751521250E-1,2.678761518E0,-2.772106469E-2,-1.535912109E0,3.087969840E0
3.852191250E-1,2.858616609E0,7.847460419E-1,-1.975111826E0,3.562103591E0
3.952871250E-1,2.852163622E0,1.036220169E0,-2.324362947E0,3.822466831E0
4.053541250E-1,3.164532992E0,1.392057155E0,-2.139523689E0,4.065667694E0
4.154221250E-1,3.721428827E0,1.360181644E0,-2.119306356E0,4.493393601E0
4.254891250E-1,4.244313163E0,1.271915585E0,-2.289528744E0,4.987374595E0
4.355571250E-1,4.596502072E0,1.364089923E0,-3.070280261E0,5.693434244E0
4.456251250E-1,5.256070921E0,1.581059631E0,-3.524784041E0,6.523046345E0
4.556921250E-1,5.806927167E0,1.884217882E0,-3.502370494E0,7.038272460E0
4.657601250E-1,6.462631592E0,2.111731873E0,-3.588182769E0,7.687657262E0
4.758271250E-1,7.066011622E0,2.409593716E0,-3.686184735E0,8.326020659E0
4.858951250E-1,7.531174584E0,2.656105312E0,-3.632222243E0,8.773056734E0
4.959621250E-1,7.906280485E0,2.780325315E0,-3.500797301E0,9.082679214E0
5.060301250E-1,8.173091859E0,2.912665932E0,-3.239023595E0,9.261443041E0
5.160971250E-1,8.342127262E0,2.959783965E0,-2.669261839E0,9.245342997E0
5.261651250E-1,8.272082881E0,2.773205745E0,-1.729949037E0,8.894422351E0
5.362321250E-1,7.762760577E0,2.386590770E0,-4.740916604E-1,8.135172412E0
5.463001250E-1,6.829807498E0,1.964842215E0,9.418841153E-1,7.168962343E0
5.563671250E-1,5.493390108E0,1.480996814E0,2.419516441E0,6.182616457E0
5.664351250E-1,3.360692459E0,5.973427802E-1,4.235428904E0,5.439662692E0
5.765021250E-1,2.249382931E-1,-2.674569064E-1,5.705523584E0,5.716216388E0
5.865701250E-1,-3.763895400E0,-1.045226635E0,6.788995687E0,7.832615767E0
5.966371250E-1,-8.544399408E0,-1.275533257E0,5.473211367E0,1.022691493E1
6.067051250E-1,-1.241785350E1,-9.441212600E-1,1.583910148E0,1.255401218E1
6.167731250E-1,-1.374082814E1,-1.438458320E0,-1.381109414E0,1.388477525E1
6.268401250E-1,-1.319961103E1,-2.824691648E0,-2.086391795E0,1.365875708E1
6.369081250E-1,-1.320225047E1,-3.213612181E0,6.943867526E-1,1.360547293E1
6.469751250E-1,-1.405522591E1,-2.350984150E0,4.796858670E0,1.503616823E1
6.570431250E-1,-1.184447788E1,-6.786635166E-1,7.211107355E0,1.388352655E1
6.671101250E-1,-7.205127992E0,6.825378817E-1,8.454897832E0,1.112946651E1
6.771781250E-1,-3.819046923E0,-1.526929616E0,5.702039813E0,7.030639479E0
6.872451250E-1,-8.236575079E-1,-6.106709236E0,1.898515493E0,6.447842310E0
6.973131250E-1,1.910094734E0,-7.229492170E0,-9.875483114E-2,7.478219805E0
7.073801250E-1,3.728129151E0,-6.246397464E0,-1.058020343E0,7.350907107E0
7.174481250E-1,4.034633764E0,-5.565708472E0,-1.668746815E0,7.073902483E0
7.275151250E-1,4.094030365E0,-4.668961353E0,-2.197215242E0,6.586959812E0
7.375831250E-1,5.766045774E0,-3.072743400E0,-1.624997363E0,6.732729930E0
7.476501250E-1,7.841294530E0,-1.505763280E-1,3.531992342E-1,7.850689322E0
7.577181250E-1,7.575153247E0,2.377858538E0,7.278028592E-1,7.972882474E0
7.677861250E-1,6.160796565E0,3.112750635E0,-3.075103337E-1,6.909355501E0
7.778531250E-1,5.362817690E0,2.578258991E0,-1.426208988E0,6.118930060E0
7.879211250E-1,4.820338749E0,1.661420839E0,-3.293823116E0,6.070029290E0
7.979881250E-1,4.236342239E0,9.716815263E-1,-4.600189326E0,6.328704637E0
8.080561250E-1,3.805815843E0,1.491788435E-1,-4.864118022E0,6.177874448E0
8.181231250E-1,3.226766077E0,-1.041891968E0,-4.672513536E0,5.773208894E0
8.281911250E-1,2.316982006E0,-2.272182979E0,-4.313856438E0,5.398201411E0
8.382581250E-1,1.034762458E0,-3.165198405E0,-4.004186727E0,5.207948313E0
8.483261250E-1,-7.659033895E-1,-3.389202898E0,-2.973204494E0,4.573100616E0
8.583931250E-1,-2.336027850E0,-2.719040063E0,-1.498898064E0,3.885472994E0
8.684609167E-1,-2.375901767E0,-1.244676331E0,-1.484206935E0,3.065452430E0
8.785279167E-1,-1.560358733E0,3.666730464E-1,-1.915490545E0,2.497653404E0
8.885959167E-1,-2.862945887E-1,2.122847430E0,-1.051487834E0,2.386225569E0
8.986639167E-1,1.010560540E0,3.271169833E0,5.609836239E-1,3.469364107E0
9.087309167E-1,1.154548518E0,2.692438155E0,1.430416644E0,3.260106943E0
9.187989167E-1,1.105800574E0,1.265594745E0,1.357510636E0,2.160407390E0
9.288659167E-1,8.953013948E-1,4.136086464E-2,9.432985568E-1,1.301186949E0
9.389339167E-1,5.581146875E-1,-4.153329903E-1,4.422202420E-1,8.243495858E-1
9.490009167E-1,-1.158049831E-1,-2.860949063E-1,5.750035842E-2,3.139544246E-1
9.590689167E-1,-7.030078143E-1,4.093050957E-5,-2.449339982E-1,7.444546004E-1
9.691359167E-1,-1.109621144E0,2.293272132E-1,-5.105660069E-1,1.242790289E0
9.792039167E-1,-1.191395040E0,5.543984896E-1,-8.046423626E-1,1.540853386E0
9.892709167E-1,-7.488815600E-1,8.120934695E-1,-8.995180412E-1,1.424588397E0
9.993389167E-1,-3.474327832E-1,9.089514273E-1,-9.615079558E-1,1.367991150E0
1.009405917E0,-1.642380551E-1,1.076343763E0,-8.197912558E-1,1.362918830E0
1.019473917E0,-3.100310683E-2,1.343962052E0,-5.950816619E-1,1.470141958E0
1.029540917E0,-1.619082320E-1,1.346960505E0,-6.261186095E-1,1.494169130E0
1.039608917E0,-3.025770378E-1,9.924128294E-1,-5.624845310E-1,1.180180044E0
1.049675917E0,-2.777751955E-1,5.672144169E-1,-4.224928328E-1,7.598627821E-1
1.059743917E0,-2.139943519E-1,3.904373002E-1,-5.313995632E-1,6.932678875E-1
1.069811917E0,2.089619458E-2,3.194176036E-1,-7.093922429E-1,7.782683411E-1
1.079878917E0,1.475530252E-1,4.655459547E-1,-7.255680533E-1,8.746164481E-1
1.089946917E0,2.267921528E-1,6.172431940E-1,-5.835696638E-1,8.791913293E-1
1.100013917E0,4.525028631E-1,8.218928182E-1,-2.437620883E-1,9.693743350E-1
1.110081917E0,5.420325056E-1,9.564612240E-1,2.792853852E-1,1.134291689E0
1.120148917E0,5.091638446E-1,9.316655213E-1,9.274980645E-1,1.409787617E0
1.130216917E0,4.115311307E-1,8.041126049E-1,1.610679871E0,1.846684759E0
1.140283917E0,3.451585087E-1,4.607477295E-1,2.372319617E0,2.441172511E0
1.150351917E0,4.541500238E-1,-1.810590327E-2,3.316856468E0,3.347852580E0
1.160418917E0,3.696060097E-1,-4.158791202E-1,3.967593098E0,4.006414736E0
1.170486917E0,1.870269933E-1,-4.915812671E-1,4.006062807E0,4.040441863E0
1.180553917E0,-3.282334507E-1,1.333784974E-1,3.343360727E0,3.362080899E0
1.190621917E0,-1.579727050E0,9.276823980E-1,2.349493403E0,2.979303850E0
1.200689917E0,-2.662135545E0,1.247849615E0,1.541355574E0,3.319619154E0
1.210756917E0,-3.768014179E0,1.203611335E0,9.470689876E-1,4.067376398E0
1.220824917E0,-4.853500941E0,9.343224961E-1,5.086153758E-1,4.968714070E0
1.230891917E0,-5.694866449E0,7.736737543E-1,1.712146604E-1,5.749729507E0
1.240959917E0,-6.037947149E0,7.748502141E-1,-8.849863216E-2,6.088105669E0
1.251026917E0,-5.920776549E0,8.428872460E-1,-3.094241273E-1,5.988472021E0
1.261094917E0,-5.593431875E0,8.430299181E-1,-3.961804354E-1,5.670461932E0
1.271161917E0,-5.359298251E0,3.973042703E-1,-2.769698878E-1,5.381137495E0
1.281229917E0,-5.094015924E0,-2.749238008E-1,1.409284222E-1,5.103375564E0
1.291296917E0,-4.737468501E0,-6.853392828E-1,8.665211070E-1,4.864581848E0
1.301364917E0,-4.795260041E0,-1.016348991E0,1.768690641E0,5.211117991E0
1.311431917E0,-5.837124528E0,-1.793486636E0,2.710589082E0,6.681011169E0
1.321499917E0,-7.476185029E0,-2.630712608E0,3.578101877E0,8.695792342E0
1.331566917E0,-8.738712909E0,-2.798583831E0,4.279469547E0,1.012477330E1
1.341634917E0,-9.328558974E0,-2.395970873E0,4.354785193E0,1.057009191E1
1.351701917E0,-8.880770429E0,-1.750266357E0,3.805172650E0,9.818902924E0
1.361769917E0,-7.455476530E0,-9.985547447E-1,3.130215683E0,8.147361051E0
1.371837917E0,-5.893076534E0,-1.227716482E-1,2.771469122E0,6.513406560E0
1.381904917E0,-4.582160898E0,2.690128505E-1,3.023053762E0,5.496127769E0
1.391972917E0,-3.162210185E0,-2.403193939E-1,2.981384164E0,4.352697807E0
1.402039917E0,-1.173302585E0,-1.544619198E0,2.298121812E0,3.007299667E0
1.412107917E0,6.698152176E-1,-2.653568205E0,1.315880799E0,3.036711860E0
1.422174917E0,1.469972766E0,-3.538306312E0,2.613938828E-2,3.831594284E0
1.432242917E0,2.161564476E0,-4.959527040E0,-1.440894855E0,5.598700512E0
1.442309917E0,2.571572700E0,-5.736491023E0,-3.196253552E0,7.052400454E0
1.452377917E0,2.812556922E0,-6.248981348E0,-4.606865092E0,8.257327068E0
1.462444917E0,2.647615154E0,-6.491353115E0,-5.077342004E0,8.656034490E0
1.472512917E0,1.914397116E0,-6.149013841E0,-4.266782843E0,7.725329984E0
1.482580917E0,7.353066641E-1,-4.882834960E0,-2.421268413E0,5.499572153E0
1.492647917E0,-1.762912130E-1,-3.292536728E0,-9.629617929E-1,3.434992302E0
1.502715917E0,-2.052518874E-1,-2.530504196E0,2.417531312E-2,2.538929748E0
1.512782917E0,7.814476275E-1,-2.419034631E0,-1.464961410E-1,2.546340523E0
1.522850917E0,1.496536959E0,-2.400259221E0,-1.964573389E0,3.443895439E0
1.532917917E0,2.202919786E0,-2.669269148E0,-4.160427253E0,5.411747250E0
1.542985917E0,2.434371293E0,-2.256093780E0,-4.527706656E0,5.613933585E0
1.553052917E0,2.478606064E0,-1.545985107E0,-3.668143736E0,4.689225569E0
1.563120917E0,2.026074257E0,-1.003274032E0,-2.378079709E0,3.281280052E0
1.573187917E0,1.735560610E0,8.805322051E-3,-1.230685844E0,2.127636203E0
1.583255917E0,2.523520281E0,8.477357572E-1,-1.638972062E0,3.126186166E0
1.593322917E0,2.961400720E0,1.550372858E0,-2.169153724E0,3.984818452E0
1.603390917E0,3.146237054E0,2.275097231E0,-2.327698929E0,4.526925813E0
1.613457917E0,3.268036895E0,2.473649379E0,-2.960338281E0,5.055947897E0
1.623525917E0,3.571206840E0,2.484984207E0,-3.269788136E0,5.442442398E0
1.633592917E0,4.423737899E0,2.323773547E0,-3.133072048E0,5.897925140E0
1.643660917E0,5.515686711E0,1.756306531E0,-3.453265577E0,6.740360203E0
1.653728917E0,6.306992159E0,1.386556680E0,-3.661621459E0,7.423487134E0
1.663795917E0,6.931855445E0,1.495273376E0,-3.596953008E0,7.951385622E0
1.673863917E0,7.791608400E0,1.698471136E0,-3.551685326E0,8.729744229E0
1.683930917E0,8.544692354E0,1.760404844E0,-3.324186537E0,9.336006039E0
1.693998917E0,9.299273195E0,2.036149009E0,-3.054990669E0,9.997767387E0
1.704065917E0,9.802088717E0,2.495700983E0,-2.856301696E0,1.051037231E1
1.714133917E0,9.936732552E0,2.881517814E0,-2.529413105E0,1.065080886E1
1.724200917E0,9.958942616E0,2.857445996E0,-1.939203928E0,1.054068534E1
1.734268917E0,9.618038249E0,2.579114438E0,-1.004643012E0,1.000838641E1
1.744335917E0,8.829766336E0,2.290582997E0,-6.650930062E-2,9.122278636E0
1.754403917E0,7.573849903E0,2.130397355E0,1.427629861E0,7.996244260E0
1.764470917E0,5.612732949E0,1.749482245E0,3.571763495E0,6.879022732E0
1.774538917E0,2.575632421E0,9.861598170E-1,5.334165748E0,6.004974420E0
1.784606917E0,-1.054106217E0,-5.023641175E-1,5.796784587E0,5.913224262E0
1.794673917E0,-4.498186403E0,-2.391417646E0,5.712873534E0,7.654376741E0
1.804741917E0,-8.605299329E0,-3.453600622E0,5.411660067E0,1.073613517E1
1.814808917E0,-1.296073122E1,-3.496460713E0,3.182533060E0,1.379617005E1
1.824876917E0,-1.477900128E1,-4.652390344E0,4.208614596E-1,1.549970126E1
1.834943917E0,-1.598764649E1,-5.817531093E0,9.736438519E-1,1.704102375E1
1.845011917E0,-1.781544400E1,-5.080528736E0,4.132627251E0,1.898105437E1
1.855078917E0,-1.541341950E1,-7.215212685E-1,6.443334026E0,1.672156234E1
1.865146917E0,-8.673846238E0,3.539120829E0,7.141534259E0,1.177974942E1
1.875213750E0,-4.603409387E0,4.251909866E0,5.692966104E0,8.466402929E0
1.885281750E0,-1.823245456E0,2.416170664E0,2.381679693E0,3.851558494E0
1.895348750E0,8.992269230E-1,-9.639544308E-2,-1.386746129E0,1.655586291E0
1.905416750E0,3.090993730E0,-2.633953135E0,-4.259408335E0,5.885109236E0
1.915483750E0,4.128033094E0,-3.279721971E0,-5.381220047E0,7.533575686E0
1.925551750E0,5.045047247E0,-2.282710306E0,-4.687378913E0,7.254983745E0
1.935619750E0,5.733663309E0,-3.792822745E0,-2.175711522E0,7.210694831E0
1.945686750E0,6.644832001E0,-7.124721760E0,3.894205863E0,1.049191554E1
1.955754750E0,6.463685845E0,-9.150648667E0,9.487560555E0,1.468085185E1
1.965821750E0,1.399550362E0,-5.483768515E0,6.400747000E0,8.544004945E0
1.975889750E0,1.281762881E0,-2.601986992E0,-1.969512970E0,3.506028198E0
1.985956750E0,2.954662973E0,-1.630752193E0,-5.767804032E0,6.682585529E0
1.996024750E0,3.320705690E0,-6.701447082E-1,-5.277144286E0,6.270919552E0
2.006091750E0,4.188573995E0,7.000011760E-1,-4.712507907E0,6.343649149E0
2.016159750E0,4.884080417E0,1.747091904E0,-5.246456344E0,7.377796135E0
2.026226750E0,4.341220238E0,2.228547547E0,-6.006371600E0,7.738805923E0
2.036294750E0,3.272671983E0,1.919066702E0,-5.781734439E0,6.915320096E0
2.046361750E0,2.172332416E0,1.062364240E0,-5.042444651E0,5.592306676E0
2.056429750E0,1.043948434E0,2.863615394E-2,-4.356956849E0,4.480370671E0
2.066496750E0,-4.182191759E-1,-1.174115056E0,-2.844102650E0,3.105217115E0
2.076564750E0,-1.807443940E0,-2.258444361E0,-1.436789525E0,3.229827962E0
2.086632750E0,-1.837398641E0,-2.340434604E0,-1.727984372E0,3.440871676E0
2.096699750E0,-7.373590368E-1,-1.402702011E0,-2.044985906E0,2.587129421E0
2.106767750E0,1.242568117E0,-3.259682393E-1,-1.120856861E0,1.704860969E0
2.116834750E0,2.514143979E0,-7.679616094E-2,1.099170927E-1,2.517717094E0
2.126902750E0,2.846547664E0,-3.510457778E-1,7.969211143E-1,2.976768382E0
2.136969750E0,2.606843689E0,-5.534459782E-1,6.500571835E-1,2.743084179E0
2.147037750E0,2.342577608E0,-6.943942809E-1,3.033909520E-1,2.462092471E0
2.157104750E0,2.339985538E0,-6.379499388E-1,-2.217503546E-2,2.425490501E0
2.167172750E0,2.312913806E0,-6.960233152E-2,-3.897169232E-1,2.346549390E0
2.177239750E0,2.232490325E0,5.628009385E-1,-4.854182653E-1,2.352953217E0
2.187307750E0,1.495948144E0,8.494606858E-1,-3.784703887E-1,1.761443766E0
2.197374750E0,4.650004095E-1,9.671972966E-1,-5.144777942E-1,1.190119066E0
2.207442750E0,-4.157794252E-1,7.979677659E-1,-5.440226054E-1,1.051468345E0
2.217510750E0,-9.341771927E-1,6.787787068E-1,-5.248050734E-1,1.268403692E0
2.227577750E0,-1.041744034E0,6.731683034E-1,-5.105530699E-1,1.341286932E0
2.237645750E0,-9.871377638E-1,7.926777899E-1,-4.193399410E-1,1.333651015E0
2.247712750E0,-8.795019257E-1,9.844079912E-1,-2.411706754E-1,1.341918785E0
2.257780750E0,-7.213543305E-1,9.890945345E-1,-8.244325563E-2,1.226970643E0
2.267847750E0,-6.043959841E-1,9.293254656E-1,-6.817151785E-2,1.110669925E0
2.277915750E0,-4.261982864E-1,8.221933651E-1,-1.828585864E-1,9.439725481E-1
2.287982750E0,-1.278847459E-1,8.248135024E-1,-2.131592233E-1,8.614572981E-1
2.298050750E0,-4.373044878E-2,7.330063695E-1,-8.211113378E-2,7.388862755E-1
2.308117750E0,-8.351987422E-2,5.554533273E-1,3.109713006E-1,6.420335801E-1
2.318185750E0,-4.295364618E-2,4.669995725E-1,8.814408624E-1,9.984345799E-1
2.328252750E0,-7.956598699E-2,3.873382759E-1,1.486738780E0,1.538425781E0
2.338320750E0,-1.558063701E-1,2.387827456E-1,2.023138955E0,2.043130944E0
2.348387750E0,-9.326922923E-2,1.120677352E-2,2.644623134E0,2.646291039E0
2.358455750E0,8.096464097E-2,-1.859168994E-1,3.366956581E0,3.373057513E0
2.368523750E0,3.524438471E-1,-2.894091082E-1,4.260347106E0,4.284685724E0
2.378590750E0,4.939090437E-1,-4.914672464E-1,4.915268880E0,4.964408763E0
2.388658750E0,-1.041661003E-1,-1.708071095E-1,4.689568695E0,4.693834274E0
2.398725750E0,-1.836902505E0,6.241236126E-1,3.403772990E0,3.917832521E0
2.408793750E0,-3.395633665E0,1.231824735E0,1.896808399E0,4.079902238E0
2.418860750E0,-4.377848366E0,1.545165913E0,6.918530810E-1,4.693799601E0
2.428928750E0,-5.120245364E0,1.535931990E0,-2.863276255E-1,5.353315157E0
2.438995750E0,-5.510728272E0,1.391810988E0,-1.043116229E0,5.778698416E0
2.449063750E0,-5.748221122E0,1.184185131E0,-1.556379410E0,6.071791940E0
2.459130750E0,-5.808592454E0,9.212124538E-1,-1.853329526E0,6.166296215E0
2.469198750E0,-5.489989368E0,3.882451791E-1,-1.991045781E0,5.852775485E0
2.479265750E0,-4.669260145E0,-1.360600305E-1,-1.861483322E0,5.028481162E0
2.489333750E0,-3.734255864E0,-5.305202150E-1,-1.133939129E0,3.938519583E0
2.499401750E0,-3.168941792E0,-9.777749097E-1,1.861040103E-1,3.321576517E0
2.509468750E0,-3.108641211E0,-1.374161167E0,1.824872736E0,3.857736331E0
2.519536750E0,-3.523164070E0,-1.728387246E0,3.463295598E0,5.233968278E0
2.529603750E0,-4.540297758E0,-2.211712829E0,5.068415644E0,7.155055172E0
2.539671750E0,-6.719478725E0,-2.822055139E0,6.770273488E0,9.947461618E0
2.549738750E0,-9.461628154E0,-3.223809725E0,7.989419121E0,1.279633441E1
2.559806750E0,-1.039348663E1,-2.232970381E0,7.436180134E0,1.297333789E1
2.569873750E0,-9.083469422E0,-9.151746190E-1,4.820009551E0,1.032373253E1
2.579941750E0,-7.213169668E0,1.551441729E-2,2.731608653E0,7.713089082E0
2.590008750E0,-5.584924761E0,9.170697016E-1,2.147583930E0,6.053471579E0
2.600076750E0,-4.353906064E0,1.019091336E0,2.751399139E0,5.250261174E0
2.610143750E0,-2.489836226E0,-3.571654737E-2,2.975271485E0,3.879793875E0
2.620211750E0,-4.008120149E-1,-1.638566412E0,2.701732889E0,3.185107653E0
2.630278750E0,1.409828306E0,-2.762080833E0,2.176655263E0,3.788737852E0
2.640346750E0,3.126346873E0,-4.750714198E0,1.547595431E0,5.893927534E0
2.650414750E0,4.014585123E0,-6.162641362E0,3.025741142E-1,7.361154350E0
2.660481750E0,3.893965251E0,-6.622747067E0,-1.912475721E0,7.917152738E0
2.670549750E0,3.241268926E0,-6.668967553E0,-3.926868995E0,8.390545428E0
2.680616750E0,3.456479791E0,-7.342205438E0,-4.776526147E0,9.416498037E0
2.690684750E0,3.562674583E0,-7.325091807E0,-4.503765231E0,9.307713007E0
2.700751750E0,2.886793756E0,-6.531448057E0,-3.674120175E0,8.030725433E0
2.710819750E0,1.377794042E0,-4.346045360E0,-1.699695543E0,4.865736494E0
2.720886750E0,7.709892976E-1,-2.921410443E0,1.534270942E0,3.388665046E0
2.730954750E0,1.166905439E0,-2.762600065E0,7.602384607E-1,3.093798627E0
2.741021750E0,2.187806488E0,-2.744510534E0,-2.002122307E0,4.040708977E0
2.751089750E0,2.522316340E0,-2.640582708E0,-4.374939961E0,5.698671461E0
2.761156750E0,2.469258120E0,-2.808106021E0,-4.842628335E0,6.118312209E0
2.771224750E0,2.393253087E0,-2.615293500E0,-3.453891814E0,4.949423107E0
2.781292750E0,1.898099756E0,-2.103337026E0,-2.125848367E0,3.542039047E0
2.791359750E0,1.459137583E0,-1.487820514E0,-1.381963692E0,2.500503152E0
2.801427750E0,1.528686705E0,-6.198089522E-1,-1.463139417E0,2.204954225E0
2.811494750E0,1.833356461E0,4.101932877E-1,-1.869206910E0,2.650167715E0
2.821562750E0,2.136717610E0,1.415592198E0,-1.949109696E0,3.220014290E0
2.831629750E0,2.831049911E0,2.287406205E0,-1.790536862E0,4.056241240E0
2.841697750E0,3.758125952E0,2.570187494E0,-1.856407939E0,4.916871451E0
2.851764750E0,4.690825846E0,2.271156208E0,-2.182858720E0,5.650386698E0
2.861832750E0,5.447582436E0,2.081385409E0,-3.051895445E0,6.581974280E0
2.871900625E0,6.087713386E0,2.268153663E0,-3.878015508E0,7.565961908E0
2.881968625E0,6.425118195E0,2.560875219E0,-4.227610299E0,8.106350260E0
2.892035625E0,6.874976655E0,2.869210010E0,-4.489260044E0,8.697765565E0
2.902103625E0,7.361055692E0,3.030551062E0,-4.714937425E0,9.252027646E0
2.912170625E0,7.608953077E0,2.999171979E0,-4.762595156E0,9.464328402E0
2.922238625E0,7.796290850E0,2.855234579E0,-4.493786373E0,9.440796126E0
2.932306625E0,8.143525997E0,2.847360134E0,-3.821952404E0,9.435666144E0
2.942373625E0,8.338084497E0,3.150646439E0,-2.984929623E0,9.400001645E0
2.952441625E0,8.311962061E0,3.480995997E0,-2.084581643E0,9.249406849E0
2.962508625E0,8.137412733E0,3.352718026E0,-1.245532509E0,8.888731934E0
2.972576625E0,7.472929299E0,2.846084856E0,-2.382016785E-1,8.000100710E0
2.982643625E0,6.424299000E0,2.335079724E0,1.269277760E0,6.952357944E0
2.992711625E0,4.192893918E0,1.503085256E0,4.273213611E0,6.172518065E0
3.002778625E0,7.230503154E-1,1.809958827E-1,7.330387630E0,7.368184585E0
3.012846625E0,-3.337774882E0,-1.609594628E0,8.712047267E0,9.467381032E0
3.022913625E0,-8.488531601E0,-3.361333898E0,8.377942042E0,1.239127303E1
3.032981625E0,-1.344950115E1,-4.108251963E0,3.827045622E0,1.457439857E1
3.043048625E0,-1.471115955E1,-5.102359316E0,-6.739209862E-1,1.558545653E1
3.053116625E0,-1.402468591E1,-6.146397797E0,-1.188464708E0,1.535846571E1
3.063183625E0,-1.412640056E1,-6.118311281E0,3.172843639E0,1.571801077E1
3.073251625E0,-1.393886164E1,-4.565524108E0,8.216552458E0,1.681212683E1
3.083319625E0,-8.618901122E0,-7.966977507E-1,1.072594645E1,1.378281942E1
3.093386625E0,-3.598533218E0,2.298387276E0,1.038312303E1,1.122681029E1
3.103454625E0,-7.528448027E-1,1.685759289E0,6.425746186E0,6.685714152E0
3.113521625E0,1.817484194E0,-2.109798199E0,1.243203417E0,3.049598658E0
3.123589625E0,4.277811277E0,-6.004171293E0,-2.116536530E0,7.670037100E0
3.133656625E0,5.806330751E0,-6.457003646E0,-3.939451618E0,9.535494320E0
3.143724625E0,6.233746428E0,-5.038276756E0,-4.422542143E0,9.154381804E0
3.153791625E0,5.923847507E0,-4.708184475E0,-3.555108286E0,8.360488339E0
3.163859625E0,5.559436748E0,-4.777790315E0,-2.204546481E0,7.654713740E0
3.173926625E0,4.848855035E0,-3.516668106E0,-8.423124647E-1,6.048788309E0
3.183994625E0,3.459689913E0,-7.938115650E-1,7.224117994E-1,3.622356954E0
3.194061625E0,2.290789989E0,9.545421678E-1,1.076430375E0,2.705101084E0
3.204129625E0,2.184115140E0,1.642816168E0,-1.530426836E-1,2.737266149E0
3.214197625E0,3.211988409E0,1.659512892E0,-1.722911913E0,4.004906745E0
3.224264625E0,4.283397122E0,1.425114389E0,-3.390772875E0,5.645864205E0
3.234332625E0,4.635706483E0,1.329470313E0,-4.626213529E0,6.682747752E0
3.244399625E0,4.475253623E0,1.210402291E0,-4.837737139E0,6.700497693E0
3.254467625E0,3.911774408E0,5.341700470E-1,-4.671132424E0,6.116109448E0
3.264534625E0,2.878283719E0,-6.147616357E-1,-4.249310194E0,5.169050798E0
3.274602625E0,1.701660792E0,-1.815570985E0,-3.425380790E0,4.233814003E0
3.284669625E0,9.524003327E-2,-2.739884217E0,-2.258630887E0,3.552104964E0
3.294737625E0,-1.108238570E0,-2.804488934E0,-1.582522604E0,3.405543818E0
3.304804625E0,-9.542474681E-1,-1.762697538E0,-1.962275287E0,2.805033893E0
3.314872625E0,-4.189155793E-1,-3.113712502E-1,-2.313918650E0,2.372058565E0
3.324939625E0,7.018149823E-2,1.090808020E0,-1.425276357E0,1.796162652E0
3.335007625E0,4.304620761E-1,1.966978202E0,1.054533283E-1,2.016288980E0
3.345075625E0,5.850963718E-1,1.987221263E0,1.027873853E0,2.312555031E0
3.355142625E0,5.651523963E-1,1.523637634E0,8.700212502E-1,1.843313822E0
3.365210625E0,4.003158787E-1,8.607966828E-1,5.955085452E-1,1.120648990E0
3.375277625E0,-3.301606929E-1,5.576957345E-1,1.119356612E-1,6.576930954E-1
3.385345625E0,-1.265601177E0,4.906930751E-1,-4.707148933E-1,1.436697095E0
3.395412625E0,-1.793088733E0,3.223605072E-1,-8.122775837E-1,1.994712605E0
3.405480625E0,-1.861966302E0,2.727223241E-1,-9.759166646E-1,2.119837096E0
3.415547625E0,-1.456784663E0,5.014864504E-1,-9.567049798E-1,1.813558555E0
3.425615625E0,-1.116013028E0,8.282920110E-1,-7.282017124E-1,1.569022138E0
3.435682625E0,-1.046058402E0,1.010601763E0,-6.407297051E-1,1.589367377E0
3.445750625E0,-6.615495935E-1,1.165638347E0,-6.948141110E-1,1.509677870E0
3.455817625E0,-4.376088354E-1,1.161090383E0,-5.240087557E-1,1.346928931E0
3.465885625E0,-2.147138518E-1,9.938296098E-1,-5.262833226E-1,1.144890155E0
3.475952625E0,6.262631088E-2,8.027426022E-1,-6.286458492E-1,1.021525009E0
3.486020625E0,3.346180254E-1,6.818771464E-1,-7.260755186E-1,1.050767017E0
3.496088625E0,8.210125199E-1,7.272486162E-1,-8.124843559E-1,1.364947961E0
3.506155625E0,1.151411195E0,8.581502330E-1,-7.873591626E-1,1.637713043E0
3.516223625E0,1.435523895E0,8.491934681E-1,-5.758804290E-1,1.764510319E0
3.526290625E0,1.662460181E0,6.777776635E-1,-2.208550362E-1,1.808848629E0
3.536358625E0,1.804492558E0,3.494997740E-1,3.739893749E-1,1.875689616E0
3.546425625E0,1.542423276E0,-1.753884029E-1,1.387421775E0,2.082011008E0
3.556493625E0,8.258657089E-1,-7.864142525E-1,2.968562097E0,3.180072715E0
3.566560625E0,4.750737002E-1,-1.401819082E0,5.637541516E0,5.828607561E0
3.576628625E0,2.582121661E-1,-1.433363641E0,9.106260699E0,9.221994837E0
3.586695625E0,-1.272133686E0,-1.074648070E-1,8.492671430E0,8.588092968E0
3.596763625E0,-2.678511842E0,9.216697061E-1,4.647854074E0,5.443018301E0
3.606830625E0,-4.074058908E0,1.211915551E0,2.117903609E0,4.748916822E0
3.616898625E0,-5.513043770E0,9.489469671E-1,1.047883318E0,5.691415588E0
3.626966625E0,-6.407132159E0,5.463024348E-1,4.688391066E-1,6.447449028E0
3.637033625E0,-6.854344754E0,5.232971495E-1,1.028140779E-1,6.875060193E0
3.647101625E0,-7.143049858E0,8.103925145E-1,-2.324443638E-1,7.192630095E0
3.657168625E0,-7.226047575E0,1.166858661E0,-5.622647488E-1,7.341216816E0
3.667236625E0,-7.149076583E0,1.118137321E0,-8.319745874E-1,7.283660396E0
3.677303625E0,-6.558195561E0,4.936839259E-1,-8.618749094E-1,6.632984335E0
3.687371625E0,-5.624519767E0,-2.028358179E-1,-4.400953639E-1,5.645356402E0
3.697438625E0,-4.654443886E0,-8.364927310E-1,5.587684062E-1,4.761910342E0
3.707506625E0,-3.891095729E0,-1.256102375E0,2.063847416E0,4.580162149E0
3.717573625E0,-3.513306249E0,-1.596238418E0,3.697228371E0,5.344230114E0
3.727641625E0,-3.529337268E0,-1.929083567E0,5.317931539E0,6.667681817E0
3.737708625E0,-4.489650638E0,-2.334761635E0,7.539472368E0,9.080292855E0
3.747776625E0,-6.258195391E0,-2.549117053E0,9.418809578E0,1.159210857E1
3.757844625E0,-8.180198565E0,-2.303456812E0,8.345744934E0,1.191104615E1
3.767911625E0,-7.790669337E0,-8.171302611E-1,4.863991138E0,9.220663771E0
3.777979625E0,-6.879191912E0,4.006576484E-1,2.301636135E0,7.265076518E0
3.788046625E0,-6.494640419E0,1.425775124E0,1.391570521E0,6.793353914E0
3.798114625E0,-6.154176933E0,1.997816418E0,1.734814066E0,6.698861396E0
3.808181625E0,-4.711220642E0,1.456240872E0,1.827949541E0,5.259052856E0
3.818249625E0,-2.360055521E0,-5.526542652E-1,1.194014300E0,2.702028672E0
3.828316625E0,-4.984529150E-1,-2.887443382E0,5.935426748E-1,2.989661770E0
3.838384625E0,1.125807699E0,-5.204701377E0,-2.095951992E-1,5.329192204E0
3.848451625E0,1.624744471E0,-6.839375882E0,-1.925462387E0,7.288639273E0
3.858519625E0,1.533607721E0,-8.189959322E0,-3.917419310E0,9.207255855E0
3.868586625E0,1.325815219E0,-8.086768245E0,-5.053622773E0,9.627705322E0
3.878654125E0,1.116763811E0,-8.020735053E0,-5.801321442E0,9.961660638E0
3.888722125E0,9.085503083E-1,-7.746274937E0,-5.929885342E0,9.797641513E0
3.898789125E0,1.064998995E0,-6.710313799E0,-5.783530703E0,8.922542325E0
3.908857125E0,1.865934223E0,-4.568057122E0,-3.361349686E0,5.970555092E0
3.918924125E0,2.241550001E0,-3.112913772E0,2.626565178E0,4.649045407E0
3.928992125E0,2.495541354E0,-3.072758018E0,4.471330726E0,5.971797632E0
3.939059125E0,3.217584779E0,-3.137353964E0,-1.564876730E0,4.758642757E0
3.949127125E0,3.470373361E0,-2.863677959E0,-6.602936116E0,7.990175722E0
3.959194125E0,3.899946660E0,-2.213444774E0,-8.152527786E0,9.304441467E0
3.969262125E0,3.649506905E0,-1.495999600E0,-6.546368982E0,7.642765357E0
3.979329125E0,2.496220216E0,-5.463597375E-1,-3.255857729E0,4.138868672E0
3.989397125E0,1.877183681E0,2.969356441E-1,-1.200236030E0,2.247789109E0
3.999464125E0,1.713528301E0,1.087707242E0,-1.352297258E0,2.438850991E0
4.009532125E0,1.809690440E0,2.016885357E0,-1.422211977E0,3.060309289E0
4.019599125E0,2.367925873E0,2.220764319E0,-1.661362367E0,3.646778306E0
4.029667125E0,2.915750923E0,2.042861028E0,-2.170434118E0,4.169612558E0
4.039735125E0,2.795939720E0,2.039285456E0,-2.175205738E0,4.087478941E0
4.049802125E0,3.484569231E0,1.836794624E0,-2.627976111E0,4.735218649E0
4.059870125E0,4.891374233E0,1.521625607E0,-3.840802951E0,6.402550561E0
4.069937125E0,6.035759706E0,1.281883333E0,-4.466313523E0,7.617189547E0
4.080005125E0,6.979068203E0,1.025683486E0,-4.542674358E0,8.390191292E0
4.090072125E0,7.982035257E0,1.044183492E0,-4.561531044E0,9.252608901E0
4.100140125E0,8.839052299E0,1.560820663E0,-4.689357610E0,1.012694828E1
4.110207125E0,9.597940199E0,1.801659874E0,-4.609961193E0,1.079898961E1
4.120275125E0,1.045380183E1,1.888169430E0,-4.209893821E0,1.142673893E1
4.130342125E0,1.107758865E1,2.120305061E0,-3.714343171E0,1.187455300E1
4.140410125E0,1.133060117E1,2.302023075E0,-2.959230233E0,1.193477594E1
4.150477125E0,1.116984718E1,2.319879887E0,-2.066620020E0,1.159388835E1
4.160545125E0,1.046396546E1,2.102900823E0,-1.045118462E0,1.072422667E1
4.170613125E0,8.921957631E0,1.750081000E0,4.449140543E-1,9.102859990E0
4.180680125E0,6.451392074E0,1.440393748E0,2.593196580E0,7.100694497E0
4.190748125E0,3.050755531E0,1.107572572E0,5.169668369E0,6.104039430E0
4.200815125E0,-1.242901701E0,9.605571985E-2,8.135653306E0,8.230606664E0
4.210883125E0,-6.748139437E0,-1.271410970E0,9.124762459E0,1.141994578E1
4.220950125E0,-1.260533161E1,-1.625925901E0,4.442268895E0,1.346372062E1
4.231018125E0,-1.507861963E1,-2.542210906E0,-6.557665510E-1,1.530547732E1
4.241085125E0,-1.592165013E1,-4.983312929E0,-2.153051223E0,1.682165213E1
4.251153125E0,-1.843280589E1,-7.080998036E0,1.379330106E0,1.979422688E1
4.261220125E0,-2.140498186E1,-6.800866120E0,5.960666839E0,2.323692272E1
4.271288125E0,-1.701811884E1,-1.523589102E0,8.982438891E0,1.930341683E1
4.281355125E0,-8.110351235E0,3.317564566E0,9.789216657E0,1.313821885E1
4.291423125E0,-3.960495747E0,4.214451433E0,7.459928015E0,9.439155335E0
4.301491125E0,-5.900553954E-1,2.813441606E0,3.293463512E0,4.371558182E0
4.311558125E0,2.561090981E0,6.118532306E-1,-1.030329026E0,2.827565966E0
4.321626125E0,4.618515669E0,-1.395668980E0,-3.964197035E0,6.244472517E0
4.331693125E0,6.237795625E0,-2.677992024E0,-5.105676441E0,8.494096036E0
4.341761125E0,7.553619121E0,-1.947366056E0,-5.753139800E0,9.692678368E0
4.351828125E0,7.153459656E0,-4.280612093E-1,-6.233776249E0,9.498167600E0
4.361896125E0,6.860435799E0,-8.158742791E-1,-4.385266144E0,8.183018351E0
4.371963125E0,8.388223202E0,-4.277203166E0,3.428849359E0,1.002066681E1
4.382031125E0,6.438379680E0,-8.591711569E0,1.250444375E1,1.648124249E1
4.392098125E0,-3.845731276E-1,-8.168150961E0,7.139930953E0,1.085565293E1
4.402166125E0,-1.433661849E0,-6.424596623E0,-2.761632936E0,7.138448329E0
4.412233125E0,-8.819940090E-3,-5.036397461E0,-4.637426734E0,6.846247431E0
4.422301125E0,7.144145626E-1,-3.692019086E0,-4.119365766E0,5.577684772E0
4.432369125E0,1.713409603E0,-1.526796300E0,-2.961745706E0,3.746840940E0
4.442436125E0,4.106649826E0,5.307681370E-1,-2.596120480E0,4.887343773E0
4.452504125E0,5.614763103E0,1.475625561E0,-3.716223636E0,6.892993080E0
4.462571125E0,5.317314658E0,1.926129554E0,-4.517781007E0,7.238380721E0
4.472639125E0,4.882232112E0,2.156049090E0,-4.028249189E0,6.686668049E0
4.482706125E0,4.090966424E0,1.891405864E0,-3.362225014E0,5.622986704E0
4.492774125E0,3.212279601E0,1.586505727E0,-2.744227529E0,4.512928693E0
4.502841125E0,1.891086021E0,9.613588518E-1,-2.079697902E0,2.970784500E0
4.512909125E0,8.205462044E-1,-1.610469371E-1,-1.699782082E0,1.894331364E0
4.522976125E0,4.446053213E-1,-1.164568307E0,-1.576830339E0,2.010046555E0
4.533044125E0,1.927511251E-1,-1.911665881E0,-1.699542346E0,2.565163469E0
4.543111125E0,-2.886051160E-1,-2.332246163E0,-1.706091812E0,2.904034151E0
4.553179125E0,-6.152960712E-1,-2.408533031E0,-1.616186779E0,2.965076782E0
4.563247125E0,-9.565460086E-2,-2.172123086E0,-1.459248680E0,2.618525389E0
4.573314125E0,4.276355320E-1,-1.811217148E0,-1.093671402E0,2.158586770E0
4.583382125E0,7.350985032E-1,-1.202576963E0,-8.241018963E-1,1.632698716E0
4.593449125E0,1.028676091E0,-4.243932509E-1,-7.790818441E-1,1.358400770E0
4.603517125E0,1.110840581E0,2.822667342E-1,-9.265977395E-1,1.473846897E0
4.613584125E0,1.195777820E0,9.077229273E-1,-1.174560614E0,1.906157953E0
4.623652125E0,1.271386704E0,1.552099541E0,-1.380283202E0,2.435286195E0
4.633719125E0,1.087226601E0,1.904251612E0,-1.355811435E0,2.578073026E0
4.643787125E0,6.910151750E-1,1.968140629E0,-1.165386332E0,2.389394235E0
4.653854125E0,1.331294060E-2,1.687659050E0,-1.099667137E0,2.014357990E0
4.663922125E0,-8.206163710E-1,1.027010804E0,-8.953993356E-1,1.590566689E0
4.673989125E0,-1.135113835E0,3.433169281E-1,-4.617347395E-1,1.272614986E0
4.684057125E0,-8.124788010E-1,-1.517937183E-1,8.209593102E-2,8.306039230E-1
4.694125125E0,-2.440376383E-1,-3.939035296E-1,5.958743982E-1,7.548381668E-1
4.704192125E0,4.052637926E-1,-4.760346901E-1,8.101305592E-1,1.023308014E0
4.714260125E0,9.466203600E-1,-4.597741681E-1,8.415511572E-1,1.347475693E0
4.724327125E0,9.553859210E-1,-3.485969639E-1,7.617026035E-1,1.270619124E0
4.734395125E0,1.037989829E0,-1.802778447E-1,7.770388269E-1,1.309088356E0
4.744462125E0,1.057897259E0,-5.243139803E-2,1.018998803E0,1.469780332E0
4.754530125E0,1.004144683E0,4.613219261E-2,1.583531249E0,1.875634809E0
4.764597125E0,7.944325393E-1,1.596184623E-1,2.252003653E0,2.393349445E0
4.774665125E0,1.845468968E-1,3.417615688E-1,2.734973141E0,2.762414996E0
4.784732125E0,-3.851642811E-1,6.752896732E-1,2.834896209E0,2.939558501E0
4.794800125E0,-7.380031076E-1,9.691625458E-1,2.737996151E0,2.996756172E0
4.804867125E0,-1.466519108E0,1.483932701E0,2.362815699E0,3.152083847E0
4.814935125E0,-2.708998347E0,1.864792846E0,1.754954362E0,3.727732450E0
4.825003125E0,-3.589718248E0,1.961417500E0,1.344930059E0,4.306050693E0
4.835070125E0,-3.892626531E0,2.231994481E0,1.141843249E0,4.630134628E0
4.845138125E0,-4.074285195E0,2.444827868E0,1.061685963E0,4.868691841E0
4.855205125E0,-4.334195393E0,2.457504047E0,9.833603163E-1,5.078540475E0
4.865273125E0,-4.381184202E0,2.246055281E0,9.958945540E-1,5.023081256E0
4.875340042E0,-3.814299861E0,1.744698054E0,1.198204561E0,4.362172497E0
4.885408042E0,-2.991548087E0,1.086819634E0,1.321183493E0,3.446166377E0
4.895475042E0,-2.668997253E0,3.847181386E-1,1.191628636E0,2.948140632E0
4.905543042E0,-2.868777023E0,-2.707208222E-1,9.146157713E-1,3.023192581E0
4.915610042E0,-3.210881824E0,-6.998982650E-1,6.863393028E-1,3.357183538E0
4.925678042E0,-3.631586359E0,-7.821440309E-1,5.889726372E-1,3.761257440E0
4.935745042E0,-4.165806399E0,-5.228036445E-1,7.366464074E-1,4.262618272E0
4.945813042E0,-4.889364545E0,-1.397221416E-1,1.238878963E0,5.045813019E0
4.955881042E0,-5.938640962E0,-3.901496172E-2,1.937636436E0,6.246872306E0
4.965948042E0,-7.391125583E0,-3.270131367E-1,2.639327019E0,7.855044372E0
4.976016042E0,-8.714878489E0,-6.675298333E-1,3.216275003E0,9.313384350E0
4.986083042E0,-9.584972245E0,-8.332989818E-1,3.549723001E0,1.025507745E1
4.996151042E0,-9.752711320E0,-8.280651391E-1,3.693501356E0,1.046150191E1
5.006218042E0,-9.336203624E0,-6.788804483E-1,4.477082047E0,1.037640788E1
5.016286042E0,-8.641222283E0,-4.603828633E-1,6.180606347E0,1.063402886E1
5.026353042E0,-7.720907376E0,-9.380296308E-1,8.365906134E0,1.142281470E1
5.036421042E0,-5.677147046E0,-2.369848437E0,1.066465243E1,1.231182325E1
5.046488042E0,-2.996406831E0,-4.642201570E0,1.071652542E1,1.205704799E1
5.056556042E0,3.105000150E-1,-7.042140949E0,7.681704719E0,1.042577320E1
5.066624042E0,2.709664053E0,-8.640095524E0,1.878296406E0,9.247784996E0
5.076691042E0,3.700324472E0,-9.167720198E0,-3.511782757E0,1.049152577E1
5.086759042E0,3.721183829E0,-9.353308484E0,-6.313864392E0,1.188261218E1
5.096826042E0,3.613240719E0,-8.841211091E0,-7.933537281E0,1.241626094E1
5.106894042E0,3.891146016E0,-8.914307719E0,-7.940696611E0,1.255629572E1
5.116961042E0,2.348758700E0,-8.907191073E0,-7.079841456E0,1.161804094E1
5.127029042E0,-5.836643887E-1,-6.732455451E0,-4.260477206E0,7.988634836E0
5.137096042E0,-1.202454756E0,-4.015934953E0,2.239365920E-1,4.198068435E0
5.147164042E0,-3.357664186E-1,-3.046743171E0,5.408841709E0,6.216988955E0
5.157231042E0,2.350175480E0,-3.546957852E0,2.901027634E0,5.149776318E0
5.167299042E0,4.494802619E0,-4.021238962E0,-3.676331592E0,7.063216502E0
5.177366042E0,3.180508170E0,-3.366967106E0,-4.596973357E0,6.525661940E0
5.187434042E0,8.491139460E-1,-2.409103720E0,-1.975041074E0,3.228863960E0
5.197502042E0,-4.047857827E-1,-1.723995402E0,-1.737652159E-1,1.779383608E0
5.207569042E0,-1.186448003E0,-1.210186529E0,-6.313574955E-2,1.695935265E0
5.217637042E0,-1.476464637E0,-6.647383726E-1,-2.223403752E-1,1.634399024E0
5.227704042E0,-7.606993675E-1,-1.079390162E-1,-4.931860355E-1,9.129878556E-1
5.237772042E0,3.224172252E-1,2.181642938E-1,-1.864510718E0,1.904717497E0
5.247839042E0,2.024269221E0,1.367663741E-2,-3.722546815E0,4.237358578E0
5.257907042E0,2.885393933E0,3.148550212E-1,-4.090734875E0,5.015849245E0
5.267974042E0,3.686719755E0,5.069676304E-1,-3.735489042E0,5.272835775E0
5.278042042E0,4.767875192E0,2.511759192E-1,-3.497100106E0,5.918228818E0
5.288109042E0,5.804836788E0,5.986554801E-2,-3.318406857E0,6.686668683E0
5.298177042E0,6.863786838E0,-2.705179238E-1,-2.910589878E0,7.460313877E0
5.308244042E0,7.686545044E0,-6.362501532E-1,-2.498949696E0,8.107560580E0
5.318312042E0,8.175929512E0,-6.947416055E-1,-2.343897325E0,8.533600879E0
5.328380042E0,8.132760689E0,-1.184517252E-1,-2.482941774E0,8.504165278E0
5.338447042E0,7.587823579E0,7.484968132E-1,-2.411952191E0,7.997051176E0
5.348515042E0,6.445624380E0,1.810713703E0,-2.010976746E0,6.990621234E0
5.358582042E0,4.894707146E0,2.721474551E0,-1.775000956E0,5.874964696E0
5.368650042E0,3.585216184E0,3.234634675E0,-1.539812787E0,5.068299516E0
5.378717042E0,2.919402509E0,3.393538608E0,-9.873959184E-1,4.584099256E0
5.388785042E0,2.659573880E0,3.304612691E0,-1.599032217E-1,4.244922531E0
5.398852042E0,2.197250326E0,3.007437603E0,6.968436795E-1,3.789219054E0
5.408920042E0,1.408828724E0,2.640152061E0,1.149646505E0,3.205758625E0
5.418987042E0,6.502378625E-1,2.204786510E0,1.173119567E0,2.580717410E0
5.429055042E0,-1.974780142E-1,1.629263492E0,1.310799569E0,2.100402962E0
5.439122042E0,-1.415872280E0,9.129588166E-1,2.134027014E0,2.718870981E0
5.449190042E0,-3.127369843E0,3.708961979E-1,2.850504767E0,4.247750411E0
5.459258042E0,-5.057770788E0,2.254274127E-1,2.061368051E0,5.466360865E0
5.469325042E0,-6.352708615E0,4.205206400E-1,7.310791272E-1,6.408449192E0
5.479393042E0,-6.669145308E0,6.098771641E-1,-3.256846493E-1,6.704887754E0
5.489460042E0,-5.766982498E0,8.451059720E-1,-1.007769957E0,5.915056342E0
5.499528042E0,-4.190043401E0,1.104996581E0,-1.186654117E0,4.492841989E0
5.509595042E0,-2.351578812E0,1.356827389E0,-8.605665949E-1,2.848065718E0
5.519663042E0,-6.795101935E-1,1.545433715E0,-2.427535897E-1,1.705587516E0
5.529730042E0,5.129048932E-1,1.727258733E0,5.730119312E-1,1.890723891E0
5.539798042E0,1.702616812E0,1.934671459E0,1.618908657E0,3.043472179E0
5.549865042E0,3.793122708E0,1.692145618E0,3.646161713E0,5.526810283E0
5.559933042E0,5.473762760E0,1.011315123E0,5.145089014E0,7.580024933E0
5.570000042E0,3.056655956E0,-6.296808064E-2,7.231291358E0,7.851030845E0
5.580068042E0,-2.206300646E0,-2.003991370E0,6.678224865E0,7.313168349E0
5.590136042E0,-3.735090262E0,-4.777478951E0,2.762731043E0,6.663924310E0
5.600203042E0,-1.862666799E0,-7.441052034E0,-9.667505693E-1,7.731325219E0
5.610271042E0,1.589209480E0,-7.527911253E0,-2.646022373E0,8.136121250E0
5.620338042E0,4.912532968E0,-4.034415371E0,-4.428933735E0,7.747576497E0
5.630406042E0,6.856870751E0,-1.599514613E-1,-3.659605631E0,7.773993462E0
5.640473042E0,8.758766520E0,2.933008980E0,-3.061124983E0,9.730828268E0
5.650541042E0,9.787640832E0,5.184341372E0,-2.553043458E0,1.136632480E1
5.660608042E0,9.085728786E0,5.316542240E0,-8.203585088E-1,1.055883881E1
5.670676042E0,4.606475667E0,2.974410775E0,4.552238649E-1,5.502178323E0
5.680743042E0,-2.696104360E-1,2.308030504E-1,-3.445349032E-1,4.946353553E-1
5.690811042E0,-2.597639002E0,-2.140157527E0,-2.349693085E0,4.104760678E0
5.700878042E0,-3.107152510E0,-4.749852319E0,-1.515015330E0,5.874586387E0
5.710946042E0,-2.189780508E0,-7.618862354E0,1.589108323E0,8.085014997E0
5.721014042E0,-1.950485546E0,-8.414932113E0,1.119531298E0,8.710271331E0
5.731081042E0,-1.711788170E0,-6.451241215E0,-1.843256089E0,6.924328485E0
5.741149042E0,-1.086744790E0,-3.214430791E0,-3.207522891E0,4.669237908E0
5.751216042E0,7.853044510E-2,-6.556751883E-1,-3.129846724E0,3.198752491E0
5.761284042E0,1.405340275E0,8.266723323E-1,-2.780146390E0,3.222977255E0
5.771351042E0,2.127489535E0,1.523881463E0,-3.188358641E0,4.124809966E0
5.781419042E0,2.333064773E0,1.635952706E0,-3.092193578E0,4.204901143E0
5.791486042E0,1.515044566E0,1.298280095E0,-1.995683354E0,2.821992787E0
5.801554042E0,4.744132572E-1,4.624574554E-1,-2.230191200E0,2.326518348E0
5.811621042E0,-1.092172176E-1,-8.359816843E-1,-2.344795749E0,2.491758593E0
5.821689042E0,-3.425684845E-1,-2.127476086E0,-1.544167793E0,2.651030335E0
5.831757042E0,-1.837312102E-1,-2.917915562E0,-9.046312121E-1,3.060448662E0
5.841824042E0,2.807967442E-1,-3.217898190E0,-3.478125599E-1,3.248798108E0
5.851892042E0,7.977093190E-1,-2.913640662E0,6.093763500E-2,3.021482329E0
5.861959042E0,1.415711482E0,-2.157103343E0,3.980804881E-1,2.610709081E0
5.872026750E0,2.185070575E0,-1.296787301E0,8.676344168E-1,2.684954414E0
5.882093750E0,2.527787579E0,-3.721220666E-1,1.024190108E0,2.752662394E0
5.892161750E0,2.545136853E0,2.536305803E-1,8.864142117E-1,2.706987297E0
5.902228750E0,2.662473514E0,4.466220260E-1,3.395627233E-1,2.720944558E0
5.912296750E0,2.675927373E0,3.310512239E-1,-8.075589538E-2,2.697536604E0
5.922363750E0,2.549432802E0,-9.488042951E-2,-1.192457771E-1,2.553983059E0
5.932431750E0,2.464297342E0,-6.111492258E-1,-3.429229720E-1,2.562003304E0
5.942498750E0,2.529470993E0,-8.296128970E-1,-8.370255585E-1,2.790536301E0
5.952566750E0,2.219854492E0,-7.756103522E-1,-9.147232139E-1,2.523102047E0
5.962634750E0,1.858241041E0,-7.982291365E-1,-5.657556096E-1,2.100073554E0
5.972701750E0,2.001976712E0,-8.048704040E-1,-6.999041853E-1,2.268389956E0
5.982769750E0,2.006963217E0,-6.776127720E-1,-1.207664040E0,2.438342236E0
5.992836750E0,1.552977208E0,-6.031467265E-1,-1.321367826E0,2.126390631E0
6.002904750E0,1.773945826E-1,-4.304568136E-1,-1.085651361E0,1.181270834E0
6.012971750E0,-1.481524233E0,-2.500573468E-1,-8.301970339E-1,1.716586684E0
6.023039750E0,-3.097888182E0,6.723245502E-2,-6.032262486E-1,3.156788447E0
6.033106750E0,-4.045997828E0,3.509586543E-1,-7.950961983E-1,4.138290512E0
6.043174750E0,-4.361639299E0,4.343978369E-1,-1.444124272E0,4.614985782E0
6.053241750E0,-4.546822958E0,6.541338623E-1,-1.720276573E0,4.905185176E0
6.063309750E0,-5.198289905E0,9.880835509E-1,-1.694237167E0,5.555984757E0
6.073377750E0,-4.992587782E0,1.323506738E0,-1.528439952E0,5.386439597E0
6.083444750E0,-2.996948867E0,1.007929001E0,-1.114207993E0,3.352474136E0
6.093512750E0,-1.254186242E0,2.693198293E-1,-3.241041470E-1,1.323087223E0
6.103579750E0,-1.096832407E-1,-2.065107930E-1,2.170194089E-1,3.190212293E-1
6.113647750E0,9.343640113E-1,-3.511030805E-1,5.620086408E-1,1.145496919E0
6.123714750E0,1.460880638E0,-3.681617475E-1,5.146040940E-1,1.592021571E0
6.133782750E0,1.437556679E0,-3.529835451E-1,4.222601867E-1,1.539308369E0
6.143849750E0,1.042910553E0,-1.969932801E-1,9.154085076E-1,1.401585356E0
6.153917750E0,3.490495384E-2,-9.174690664E-2,1.292980764E0,1.296701626E0
6.163984750E0,-8.421352941E-1,-3.700468898E-2,1.192505718E0,1.460353070E0
6.174052750E0,-1.304142222E0,2.268643659E-1,1.491917074E0,1.994510198E0
6.184119750E0,-1.567887023E0,8.217337739E-1,1.770700622E0,2.503776508E0
6.194187750E0,-1.445867034E0,1.463923529E0,1.479164296E0,2.534073913E0
6.204255750E0,-1.251906120E0,1.962643077E0,8.306554556E-1,2.471684702E0
6.214322750E0,-1.230808197E0,2.242598407E0,1.913513382E-1,2.565297598E0
6.224390750E0,-1.100365294E0,2.335460377E0,-3.441962763E-1,2.604544112E0
6.234457750E0,-7.716965184E-1,2.369302892E0,-4.700084766E-1,2.535748347E0
6.244525750E0,-4.618996310E-1,2.495235545E0,-4.695219152E-1,2.580698069E0
6.254592750E0,-5.278369278E-1,2.365724981E0,-4.840371895E-1,2.471752113E0
6.264660750E0,-7.941208827E-1,1.951694165E0,-4.496860401E-1,2.154519813E0
6.274727750E0,-8.347511378E-1,1.202538956E0,-5.032498976E-1,1.547956673E0
6.284795750E0,-7.971494481E-1,5.721909821E-2,-7.928847083E-1,1.125783029E0
6.294862750E0,-8.237493092E-1,-1.239267071E0,-1.024352806E0,1.806555969E0
6.304930750E0,-1.618008771E0,-2.615187666E0,-1.380549835E0,3.370916308E0
6.314997750E0,-2.564384425E0,-4.120464458E0,-1.611849314E0,5.113937137E0
6.325065750E0,-3.511316734E0,-5.683771942E0,-1.296773268E0,6.805602809E0
6.335133750E0,-4.063502345E0,-6.517572030E0,-1.774023302E-1,7.682595138E0
6.345200750E0,-5.459147644E0,-6.971683754E0,1.311572717E0,8.951362486E0
6.355268750E0,-7.356757404E0,-5.909795478E0,2.491146587E0,9.759783471E0
6.365335750E0,-8.570360461E0,-3.754069739E0,3.508436980E0,9.992659710E0
6.375403750E0,-9.166564204E0,-1.524512962E0,4.384536996E0,1.027493084E1
6.385470750E0,-9.258868350E0,5.668793714E-1,5.184397506E0,1.062666330E1
6.395538750E0,-9.418640009E0,2.113735714E0,5.722653587E0,1.122173883E1
6.405605750E0,-9.355940900E0,2.833975273E0,5.856849525E0,1.139595245E1
6.415673750E0,-8.707253720E0,2.645442914E0,5.517975311E0,1.064249440E1
6.425740750E0,-6.974178761E0,2.046449465E0,4.668521057E0,8.638414997E0
6.435808750E0,-4.634572708E0,1.164543748E0,3.113603743E0,5.703503712E0
6.445876750E0,-2.520102584E0,4.161632949E-1,1.440161321E0,2.932264236E0
6.455943750E0,-1.057549935E0,1.536355913E-1,2.070664246E-1,1.088527567E0
6.466011750E0,-3.739703715E-2,-2.475360274E-2,-5.105121394E-1,5.124782178E-1
6.476078750E0,4.148605353E-1,-5.035464245E-1,-8.648077266E-1,1.083310052E0
6.486146750E0,4.150111011E-1,-1.333270419E0,-1.307383626E0,1.912876412E0
6.496213750E0,5.158577371E-1,-2.457160816E0,-2.214628251E0,3.347883924E0
6.506281750E0,7.922526973E-1,-3.338470116E0,-2.501516039E0,4.246248879E0
6.516348750E0,1.137593932E0,-3.964792281E0,-1.956583607E0,4.565294864E0
6.526416750E0,1.197604198E0,-4.378461154E0,-1.565000253E0,4.801500149E0
6.536483750E0,1.659421383E0,-4.581868245E0,-1.465978825E0,5.088839736E0
6.546551750E0,2.199088690E0,-4.372195863E0,-1.886707041E0,5.245164553E0
6.556619750E0,2.295877651E0,-3.679945171E0,-2.295035652E0,4.907162041E0
6.566686750E0,2.139622507E0,-2.708981683E0,-2.604188468E0,4.324160474E0
6.576754750E0,1.619944784E0,-1.572360143E0,-2.563256789E0,3.415673124E0
6.586821750E0,1.200721641E0,-7.476308405E-1,-1.671074592E0,2.189332004E0
6.596889750E0,1.149066169E0,-2.012564850E-1,-6.771122503E-1,1.348828467E0
6.606956750E0,1.292451006E0,1.790838432E-1,-4.159159577E-1,1.369484104E0
6.617024750E0,1.433838435E0,3.691353089E-1,-4.800037801E-1,1.556456605E0
6.627091750E0,1.779282580E0,3.964757198E-1,-7.626616931E-1,1.976029442E0
6.637159750E0,1.961178934E0,6.954532117E-1,-9.772831589E-1,2.298904164E0
6.647226750E0,2.392621003E0,1.049287527E0,-1.122633830E0,2.843579838E0
6.657294750E0,3.837358648E0,1.229053740E0,-1.226272219E0,4.211844969E0
6.667361750E0,5.373878283E0,1.199954486E0,-1.493681179E0,5.705220595E0
6.677429750E0,6.380834307E0,1.520808751E0,-1.612985428E0,6.754970592E0
6.687497750E0,7.115056897E0,1.797468590E0,-1.530181253E0,7.496424658E0
6.697564750E0,7.820670816E0,1.968873285E0,-1.039281844E0,8.131387383E0
6.707632750E0,8.319703190E0,2.112335891E0,-5.960342465E-1,8.604340817E0
6.717699750E0,8.376617648E0,2.278595620E0,-3.046960688E-1,8.686343357E0
6.727767750E0,8.062829744E0,2.432117776E0,-2.005578889E-1,8.424051508E0
6.737834750E0,7.403952620E0,2.515935858E0,-4.636713374E-1,7.833481905E0
6.747902750E0,6.364943329E0,2.798832922E0,-9.071078002E-1,7.012047766E0
6.757969750E0,5.438130412E0,3.256004494E0,-1.037782545E0,6.422757995E0
6.768037750E0,4.961323305E0,3.770426740E0,-8.204532337E-1,6.285219984E0
6.778104750E0,4.531997343E0,4.216590344E0,-5.236123145E-2,6.190426136E0
6.788172750E0,3.485143427E0,4.546831729E0,1.668005827E0,5.966753465E0
6.798240750E0,1.257140840E0,4.453223069E0,4.119247652E0,6.195143260E0
6.808307750E0,-2.463486333E0,4.157001954E0,5.221206897E0,7.114100901E0
6.818375750E0,-6.485432809E0,3.928809101E0,2.628043354E0,8.025147447E0
6.828442750E0,-9.217450767E0,3.188269764E0,7.989610617E-1,9.785949188E0
6.838510750E0,-1.035662111E1,1.181959680E0,3.311528192E-1,1.042910790E1
6.848577750E0,-9.983759369E0,-1.971542539E0,-7.548287630E-2,1.017684277E1
6.858645750E0,-8.501092590E0,-4.674626135E0,6.035086691E-2,9.701770300E0
6.868712750E0,-6.741501094E0,-5.908850568E0,1.140707720E0,9.036789592E0
6.878784250E0,-3.910610812E0,-5.802405515E0,2.360397583E0,7.384596362E0
6.888851250E0,-8.314828366E-1,-4.242615716E0,2.644364687E0,5.067920325E0
6.898919250E0,7.767295092E-1,-1.879997361E0,1.792049829E0,2.710929988E0
6.908986250E0,2.214685553E0,-6.034542900E-1,-7.708618283E-2,2.296721894E0
6.919054250E0,4.284335600E0,-8.677765042E-1,-2.416939573E0,4.995013964E0
6.929122250E0,6.044615899E0,-1.701921578E0,-2.660699469E0,6.820061589E0
6.939189250E0,6.716101958E0,-3.449087741E0,4.182659537E-1,7.561559242E0
6.949257250E0,5.133898028E0,-6.071613663E0,5.248005856E0,9.526960003E0
6.959324250E0,-4.277758652E-1,-7.694232379E0,5.199298550E0,9.296069573E0
6.969392250E0,-5.401856625E0,-5.610156081E0,-2.303542181E0,8.121589305E0
6.979459250E0,-3.918789897E0,-3.273551989E0,-5.464973810E0,7.479237636E0
6.989527250E0,-1.183587545E-1,-2.539393133E0,-3.311174728E0,4.174494503E0
6.999594250E0,3.578705310E0,-1.355464110E0,8.324680924E-2,3.827707497E0
7.009662250E0,6.537037411E0,2.194249535E-1,1.846587979E0,6.796388201E0
7.019729250E0,7.446373585E0,1.473170900E0,-3.045908189E-1,7.596807727E0
7.029797250E0,6.353844144E0,2.408388605E0,-3.207611768E0,7.514016525E0
7.039865250E0,5.438416341E0,2.822186701E0,-4.034252526E0,7.335959618E0
7.049932250E0,4.594245631E0,2.583294613E0,-3.698257481E0,6.438758605E0
7.060000250E0,3.805717610E0,1.826507617E0,-3.260333773E0,5.333797232E0
7.070067250E0,2.830165812E0,4.004068029E-1,-2.345616991E0,3.697578018E0
7.080135250E0,5.948758399E-1,-1.327964655E0,-1.550026118E0,2.126017017E0
7.090202250E0,-1.014712940E0,-2.920339233E0,-1.203380370E0,3.317551492E0
7.100270250E0,-1.842958174E0,-4.289802747E0,-1.453369889E0,4.889906591E0
7.110337250E0,-2.262095363E0,-5.075881954E0,-1.788688996E0,5.837898711E0
7.120405250E0,-1.877947912E0,-5.085843855E0,-1.802938660E0,5.713412631E0
7.130472250E0,-2.855294806E-1,-3.350345226E0,-1.271260697E0,3.594780101E0
7.140540250E0,6.869835198E-1,-1.422256855E0,-8.454512501E-1,1.791521346E0
7.150608250E0,6.712708819E-1,-2.446018946E-1,-7.644462633E-1,1.046333013E0
7.160675250E0,1.505345204E-1,6.010949385E-1,-8.657562912E-1,1.064664136E0
7.170743250E0,-2.433517599E-1,1.135491858E0,-9.939237499E-1,1.528543836E0
7.180810250E0,-5.016788238E-1,1.392326127E0,-9.467706335E-1,1.756880280E0
7.190878250E0,-7.334010565E-1,1.628827874E0,-9.798038936E-1,2.037393684E0
7.200945250E0,-8.062725663E-1,1.869163640E0,-1.136650776E0,2.331485181E0
7.211013250E0,-6.070444804E-1,1.973073925E0,-1.154577169E0,2.365284793E0
7.221080250E0,-3.853692260E-1,1.854113492E0,-1.025143204E0,2.153407734E0
7.231148250E0,-3.066458228E-1,1.528697230E0,-7.261464161E-1,1.719952179E0
7.241215250E0,-1.684781635E-1,1.181379637E0,-5.103356631E-1,1.297877200E0
7.251283250E0,-4.080362499E-2,8.121332306E-1,-4.153826916E-1,9.131090299E-1
7.261350250E0,5.365989804E-3,4.025983393E-1,-6.413366461E-1,7.572495693E-1
7.271418250E0,1.441291881E-1,2.804055655E-1,-9.064324468E-1,9.596980174E-1
7.281486250E0,1.363675940E-1,2.837279534E-1,-9.990014720E-1,1.047426185E0
7.291553250E0,8.405197084E-2,3.024723727E-1,-1.249019058E0,1.287867570E0
7.301621250E0,2.602098674E-1,3.280323064E-1,-1.605119169E0,1.658831491E0
7.311688250E0,7.226646915E-1,4.142916012E-1,-1.280184717E0,1.527335817E0
7.321756250E0,1.212457295E0,3.224330127E-1,-7.796781870E-1,1.477130264E0
7.331823250E0,1.608346539E0,2.188361388E-1,-1.638833483E-1,1.631418278E0
7.341891250E0,1.753235866E0,3.177850610E-1,7.531026649E-1,1.934421611E0
7.351958250E0,1.732364814E0,4.966870558E-1,1.845745980E0,2.579644181E0
7.362026250E0,1.362594498E0,8.613662016E-1,3.151622339E0,3.539963117E0
7.372093250E0,5.151832607E-1,1.528027139E0,4.086354725E0,4.393014417E0
7.382161250E0,-9.186893803E-1,2.091658382E0,4.464160870E0,5.014753956E0
7.392229250E0,-2.298499542E0,2.348423070E0,4.242239156E0,5.366077163E0
7.402296250E0,-3.607356666E0,1.983886011E0,3.501724669E0,5.404711045E0
7.412364250E0,-4.555089751E0,1.025677639E0,2.357468859E0,5.230536940E0
7.422431250E0,-4.797936312E0,-1.018497258E-1,1.511175609E0,5.031323677E0
7.432499250E0,-4.708366908E0,-5.863418287E-1,9.640118797E-1,4.841676836E0
7.442566250E0,-4.330713083E0,-3.830680543E-1,2.757772020E-1,4.356359720E0
7.452634250E0,-4.238297548E0,-4.545333087E-2,-4.407023048E-1,4.261390692E0
7.462701250E0,-5.020823987E0,2.052606583E-2,-8.200389585E-1,5.087392133E0
7.472769250E0,-6.309983595E0,5.178177238E-2,-8.496986675E-1,6.367147096E0
7.482836250E0,-7.583726435E0,2.642631572E-1,-4.369507313E-1,7.600899131E0
7.492904250E0,-8.808163213E0,1.159736753E-1,1.861415787E-1,8.810893131E0
7.502972250E0,-9.827942766E0,-7.649385989E-1,5.350352888E-1,9.872175689E0
7.513039250E0,-1.035347764E1,-1.851158894E0,4.089930005E-1,1.052561466E1
7.523107250E0,-9.734370943E0,-2.260483870E0,5.388115668E-1,1.000790102E1
7.533174250E0,-8.579764538E0,-2.182662107E0,1.542364511E0,8.986393141E0
7.543242250E0,-7.638675059E0,-1.932704163E0,3.379056809E0,8.573373138E0
7.553309250E0,-6.720789671E0,-1.391172472E0,5.611323770E0,8.865175075E0
7.563377250E0,-5.452739096E0,-7.897074044E-1,7.605785640E0,9.391697218E0
7.573444250E0,-3.883072473E0,-5.350816280E-1,8.843934724E0,9.673662470E0
7.583512250E0,-1.969001631E0,-7.039492160E-1,6.811813277E0,7.125539421E0
7.593579250E0,-4.513287422E-1,-1.377899877E0,3.467714632E0,3.758636783E0
7.603647250E0,1.591074157E0,-2.266213557E0,6.323214090E-1,2.840259006E0
7.613715250E0,2.873381998E0,-3.675888373E0,-2.502022993E0,5.294204236E0
7.623782250E0,2.852481126E0,-4.285441309E0,-4.603632166E0,6.906162821E0
7.633850250E0,2.278777469E0,-4.379398463E0,-5.384954664E0,7.305456480E0
7.643917250E0,1.470554564E0,-4.411033069E0,-5.657426727E0,7.322992601E0
7.653985250E0,7.989576995E-1,-4.688049588E0,-5.560559413E0,7.316827409E0
7.664052250E0,1.258525461E-2,-4.636058486E0,-5.188307539E0,6.957853964E0
7.674120250E0,-9.118656796E-1,-3.993347159E0,-4.870158781E0,6.363707025E0
7.684187250E0,-1.364286389E0,-3.153353115E0,-4.491198980E0,5.654713211E0
7.694255250E0,-1.253987437E0,-2.443125159E0,-2.948997021E0,4.029631307E0
7.704322250E0,-1.715602309E-1,-2.493092541E0,5.665273690E-1,2.562400552E0
7.714390250E0,1.357086128E0,-2.717810394E0,3.967819970E0,4.997176343E0
7.724458250E0,3.648355004E0,-2.505082256E0,3.825986691E-2,4.425764924E0
7.734525250E0,5.013146008E0,-2.233297241E0,-4.004263326E0,6.793627473E0
7.744593250E0,4.630839261E0,-1.788682564E0,-4.548908075E0,6.733247526E0
7.754660250E0,3.763814709E0,-1.178594608E0,-3.282773048E0,5.131470091E0
7.764728250E0,2.909073402E0,-5.296302688E-1,-1.429592625E0,3.284349457E0
7.774795250E0,2.378957815E0,2.281297034E-1,-8.536848606E-1,2.537766988E0
7.784863250E0,2.264947634E0,8.817922801E-1,-1.455909481E0,2.833234517E0
7.794930250E0,2.402140855E0,1.075004166E0,-1.783951728E0,3.179370757E0
7.804998250E0,2.935305181E0,9.284366888E-1,-2.144044902E0,3.751658265E0
7.815065250E0,4.001895204E0,5.717173576E-1,-2.415804921E0,4.709367195E0
7.825133250E0,5.098597217E0,4.796570402E-1,-2.907257842E0,5.888795515E0
7.835201250E0,6.161770127E0,4.779134005E-1,-3.149589263E0,6.936549923E0
7.845268250E0,7.113734842E0,9.325367564E-1,-3.201640007E0,7.856548029E0
7.855336250E0,7.875034134E0,1.484705703E0,-3.345914498E0,8.684218875E0
7.865403250E0,8.685695035E0,2.081067320E0,-3.318262723E0,9.528011699E0
7.875468750E0,9.551648378E0,2.500095751E0,-3.117600900E0,1.035393166E1
7.885535750E0,1.013860183E1,2.868856253E0,-2.846840609E0,1.091448966E1
7.895603750E0,1.015656213E1,3.079452496E0,-2.546553633E0,1.091438122E1
7.905670750E0,1.001114890E1,2.918542383E0,-2.054613347E0,1.062837842E1
7.915738750E0,9.738798455E0,2.583089375E0,-1.364700372E0,1.016754411E1
7.925805750E0,9.197365581E0,2.136870223E0,-4.220945643E-1,9.451767655E0
7.935873750E0,8.174514486E0,1.575349240E0,1.295348740E0,8.425101820E0
7.945941750E0,6.035418813E0,1.010649710E0,4.003395599E0,7.312651326E0
7.956008750E0,2.858299105E0,4.679392201E-1,6.729992019E0,7.326775107E0
7.966076750E0,-1.294229144E0,-2.835051745E-1,8.541055970E0,8.643207816E0
7.976143750E0,-6.300666642E0,-9.107792670E-1,8.012088776E0,1.023335163E1
7.986211750E0,-1.129154294E1,-5.734101266E-1,3.999096726E0,1.199251916E1
7.996278750E0,-1.437840854E1,-5.865189993E-1,-6.205198275E-1,1.440373846E1
8.006346750E0,-1.583447984E1,-2.031419781E0,-3.561503971E0,1.635670287E1
8.016413750E0,-1.665782862E1,-4.004290808E0,-3.163357701E0,1.742195256E1
8.026481750E0,-1.563886241E1,-5.012411597E0,-6.359082372E-1,1.643480048E1
8.036548750E0,-9.758212380E0,-3.311987491E0,1.745343586E0,1.045170772E1
8.046616750E0,-3.573085551E0,-1.704527682E-1,4.545410271E0,5.784180930E0
8.056684750E0,-9.082731503E-1,1.432306464E0,6.976642778E0,7.179833311E0
8.066751750E0,1.549299894E0,2.332366616E-1,5.822597705E0,6.029707583E0
8.076819750E0,3.850845251E0,-3.026166235E0,2.287454006E0,5.405472880E0
8.086886750E0,5.501233563E0,-3.877059488E0,-5.429713491E-1,6.752035166E0
8.096954750E0,5.903936568E0,-3.188535812E0,-2.613538751E0,7.200959132E0
8.107021750E0,5.389409072E0,-4.057617415E0,-3.275841758E0,7.499408541E0
8.117089750E0,5.289280182E0,-6.191495032E0,-1.308093477E0,8.247557464E0
8.127156750E0,6.605278510E0,-8.870755318E0,3.607137980E0,1.163320457E1
8.137224750E0,5.952713456E0,-9.792506300E0,5.448705686E0,1.268922262E1
8.147291750E0,2.226206907E0,-6.649028547E0,3.736370802E-3,7.011818008E0
8.157359750E0,2.267994034E0,-3.487826130E0,-3.799765145E0,5.634442581E0
8.167427750E0,2.646602417E0,-1.962916142E0,-4.307246161E0,5.423090781E0
8.177494750E0,3.269952443E0,-4.968677348E-1,-4.419398096E0,5.520013229E0
8.187562750E0,3.718870670E0,1.203888493E0,-5.175810285E0,6.486012540E0
8.197629750E0,3.583128144E0,2.481153696E0,-5.970546294E0,7.392046672E0
8.207697750E0,2.741155402E0,3.244105411E0,-6.101264893E0,7.433948221E0
8.217764750E0,1.149860221E0,3.274165362E0,-4.708359307E0,5.849015704E0
8.227832750E0,-4.817035657E-1,2.421301011E0,-2.563697670E0,3.559112622E0
8.237899750E0,-1.431091413E0,1.208952182E0,-1.679738996E0,2.516169928E0
8.247967750E0,-2.233536392E0,-1.410342568E-1,-1.424339633E0,2.652794539E0
8.258034750E0,-2.874888825E0,-1.350844225E0,-1.187831381E0,3.391269566E0
8.268102750E0,-2.391084940E0,-2.015574412E0,-1.003004476E0,3.284181082E0
8.278170750E0,-9.335038859E-1,-1.576857821E0,-7.986343485E-1,1.998931444E0
8.288237750E0,-4.485340655E-2,-8.105199838E-1,-6.373406589E-1,1.032064721E0
8.298305750E0,1.892275929E-2,-2.895459330E-1,-5.802484453E-1,6.487550974E-1
8.308372750E0,-2.006822884E-1,1.350607413E-1,-3.901379228E-1,4.590450779E-1
8.318440750E0,-3.509393585E-1,5.249753004E-1,6.091625612E-2,6.344038853E-1
8.328507750E0,-3.446211496E-1,8.784605366E-1,3.531671476E-1,1.007563241E0
8.338575750E0,-2.006559759E-1,1.189571001E0,2.889962947E-1,1.240508301E0
8.348642750E0,1.860087007E-2,1.286299151E0,-8.312050939E-2,1.289116176E0
8.358710750E0,-1.721364740E-1,9.256715405E-1,-1.001392983E0,1.374513250E0
8.368777750E0,-3.418831909E-1,4.537445194E-1,-1.872989473E0,1.957257717E0
8.378845750E0,8.320441693E-2,9.315608561E-2,-1.989832630E0,1.993748962E0
8.388913750E0,4.618566540E-1,-7.043380558E-2,-1.580312941E0,1.647926419E0
8.398980750E0,1.042304782E0,-4.350036085E-1,-1.302025237E0,1.723629054E0
8.409048750E0,1.348452422E0,-3.902612990E-1,-1.331453104E0,1.934785565E0
8.419115750E0,9.234259173E-1,-2.459151793E-1,-6.848001695E-1,1.175644918E0
8.429183750E0,8.379937112E-1,-1.547541636E-1,4.736478567E-1,9.749485132E-1
8.439250750E0,1.140279558E0,1.105112064E-1,1.224405715E0,1.676788464E0
8.449318750E0,1.668047488E0,4.241821665E-1,1.728699925E0,2.439409020E0
8.459385750E0,1.762848103E0,7.697052491E-1,1.688187053E0,2.559307549E0
8.469453750E0,1.120422413E0,8.420440775E-1,7.581641610E-1,1.593485961E0
8.479520750E0,3.382526547E-1,8.559043175E-1,-4.754695567E-1,1.035885302E0
8.489588750E0,-1.032618284E-2,8.440888488E-1,-8.290158963E-1,1.183156782E0
8.499656750E0,-5.850241587E-1,6.259111065E-1,-3.205044548E-1,9.147355273E-1
8.509723750E0,-8.748013490E-1,8.067257255E-1,6.464659698E-1,1.354253317E0
8.519791750E0,-6.396774986E-1,1.286639459E0,2.180811610E0,2.611621656E0
8.529858750E0,-9.359380817E-1,1.346024950E0,3.277881559E0,3.665006245E0
8.539926750E0,-1.852638239E0,1.263533601E0,3.148844035E0,3.865747581E0
8.549993750E0,-2.143418812E0,1.675260614E0,1.871040158E0,3.301747052E0
8.560061750E0,-1.985158073E0,1.588727084E0,5.015965243E-1,2.591622155E0
8.570128750E0,-1.591273839E0,1.095136129E0,-2.380047736E-1,1.946309802E0
8.580196750E0,-1.552056271E0,3.598668873E-2,-1.770091049E-1,1.562531899E0
8.590263750E0,-2.293254882E0,-1.108100576E0,9.726049478E-1,2.726328158E0
8.600331750E0,-2.623863180E0,-1.654170291E0,3.070076193E0,4.364207278E0
8.610399750E0,-1.307530391E0,-1.506937986E0,4.233966515E0,4.680488251E0
8.620466750E0,7.329335716E-1,-7.931367964E-1,2.524596461E0,2.745877800E0
8.630534750E0,1.297268527E0,4.764603674E-2,-6.100841555E-1,1.434356460E0
8.640601750E0,1.166594659E0,3.716466880E-1,-2.591713726E0,2.866364317E0
8.650669750E0,2.541612151E-1,-6.713901651E-1,-3.511775448E0,3.584400853E0
8.660736750E0,-1.209768161E0,-2.830532432E0,-3.440354340E0,4.616437028E0
8.670804750E0,-2.309967394E0,-4.495546385E0,-1.537664373E0,5.283019817E0
8.680871750E0,-2.800656669E0,-4.524586582E0,1.744130874E0,5.599781604E0
8.690939750E0,-3.965441615E0,-3.622692744E0,4.183456804E0,6.808079079E0
8.701006750E0,-5.622173864E0,-2.373647958E0,3.914041665E0,7.250018327E0
8.711074750E0,-6.679758589E0,-1.310091471E0,2.030583630E0,7.103434687E0
8.721142750E0,-7.923461359E0,-8.514528322E-1,1.118251781E0,8.047154707E0
8.731209750E0,-8.392777598E0,-3.120699924E-1,1.678915708E0,8.564745264E0
8.741277750E0,-7.856796083E0,3.614579147E-1,3.026126181E0,8.427178424E0
8.751344750E0,-7.262755226E0,9.034766793E-1,4.259511831E0,8.468017750E0
8.761412750E0,-6.981725178E0,1.226153521E0,4.784010583E0,8.551882610E0
8.771479750E0,-6.727125714E0,1.350323238E0,4.453115480E0,8.179720698E0
8.781547750E0,-6.263540331E0,1.237712882E0,3.515654783E0,7.288600634E0
8.791614750E0,-5.563171949E0,9.128035730E-1,2.800357876E0,6.294767409E0
8.801682750E0,-4.882902495E0,3.270148909E-1,2.701079171E0,5.589767813E0
8.811749750E0,-4.266707999E0,-3.024407977E-1,2.894163587E0,5.164537777E0
8.821817750E0,-4.139720508E0,-8.549950755E-1,2.892200092E0,5.121828174E0
8.831885750E0,-4.149892617E0,-1.353674862E0,2.652430336E0,5.107781422E0
8.841952750E0,-3.798890986E0,-2.235850720E0,2.154408946E0,4.906330510E0
8.852020750E0,-2.680143800E0,-3.267172676E0,9.728690958E-1,4.336365109E0
8.862087750E0,-1.017452069E0,-4.445826341E0,-6.413285331E-1,4.605635988E0
8.872155750E0,1.392145156E0,-5.424804608E0,-3.504495957E0,6.606668228E0
8.882221792E0,3.795623562E0,-5.297828811E0,-5.723496171E0,8.673647258E0
8.892289792E0,5.024307758E0,-4.574027129E0,-6.824081905E0,9.629822764E0
8.902356792E0,4.410952962E0,-4.097870817E0,-6.778407549E0,9.066193257E0
8.912424792E0,3.753740541E0,-4.939043659E0,-5.757028198E0,8.463338230E0
8.922492792E0,1.320669669E-1,-5.355522119E0,-1.037409054E0,5.456672649E0
8.932559792E0,-2.604646890E0,-5.153290903E0,9.544945130E-1,5.852491122E0
8.942627792E0,-2.040898703E0,-4.369252374E0,-2.361037707E0,5.369369877E0
8.952694792E0,-1.143896645E0,-3.269654235E0,-3.168041321E0,4.694211772E0
8.962762792E0,-1.171752196E0,-2.327529214E0,-1.064154657E0,2.814750537E0
8.972829792E0,-1.919170198E0,-1.502895221E0,6.003709070E-1,2.510448868E0
8.982897792E0,-2.401238045E0,-1.289097628E0,1.560189164E-1,2.729845920E0
8.992964792E0,-2.485705753E0,-1.450496567E0,-1.585979624E0,3.286031763E0
9.003032792E0,-2.273557075E0,-1.375443462E0,-2.079192703E0,3.374010786E0
9.013099792E0,-1.592536545E0,-1.213349873E0,-1.169156690E0,2.318473189E0
9.023167792E0,3.641634214E-1,-1.275185933E0,2.154248001E-1,1.343548289E0
9.033235792E0,3.789205658E0,-1.705660872E0,-1.268144131E-2,4.155420478E0
9.043302792E0,5.536694587E0,-1.468449858E0,-1.420274502E0,5.901568571E0
9.053370792E0,7.126978201E0,-9.832519966E-1,-2.614248018E0,7.654730267E0
9.063437792E0,8.373723276E0,-1.844106567E-1,-3.419714838E0,9.046971779E0
9.073505792E0,9.210483225E0,6.426534390E-1,-3.879493684E0,1.001481283E1
9.083572792E0,9.827111292E0,1.421790832E0,-4.073827651E0,1.073264540E1
9.093640792E0,9.944027538E0,1.991443537E0,-4.157190235E0,1.096046357E1
9.103707792E0,9.811489871E0,2.544480211E0,-3.867315688E0,1.084877153E1
9.113775792E0,1.022322039E1,2.994341009E0,-3.215354651E0,1.112739047E1
9.123842792E0,1.078906481E1,3.367830155E0,-2.554350895E0,1.158753243E1
9.133910792E0,1.102293706E1,3.650643604E0,-1.829732941E0,1.175501011E1
9.143978792E0,1.059327196E1,3.831604403E0,-1.227940722E0,1.133165661E1
9.154045792E0,9.603300927E0,4.006157239E0,-6.564120837E-1,1.042610001E1
9.164113792E0,8.711484765E0,4.328626505E0,5.159850602E-1,9.741314840E0
9.174180792E0,7.636173036E0,4.586703308E0,2.300515516E0,9.200073777E0
9.184248792E0,5.312211792E0,4.519674920E0,4.629347344E0,8.371255124E0
9.194315792E0,2.076823996E0,4.351686169E0,7.464421601E0,8.886391858E0
9.204383792E0,-2.430360103E0,4.239718421E0,8.946492548E0,1.019419401E1
9.214450792E0,-7.951122782E0,4.199127050E0,7.109636528E0,1.146298186E1
9.224518792E0,-1.137874247E1,3.330211508E0,3.661248699E-2,1.185611359E1
9.234585792E0,-1.075883938E1,1.136615108E0,-7.927873667E0,1.341252025E1
9.244653792E0,-1.254594729E1,-1.747691243E0,-8.103996481E0,1.503761873E1
9.254721792E0,-1.543349300E1,-3.642225952E0,-3.621631474E0,1.626575330E1
9.264788792E0,-1.569641773E1,-3.534066496E0,-5.978544116E-2,1.608946021E1
9.274856792E0,-7.972016053E0,-1.315128263E0,4.850567977E-1,8.094311730E0
9.284923792E0,2.494975344E0,8.253707421E-1,-1.306674797E0,2.934882937E0
9.294991792E0,8.457284081E0,2.137415768E0,-1.518544124E0,8.854387412E0
9.305058792E0,1.404881970E1,1.593839305E0,5.265829924E0,1.508769776E1
9.315126792E0,1.836124650E1,-1.266709224E0,1.319790482E1,2.264783912E1
9.325193792E0,1.451720741E1,-5.038158057E0,1.159763650E1,1.925194847E1
9.335261792E0,4.382246642E0,-7.575939698E0,4.770924515E0,9.967982176E0
9.345328792E0,-7.430013075E0,-7.047855433E0,-5.992885582E0,1.186558208E1
9.355396792E0,-1.301633123E1,-6.570765905E0,-1.223320428E1,1.903289600E1
9.365464792E0,-1.240515920E1,-1.014971387E1,-7.414923166E0,1.766028743E1
9.375531792E0,-6.355612342E0,-1.115341534E1,2.448813915E-2,1.283717576E1
9.385599792E0,3.833375525E0,-4.942481822E0,-9.398295499E-1,6.325043404E0
9.395666792E0,7.145126789E0,1.015364905E0,-3.846975564E0,8.178204186E0
9.405734792E0,6.582950333E0,5.086988155E0,-5.052681956E0,9.733564533E0
9.415801792E0,7.319663252E0,7.394945569E0,-3.605388494E0,1.101188069E1
9.425869792E0,8.045774585E0,8.348794842E0,-9.046350127E-1,1.162992814E1
9.435936792E0,7.557856014E0,7.661485047E0,2.139030184E0,1.097246512E1
9.446004792E0,3.611972458E0,3.604197416E0,2.983704924E0,5.910928787E0
9.456071792E0,-1.710871911E-1,-1.068847632E0,-1.146767811E-1,1.088511301E0
9.466139792E0,-4.848674941E-1,-3.826843600E0,-2.062760857E0,4.374335468E0
9.476207792E0,-7.486488408E-1,-6.656615310E0,-1.030023290E0,6.777311447E0
9.486274792E0,-7.976596177E-2,-7.643905393E0,-2.427874671E-1,7.648176124E0
9.496342792E0,1.938974133E0,-7.741072669E0,-1.696967232E0,8.158647225E0
9.506409792E0,2.528606189E0,-5.843510272E0,-3.024453585E0,7.048956025E0
9.516477792E0,2.860621619E0,-1.650595888E0,-2.448643177E0,4.111383738E0
9.526544792E0,2.730219939E0,1.065988344E0,-1.065180259E0,3.118499808E0
9.536612792E0,1.160703882E0,2.464792601E0,-1.985422075E-1,2.731639632E0
9.546679792E0,-5.377532208E-1,2.840200219E0,2.656039238E-1,2.902836760E0
9.556747792E0,-1.670492209E0,2.216475386E0,5.249302769E-1,2.824687443E0
9.566815792E0,-2.291366524E0,1.228643850E0,4.963280368E-1,2.646935545E0
9.576882792E0,-2.403630726E0,2.508899903E-1,7.082850178E-2,2.417726852E0
9.586950792E0,-1.829430640E0,-3.238252348E-1,-1.294339565E-1,1.862372787E0
9.597017792E0,-1.250017177E0,-4.434756392E-1,-1.941930485E-1,1.340494135E0
9.607085792E0,-7.364234823E-1,-5.286643088E-1,-4.993545556E-1,1.034968825E0
9.617152792E0,-6.384732646E-1,-7.511239672E-1,-9.179555547E-1,1.347025510E0
9.627220792E0,-4.290733624E-1,-9.219743460E-1,-1.374680400E0,1.709937673E0
9.637287792E0,-1.346426654E-1,-8.619754815E-1,-1.424538438E0,1.670461056E0
9.647355792E0,1.116730481E-1,-6.679251051E-1,-1.267137240E0,1.436743401E0
9.657422792E0,-7.900962442E-2,-4.555086243E-1,-1.325467894E0,1.403779101E0
9.667490792E0,-1.448732463E-1,-2.298838681E-1,-1.396904497E0,1.423087146E0
9.677558792E0,-2.265956864E-1,-4.569131255E-2,-1.271300458E0,1.292144789E0
9.687625792E0,-2.533943528E-1,2.930039763E-2,-1.050879723E0,1.081395119E0
9.697693792E0,-2.812455180E-1,-1.708369303E-1,-1.079560901E0,1.128599148E0
9.707760792E0,-4.952480561E-1,-5.878007090E-1,-1.018394347E0,1.275894728E0
9.717828792E0,-8.503041467E-1,-6.298813659E-1,-5.909704846E-1,1.212028791E0
9.727895792E0,-8.206216335E-1,-4.749646497E-1,-1.214583635E-1,9.559097332E-1
9.737963792E0,-6.397195986E-1,-2.464981467E-1,5.884404858E-2,6.880880199E-1
9.748030792E0,-3.462028214E-1,7.876199484E-2,5.740564266E-2,3.596599133E-1
9.758098792E0,-2.741402739E-1,5.340665513E-1,-2.907317118E-1,6.670119184E-1
9.768166792E0,-1.745148289E-1,9.062429971E-1,-5.075838904E-1,1.053267868E0
9.778233792E0,-2.775682041E-1,1.099133871E0,-6.959519792E-1,1.330221234E0
9.788301792E0,-8.297526455E-1,1.171206651E0,-8.812128210E-1,1.684265569E0
9.798368792E0,-1.223140158E0,1.405580011E0,-9.109307098E-1,2.074011035E0
9.808436792E0,-1.321469568E0,1.753378830E0,-8.945631838E-1,2.370835808E0
9.818503792E0,-9.107371670E-1,2.143857645E0,-5.402722013E-1,2.391121461E0
9.828571792E0,-4.730455935E-2,2.301141315E0,-2.893311940E-2,2.301809331E0
9.838638792E0,6.644042042E-1,2.203961175E0,4.201049395E-1,2.339949993E0
9.848706792E0,4.371404734E-1,1.652281641E0,9.659203378E-1,1.963193448E0
9.858773792E0,-6.475914127E-1,8.874348432E-1,1.461942054E0,1.828712609E0
9.868841792E0,-1.663263296E0,2.016470790E-2,1.924206405E0,2.543505789E0
9.878910625E0,-2.016621356E0,-8.345573026E-1,2.332587640E0,3.194403338E0
9.888977625E0,-1.968793763E0,-1.290662343E0,2.460052264E0,3.404969208E0
9.899045625E0,-2.096642256E0,-1.058596879E0,2.292193905E0,3.281872789E0
9.909112625E0,-2.770152622E0,-2.048396587E-2,2.048855009E0,3.445572810E0
9.919180625E0,-5.300161850E0,1.118720874E0,1.629248435E0,5.656651173E0
9.929247625E0,-9.328638496E0,1.108599928E0,4.635253032E-1,9.405708145E0
9.939315625E0,-1.202105443E1,6.908040905E-1,-6.530005988E-1,1.205858075E1
9.949382625E0,-1.332748379E1,2.401322830E-1,-1.042362084E0,1.337034055E1
9.959450625E0,-1.381012934E1,2.002355611E-1,-4.824197765E-1,1.382000346E1
9.969517625E0,-1.301867128E1,1.035645388E0,8.162549329E-1,1.308528316E1
9.979585625E0,-1.096783407E1,1.362041059E0,2.258632057E0,1.128051235E1
9.989653625E0,-8.525606457E0,7.764044040E-1,3.501834304E0,9.249411481E0
9.999720625E0,-5.992105563E0,1.856198609E-1,4.726180451E0,7.633908925E0
1.000978863E1,-3.554917667E0,-4.277986693E-1,5.515243492E0,6.575588346E0
1.001985563E1,-1.677384907E0,-1.045685057E0,5.189132581E0,5.552852808E0
1.002992363E1,-5.406192335E-1,-1.516536775E0,3.993323185E0,4.305668706E0
1.003999063E1,1.045809603E-1,-2.254893932E0,2.153735347E0,3.119945475E0
1.005005863E1,5.341150832E-1,-2.891598414E0,-6.530754249E-2,2.941238750E0
1.006012563E1,1.105098908E0,-3.253511826E0,-1.897284654E0,3.925082402E0
1.007019363E1,1.363755462E0,-3.561850126E0,-2.974218986E0,4.836588039E0
1.008026063E1,1.139463579E0,-4.125563815E0,-3.511745335E0,5.536335370E0
1.009032863E1,7.992994693E-1,-5.236345339E0,-3.982062618E0,6.626840487E0
1.010039663E1,6.247776237E-1,-5.580804813E0,-4.155134354E0,6.985762015E0
1.011046363E1,6.899106359E-1,-5.044815112E0,-4.223763124E0,6.615611168E0
1.012053163E1,1.162023014E0,-5.602113821E0,-4.185668514E0,7.088991300E0
1.013059863E1,1.679929615E0,-5.151659530E0,-3.608140778E0,6.510026060E0
1.014066663E1,2.173947417E0,-4.413283662E0,-2.157249523E0,5.371856808E0
1.015073363E1,2.225854320E0,-3.568800126E0,-4.698822498E-2,4.206301189E0
1.016080163E1,2.669670267E0,-2.635640641E0,1.192420934E0,3.936446190E0
1.017086863E1,3.131337179E0,-1.985760044E0,7.133058574E-1,3.775886747E0
1.018093663E1,4.081783957E0,-1.622127550E0,-1.150895762E0,4.540574756E0
1.019100463E1,4.560463927E0,-9.775474530E-1,-2.363992451E0,5.228947367E0
1.020107163E1,4.140601684E0,-2.137379515E-1,-2.054530317E0,4.627241191E0
1.021113963E1,3.432950011E0,5.708870530E-1,-8.490261646E-1,3.582164602E0
1.022120663E1,2.768334430E0,1.145835582E0,-1.520486569E-1,2.999955581E0
1.023127463E1,2.042133050E0,1.576439161E0,6.082968079E-2,2.580536392E0
1.024134163E1,1.331371828E0,1.805127858E0,1.591027379E-3,2.242998007E0
1.025140963E1,1.143960380E0,1.718083282E0,-2.778849770E-1,2.082708711E0
1.026147663E1,1.580260901E0,1.423094761E0,-8.551377475E-1,2.292091573E0
1.027154463E1,2.357848781E0,1.084822226E0,-1.536798547E0,3.016295727E0
1.028161163E1,3.174956823E0,8.302835727E-1,-1.989248493E0,3.837555368E0
1.029167963E1,4.706632624E0,4.782075155E-1,-2.506433548E0,5.353810065E0
1.030174763E1,6.023721458E0,3.771781540E-1,-2.826471541E0,6.664564872E0
1.031181463E1,6.999331144E0,5.181919456E-1,-2.811013257E0,7.560486419E0
1.032188263E1,7.715278847E0,7.684059978E-1,-2.239564871E0,8.070416735E0
1.033194963E1,8.279439263E0,9.221246195E-1,-1.429798009E0,8.452440515E0
1.034201763E1,8.414601161E0,1.122428593E0,-7.876035762E-1,8.525589601E0
1.035208463E1,8.026731958E0,1.488776534E0,-5.607644995E-1,8.182868587E0
1.036215263E1,7.210613265E0,1.992641047E0,-5.802791432E-1,7.503351643E0
1.037221963E1,6.338902169E0,2.380386289E0,-5.531606340E-1,6.793666631E0
1.038228763E1,5.518886307E0,2.536384740E0,-1.488959844E-1,6.075650059E0
1.039235463E1,4.728058577E0,2.407988071E0,5.958521788E-1,5.339286869E0
1.040242263E1,4.043385292E0,2.173714698E0,1.656058942E0,4.880218379E0
1.041249063E1,3.042674679E0,2.087778754E0,2.698907515E0,4.571738302E0
1.042255763E1,1.404155629E0,2.112699587E0,2.964198028E0,3.901489783E0
1.043262563E1,-8.652353042E-1,2.030809332E0,2.447850440E0,3.296178159E0
1.044269263E1,-3.359466298E0,1.723247543E0,2.494417520E0,4.525230896E0
1.045276063E1,-5.908779817E0,1.399994751E0,2.665878932E0,6.631785182E0
1.046282763E1,-8.364824983E0,1.079499505E0,1.930585717E0,8.652327860E0
1.047289563E1,-1.038846037E1,1.436912316E-1,7.980876338E-1,1.042006237E1
1.048296263E1,-1.199531265E1,-1.911857670E0,1.107291248E0,1.219708241E1
1.049303063E1,-1.274485904E1,-3.924348260E0,2.854749845E0,1.363750483E1
1.050309863E1,-1.254850018E1,-4.619845911E0,4.274466670E0,1.403847920E1
1.051316563E1,-1.020230139E1,-3.335527797E0,4.488688186E0,1.163447554E1
1.052323363E1,-6.299634608E0,-1.082889136E0,3.929323071E0,7.503174320E0
1.053330063E1,-3.719475857E0,-3.005644262E-1,2.334240063E0,4.401535675E0
1.054336863E1,-6.592835051E-1,-1.411644158E0,-4.389471169E-1,1.618662578E0
1.055343563E1,2.903102810E0,-2.012481235E0,-2.870142056E0,4.551461531E0
1.056350363E1,4.832336651E0,-2.074396232E0,-4.575842105E0,6.970862802E0
1.057357063E1,5.260382658E0,-3.378016589E0,-4.916130760E0,7.953047430E0
1.058363863E1,5.808342778E0,-5.866337217E0,-1.554958829E0,8.400515171E0
1.059370663E1,7.449683109E0,-9.538458813E0,4.794623280E0,1.301800243E1
1.060377363E1,6.661187248E0,-1.041722633E1,3.052965778E0,1.273619331E1
1.061384163E1,6.054172588E0,-7.130086581E0,-4.653750991E0,1.044741780E1
1.062390863E1,7.232066115E0,-3.147128170E0,-3.816740781E0,8.762117677E0
1.063397663E1,6.458160226E0,9.101191163E-3,9.264065355E-1,6.524273554E0
1.064404363E1,5.472041339E0,1.496296054E0,2.269051795E0,6.109888243E0
1.065411163E1,5.485234412E0,1.041410158E0,-1.264853318E0,5.724699607E0
1.066417863E1,5.492450461E0,4.061744964E-1,-3.624767336E0,6.593248670E0
1.067424662E1,5.065925900E0,-4.902948797E-2,-3.860920004E0,6.369671293E0
1.068431363E1,4.075768926E0,-3.559182626E-1,-3.681819788E0,5.504031895E0
1.069438163E1,2.563689483E0,-6.060662413E-1,-3.243376848E0,4.178434328E0
1.070444963E1,1.130324673E0,-8.320412457E-1,-2.463118544E0,2.834939058E0
1.071451663E1,-1.770010650E-2,-8.855853689E-1,-1.726776338E0,1.940703805E0
1.072458463E1,-8.034179556E-1,-9.544152832E-1,-1.663867314E0,2.079625779E0
1.073465163E1,-1.773021966E0,-9.787467170E-1,-2.173536358E0,2.970826876E0
1.074471963E1,-2.833508080E0,-6.870390683E-1,-2.539593108E0,3.866564868E0
1.075478663E1,-3.514566616E0,-2.763066673E-1,-2.379635507E0,4.253373840E0
1.076485463E1,-3.494777884E0,1.430392671E-1,-2.109414037E0,4.084551416E0
1.077492163E1,-2.648969370E0,2.723001552E-1,-1.745288622E0,3.183899884E0
1.078498963E1,-1.446231608E0,1.673122287E-1,-1.352322986E0,1.987047233E0
1.079505763E1,-3.201648778E-1,1.683121026E-2,-9.621441329E-1,1.014154905E0
1.080512463E1,5.050485742E-1,-1.968470997E-1,-5.753999341E-1,7.905111809E-1
1.081519263E1,7.686831558E-1,-1.379972130E-1,-5.660245085E-1,9.645210049E-1
1.082525963E1,9.179488304E-1,1.076367152E-1,-7.510456145E-1,1.190917811E0
1.083532763E1,1.151376111E0,4.526335484E-1,-8.562276685E-1,1.504549733E0
1.084539463E1,1.289022199E0,7.357715178E-1,-1.127588761E0,1.863972738E0
1.085546263E1,1.243591380E0,8.366780877E-1,-1.352149909E0,2.018628029E0
1.086552963E1,8.940012664E-1,7.544796842E-1,-1.422707090E0,1.841893950E0
1.087559763E1,6.267513514E-1,5.698117501E-1,-1.222783771E0,1.487515659E0
1.088566475E1,5.343238288E-1,4.845979375E-1,-6.173735869E-1,9.494668298E-1
1.089573175E1,5.336946684E-1,3.889497685E-1,7.012214899E-2,6.641001711E-1
1.090579975E1,4.317408621E-1,4.022627091E-1,4.492309805E-1,7.416359842E-1
1.091586675E1,1.529655004E-1,5.296448869E-1,5.891467381E-1,8.068556435E-1
1.092593475E1,-7.228386462E-2,4.788577259E-1,5.777587008E-1,7.538798280E-1
1.093600175E1,-2.444995683E-1,3.424860388E-1,4.754102075E-1,6.348949449E-1
1.094606975E1,-5.233059204E-1,2.016254443E-1,3.877370560E-1,6.817931730E-1
1.095613675E1,-4.518406659E-1,1.968102622E-1,2.612184390E-1,5.577896912E-1
1.096620475E1,-2.802447671E-1,6.142348015E-1,2.876058999E-1,7.338519432E-1
1.097627175E1,-2.054506928E-1,1.145646717E0,5.191673342E-1,1.274461105E0
1.098633975E1,-2.270035297E-1,1.550992078E0,7.877439094E-1,1.754322518E0
1.099640775E1,-2.269342402E-1,1.794799921E0,7.818499160E-1,1.970810797E0
1.100647475E1,-3.915324837E-1,1.761925120E0,3.609204094E-1,1.840636128E0
1.101654275E1,-2.487387997E-1,1.480379348E0,1.154148276E-1,1.505561220E0
1.102660975E1,-9.703015834E-2,8.815537137E-1,-1.094525680E-3,8.868782327E-1
1.103667775E1,-2.614816368E-2,7.544486940E-2,5.440249443E-2,9.661928473E-2
1.104674475E1,-1.199304861E-1,-6.300240380E-1,1.543511443E-1,6.596498205E-1
1.105681275E1,-3.842600092E-1,-8.201579493E-1,1.194915064E-1,9.135606365E-1
1.106687975E1,-5.608833441E-1,-4.458063394E-1,4.634750171E-1,8.533126680E-1
1.107694775E1,-3.682406849E-1,-5.097836494E-2,1.646807477E0,1.688246091E0
1.108701475E1,-4.066083598E-1,2.627247548E-1,3.418160648E0,3.452271263E0
1.109708275E1,-1.358927124E0,2.298528779E-1,4.279312842E0,4.495779540E0
1.110715075E1,-2.182991890E0,3.665385604E-2,3.208960136E0,3.881265548E0
1.111721775E1,-2.838271514E0,-4.740986770E-1,7.906930988E-1,2.984250379E0
1.112728575E1,-3.562593307E0,-1.029597028E0,-1.050052196E0,3.854186130E0
1.113735275E1,-3.576583355E0,-1.438966443E0,-1.871223322E0,4.285329584E0
1.114742075E1,-3.015024658E0,-1.884838856E0,-1.660554135E0,3.924338318E0
1.115748775E1,-2.056943170E0,-2.340032315E0,-3.778214939E-1,3.138393781E0
1.116755575E1,-1.359669428E0,-2.720220031E0,1.264808879E0,3.293636208E0
1.117762275E1,-1.094686478E0,-2.647525107E0,2.184690653E0,3.602860104E0
1.118769075E1,-1.643817796E0,-2.149303157E0,1.507727799E0,3.097560996E0
1.119775875E1,-3.477339733E0,-1.964424723E0,-1.695751011E-1,3.997450666E0
1.120782575E1,-4.966892778E0,-2.010186787E0,-1.654663796E0,5.607921813E0
1.121789375E1,-6.324791669E0,-2.217603314E0,-1.963851696E0,6.984086740E0
1.122796075E1,-7.435928704E0,-2.403165872E0,-7.011184327E-1,7.846005923E0
1.123802875E1,-7.824398416E0,-2.121969763E0,1.996654576E0,8.349287140E0
1.124809575E1,-7.581041978E0,-1.410040852E0,4.420947608E0,8.888486397E0
1.125816375E1,-8.075725778E0,-1.290805600E0,5.945975125E0,1.011128805E1
1.126823075E1,-7.503390369E0,-5.580120689E-1,6.151652105E0,9.718799727E0
1.127829875E1,-6.222778221E0,4.697910333E-1,4.451413940E0,7.665426176E0
1.128836675E1,-5.166745346E0,1.260630459E0,2.808929894E0,6.014526895E0
1.129843375E1,-4.172954328E0,1.786888053E0,1.722166393E0,4.855138909E0
1.130850175E1,-3.100090243E0,1.989749014E0,5.068027389E-1,3.718401494E0
1.131856875E1,-1.666327822E0,2.258291749E0,-6.764398205E-1,2.886884283E0
1.132863675E1,-3.933021435E-1,2.717636731E0,-7.738345528E-1,2.852903064E0
1.133870375E1,3.877238998E-1,2.904834756E0,1.486325674E-3,2.930596695E0
1.134877175E1,4.204387790E-1,2.321279710E0,4.743612170E-1,2.406268236E0
1.135883875E1,-1.597318983E-1,1.548236285E0,5.606707978E-1,1.654358371E0
1.136890675E1,-6.479568636E-1,7.695941520E-1,2.141741173E-1,1.028588260E0
1.137897475E1,-1.237768430E0,-1.126232207E-2,-3.668391073E-1,1.291033871E0
1.138904175E1,-1.696737437E0,-8.529731083E-1,-1.190965562E0,2.241624416E0
1.139910975E1,-1.753477940E0,-1.669182433E0,-2.164151577E0,3.247215257E0
1.140917675E1,-1.282604880E0,-2.260489132E0,-2.994352119E0,3.964975537E0
1.141924475E1,-5.664343983E-1,-2.829567057E0,-3.681783535E0,4.677908471E0
1.142931175E1,5.046796149E-1,-3.250208734E0,-4.200688257E0,5.335198231E0
1.143937975E1,1.310553401E0,-3.579872414E0,-4.316940844E0,5.759254723E0
1.144944675E1,1.433744879E0,-4.065741536E0,-3.963685988E0,5.856337185E0
1.145951475E1,1.209385461E0,-4.223143904E0,-2.882804786E0,5.254343066E0
1.146958275E1,1.279873061E0,-4.016112708E0,-1.749066508E0,4.563602742E0
1.147964975E1,1.755393196E0,-3.929720097E0,-7.499954545E-1,4.368821179E0
1.148971775E1,1.955599521E0,-3.802394053E0,-3.447649911E-2,4.275951198E0
1.149978475E1,2.302224219E0,-3.531945711E0,-4.125701809E-1,4.236164658E0
1.150985275E1,2.670876548E0,-2.521083162E0,-1.310929523E0,3.899740768E0
1.151991975E1,3.401610104E0,-1.920023891E0,-2.159630656E0,4.463344891E0
1.152998775E1,2.542650032E0,-1.707357734E0,-3.104080968E0,4.360671769E0
1.154005475E1,4.886366093E-1,-9.697174466E-1,-2.392602438E0,2.627482463E0
1.155012275E1,-1.457621400E0,-6.714772886E-1,-6.721200438E-1,1.739910126E0
1.156019075E1,-2.211741480E0,-7.976262885E-1,-5.954044282E-2,2.351925410E0
1.157025775E1,-1.716920271E0,-1.174072956E0,-4.481528270E-1,2.127699104E0
1.158032575E1,-6.127455157E-1,-1.318279912E0,-3.229279795E-1,1.489161332E0
1.159039275E1,7.031604266E-1,-1.617025269E0,-3.778806970E-2,1.763698740E0
1.160046075E1,1.857354603E0,-1.563598675E0,-1.928936510E-1,2.435531749E0
1.161052775E1,2.995018117E0,-1.222954509E0,-5.937215996E-1,3.289111824E0
1.162059575E1,3.761212698E0,-7.404580611E-1,-1.001266099E0,3.962011219E0
1.163066275E1,4.586931934E0,-2.400071526E-1,-1.160244291E0,4.737479795E0
1.164073075E1,5.603486162E0,1.900087810E-1,-1.116763226E0,5.716845337E0
1.165079775E1,6.451589125E0,5.501113111E-1,-1.008820847E0,6.553117136E0
1.166086575E1,6.918981045E0,8.211455441E-1,-1.114710999E0,7.056143375E0
1.167093375E1,7.176535107E0,1.044497488E0,-1.231955567E0,7.356041440E0
1.168100075E1,7.412916986E0,1.223232252E0,-1.644240550E0,7.690979286E0
1.169106875E1,7.419093985E0,1.461183524E0,-2.191985493E0,7.872916438E0
1.170113575E1,7.315392446E0,1.712261794E0,-2.201702249E0,7.829067626E0
1.171120375E1,7.130846134E0,1.952904539E0,-1.896595268E0,7.632815754E0
1.172127075E1,6.859607248E0,2.191960350E0,-1.486757052E0,7.353186269E0
1.173133875E1,6.531118859E0,2.378632125E0,-1.065951506E0,7.032045005E0
1.174140575E1,6.212642657E0,2.259234320E0,-7.783709688E-1,6.656345083E0
1.175147375E1,5.957805796E0,1.901118089E0,-5.849978462E-2,6.254048458E0
1.176154175E1,5.098938110E0,1.598352186E0,1.438784595E0,5.533895614E0
1.177160875E1,3.466810652E0,1.709486706E0,2.705389153E0,4.718077083E0
1.178167675E1,1.706891127E0,2.340850341E0,2.515326578E0,3.836655501E0
1.179174375E1,1.139306581E-1,3.137149896E0,1.954187272E0,3.697774677E0
1.180181175E1,-1.602306658E0,3.775725487E0,1.860657549E0,4.503946724E0
1.181187875E1,-3.513277890E0,4.011955923E0,1.903872712E0,5.662476769E0
1.182194675E1,-5.460998873E0,3.995052207E0,1.528026554E0,6.936700655E0
1.183201375E1,-7.303567037E0,3.106813372E0,1.353962545E0,8.051558567E0
1.184208175E1,-8.775888922E0,5.436717725E-1,1.390122312E0,8.901923691E0
1.185214975E1,-8.816931113E0,-2.795497085E0,1.460999336E0,9.364165594E0
1.186221675E1,-7.179728857E0,-5.254938315E0,2.103921162E0,9.142722101E0
1.187228475E1,-5.293073856E0,-5.847141393E0,3.062311383E0,8.460699990E0
1.188235154E1,-3.776637653E0,-4.544516816E0,3.515303950E0,6.875535391E0
1.189241954E1,-2.052443445E0,-2.033586175E0,2.919510098E0,4.107497539E0
1.190248654E1,3.313570333E-1,4.865912533E-1,6.583502895E-1,8.831724831E-1
1.191255454E1,3.106988204E0,2.171161804E0,-3.127227171E0,4.913946383E0
1.192262154E1,4.978752100E0,2.579785699E0,-5.126567958E0,7.597694766E0
1.193268954E1,5.116863334E0,6.631391591E-1,-4.361237596E0,6.755918686E0
1.194275754E1,4.418991714E0,-2.897603504E0,-1.619086998E0,5.526756421E0
1.195282454E1,3.795354005E0,-7.365749837E0,3.440304054E0,8.971882448E0
1.196289254E1,3.244543952E-1,-1.138230927E1,6.908610424E0,1.331882626E1
1.197295954E1,-5.038680798E0,-1.137635447E1,-6.610347462E-1,1.245980385E1
1.198302754E1,-4.498889238E0,-9.018036740E0,-4.974463168E0,1.123878440E1
1.199309454E1,-1.070242193E0,-4.658114768E0,-3.023696371E0,5.655633588E0
1.200316254E1,1.411357060E0,-7.441306973E-1,-5.046257840E-1,1.673411613E0
1.201322954E1,4.002102780E0,1.955670857E0,1.150175970E0,4.600476054E0
1.202329754E1,5.975651498E0,3.081500190E0,3.614187384E-1,6.733103130E0
1.203336554E1,5.647785838E0,3.338236227E0,-2.422791467E0,6.993656016E0
1.204343254E1,4.908312448E0,3.652295442E0,-4.683446660E0,7.704898812E0
1.205350054E1,4.851088672E0,4.003514882E0,-4.785125647E0,7.903076627E0
1.206356754E1,4.551304264E0,3.945667208E0,-3.873594428E0,7.161521767E0
1.207363554E1,3.930001348E0,3.334958278E0,-2.302180949E0,5.645077009E0
1.208370254E1,2.409534075E0,2.063566604E0,-6.512997168E-1,3.238572665E0
1.209377054E1,3.012959129E-1,-3.744369793E-1,-1.149445836E-1,4.941604353E-1
1.210383754E1,-7.511789310E-1,-2.297500253E0,-4.773900747E-1,2.463874689E0
1.211390554E1,-8.671672243E-1,-3.505301118E0,-7.310914063E-1,3.684237990E0
1.212397354E1,-6.826887399E-1,-4.536734757E0,-5.045503914E-1,4.615473677E0
1.213404054E1,-1.036050600E-1,-4.959406003E0,4.658126791E-2,4.960706777E0
1.214410854E1,5.704260001E-1,-3.822110279E0,4.498496890E-1,3.890536923E0
1.215417554E1,3.024703261E-1,-2.012225127E0,2.864831980E-1,2.054899239E0
1.216424354E1,1.554453045E-1,-5.436524767E-1,-5.696711976E-2,5.683014260E-1
1.217431054E1,2.523266512E-1,5.123137397E-1,-4.041806324E-1,6.996399720E-1
1.218437854E1,1.398806012E-1,1.142363505E0,-9.379109323E-1,1.484667598E0
1.219444554E1,1.500489092E-1,1.559734835E0,-1.552250984E0,2.205622485E0
1.220451354E1,2.000814870E-1,1.809968183E0,-1.898365220E0,2.630552781E0
1.221458154E1,2.775044695E-1,1.846334941E0,-2.138504519E0,2.838866503E0
1.222464854E1,2.618625829E-1,1.641694672E0,-2.352873970E0,2.880928553E0
1.223471654E1,-5.832129836E-2,1.140976546E0,-2.231564126E0,2.507011628E0
1.224478354E1,-3.606948531E-1,4.980073571E-1,-1.782472236E0,1.885555456E0
1.225485154E1,-4.824610725E-1,-9.783970535E-2,-1.092581481E0,1.198363712E0
1.226491854E1,-5.502434582E-1,-5.239537919E-1,-4.899370301E-1,9.040651153E-1
1.227498654E1,-5.069585672E-1,-5.462650126E-1,-1.783623699E-2,7.454733961E-1
1.228505354E1,-3.054866123E-1,-2.606571794E-1,2.117464630E-1,4.539832596E-1
1.229512154E1,-1.908694911E-1,8.613650322E-2,2.360007135E-1,3.155106917E-1
1.230518954E1,-5.623267293E-3,4.020188802E-1,2.218388303E-1,4.591985059E-1
1.231525654E1,1.580654418E-1,6.241107488E-1,2.159552157E-1,6.790696325E-1
1.232532454E1,3.130833149E-1,8.358062679E-1,2.332733528E-1,9.225018898E-1
1.233539154E1,6.255152500E-1,1.033076121E0,2.860821155E-1,1.241111831E0
1.234545954E1,9.657313997E-1,1.259228296E0,4.100126088E-1,1.639025130E0
1.235552654E1,1.244468755E0,1.520857868E0,6.666479270E-1,2.075121826E0
1.236559454E1,1.396965308E0,1.663214180E0,1.170790329E0,2.467497411E0
1.237566154E1,1.426770321E0,1.681173903E0,1.795799210E0,2.843749996E0
1.238572954E1,1.119760801E0,1.400099416E0,2.375520383E0,2.976111509E0
1.239579754E1,5.471403408E-1,8.805941856E-1,2.765658452E0,2.953586861E0
1.240586454E1,-2.609612346E-1,3.334737253E-1,2.931659442E0,2.962082473E0
1.241593254E1,-1.377278610E0,-7.944787323E-2,2.839756415E0,3.157122872E0
1.242599954E1,-2.464230392E0,-9.557683289E-2,2.657649561E0,3.625557549E0
1.243606754E1,-3.217137175E0,2.648391080E-1,2.358388041E0,3.997762563E0
1.244613454E1,-3.613211483E0,8.695394397E-1,1.935192007E0,4.190031523E0
1.245620254E1,-3.612610097E0,1.420945909E0,1.507395823E0,4.164406459E0
1.246626954E1,-3.597824243E0,1.672898923E0,1.060075493E0,4.106907613E0
1.247633754E1,-4.098851102E0,1.549378247E0,6.781719120E-1,4.434080564E0
1.248640454E1,-4.969094839E0,9.693052179E-1,3.866007958E-1,5.077491142E0
1.249647254E1,-5.611653553E0,2.547941762E-1,1.604255243E-1,5.619725262E0
1.250654054E1,-5.460296037E0,-8.324680924E-3,2.574004264E-1,5.466365986E0
1.251660754E1,-5.224121150E0,1.041564524E-2,8.357132971E-1,5.290554507E0
1.252667554E1,-5.438718057E0,-1.390222299E-1,1.330615783E0,5.600849904E0
1.253674254E1,-6.555554373E0,-8.410237384E-1,1.169877140E0,6.712021051E0
1.254681054E1,-7.641356592E0,-1.792089736E0,6.647465587E-1,7.876788951E0
1.255687754E1,-8.243462514E0,-2.493648026E0,4.243043733E-1,8.622817921E0
1.256694554E1,-8.143569267E0,-2.728660487E0,8.779687858E-1,8.633315565E0
1.257701354E1,-7.432064863E0,-2.567478479E0,1.846517812E0,8.076952514E0
1.258708054E1,-6.320562962E0,-1.813273614E0,3.216556839E0,7.320089839E0
1.259714854E1,-5.499198148E0,-1.001757265E0,4.673661929E0,7.286138464E0
1.260721554E1,-4.555042974E0,-4.407730561E-1,6.460240080E0,7.916905916E0
1.261728354E1,-3.193811462E0,-3.514439732E-1,8.611334825E0,9.191247575E0
1.262735054E1,-1.272237766E0,-8.991748828E-1,9.184310503E0,9.315506632E0
1.263741854E1,6.215841669E-1,-1.921396818E0,6.295594182E0,6.611553427E0
1.264748554E1,2.159271198E0,-3.562261185E0,2.355219873E0,4.785312687E0
1.265755354E1,3.060799878E0,-5.231564071E0,-7.019208169E-1,6.101676110E0
1.266762154E1,3.277921028E0,-5.966856117E0,-2.468878051E0,7.241788247E0
1.267768854E1,3.328233395E0,-5.642742614E0,-3.485535191E0,7.420689814E0
1.268775654E1,2.925917476E0,-5.464796054E0,-4.292094855E0,7.539699413E0
1.269782354E1,2.324796810E0,-5.574171731E0,-4.865085737E0,7.755329131E0
1.270789154E1,1.982511916E0,-5.479442160E0,-5.038474392E0,7.703302154E0
1.271795854E1,1.518530091E0,-5.294181903E0,-4.705481308E0,7.244021673E0
1.272802654E1,8.954788578E-1,-4.827965857E0,-3.791072674E0,6.203496492E0
1.273809354E1,1.030428502E0,-3.932465950E0,-2.358315535E0,4.699757814E0
1.274816154E1,2.060958161E0,-3.167405729E0,2.062913762E-1,3.784516313E0
1.275822954E1,3.263215281E0,-2.934046860E0,2.161354269E0,4.891692675E0
1.276829654E1,3.935908790E0,-2.818498862E0,1.093920347E0,4.963061109E0
1.277836454E1,4.379123644E0,-2.573342067E0,-1.485138981E0,5.291923192E0
1.278843154E1,5.001690727E0,-2.005479779E0,-3.247654670E0,6.291750165E0
1.279849954E1,4.938418592E0,-9.813487279E-1,-3.811943725E0,6.315214840E0
1.280856654E1,4.053177624E0,6.408080578E-2,-3.307541853E0,5.231843682E0
1.281863454E1,3.307117930E0,9.083836627E-1,-1.993190686E0,3.966736567E0
1.282870154E1,3.014880524E0,1.768088086E0,-9.612068242E-1,3.624852909E0
1.283876954E1,2.894327309E0,2.272212800E0,-9.870006466E-1,3.809757454E0
1.284883754E1,2.456697131E0,2.218668092E0,-1.528024654E0,3.645916653E0
1.285890454E1,2.237505482E0,2.022611536E0,-1.982332260E0,3.609297632E0
1.286897254E1,2.340687203E0,1.793189598E0,-2.607683934E0,3.936287720E0
1.287903988E1,3.085654052E0,1.607589033E0,-3.133285471E0,4.682209016E0
1.288910788E1,5.391401219E0,1.325429302E0,-3.328114697E0,6.473045448E0
1.289917488E1,6.736616330E0,1.353863727E0,-3.183121290E0,7.572793917E0
1.290924288E1,7.342394303E0,1.650086011E0,-2.811796199E0,8.033662665E0
1.291930988E1,7.857718774E0,1.906093485E0,-2.590377345E0,8.490405850E0
1.292937787E1,8.233821625E0,2.128891697E0,-2.325904565E0,8.816905946E0
1.293944488E1,8.683836206E0,2.400203673E0,-2.181129552E0,9.269698757E0
1.294951288E1,9.032272956E0,2.568141553E0,-2.148769891E0,9.632991116E0
1.295958088E1,8.963429008E0,2.506652234E0,-1.720950757E0,9.465095695E0
1.296964788E1,8.333156464E0,2.195530075E0,-6.015884435E-1,8.638504362E0
1.297971588E1,6.954140938E0,1.723613579E0,9.496018553E-1,7.227216867E0
1.298978288E1,5.173203596E0,1.089566072E0,2.427225849E0,5.817268688E0
1.299985088E1,3.257488518E0,2.630264711E-1,3.490823413E0,4.781868094E0
1.300991788E1,6.207661414E-1,-6.671129268E-1,4.231484957E0,4.328493410E0
1.301998588E1,-2.605466085E0,-1.468751575E0,4.771299906E0,5.631250971E0
1.303005288E1,-6.525750530E0,-1.464769036E0,4.768245320E0,8.213837821E0
1.304012088E1,-1.031340551E1,-7.068985516E-1,2.626117866E0,1.066595208E1
1.305018888E1,-1.182041307E1,-9.331396043E-2,-1.487362677E0,1.191398844E1
1.306025588E1,-1.212942556E1,-7.718704730E-1,-2.680300505E0,1.244599370E1
1.307032388E1,-1.224496303E1,-2.207350806E0,-1.382905093E0,1.251894339E1
1.308039088E1,-1.150380740E1,-3.082067955E0,1.066414606E0,1.195717222E1
1.309045888E1,-8.254321378E0,-1.694304410E0,4.790595717E0,9.693002434E0
1.310052588E1,-6.651413042E0,2.014687389E-1,9.257084364E0,1.140067963E1
1.311059388E1,-5.973257648E0,1.077828371E0,1.035487981E1,1.200271039E1
1.312066088E1,-3.598813300E0,3.678214395E-1,7.498441286E0,8.325465242E0
1.313072888E1,-5.336397046E-1,-1.087185670E0,3.625967769E0,3.822876702E0
1.314079688E1,2.149393789E0,-2.543622424E0,-7.770481825E-2,3.331057900E0
1.315086388E1,4.468595983E0,-2.196627012E0,-2.443213452E0,5.546423376E0
1.316093188E1,5.878719866E0,-1.354582935E0,-3.123432913E0,6.793384675E0
1.317099888E1,6.166712193E0,-2.351049054E0,-2.531164931E0,7.068420392E0
1.318106688E1,6.188198372E0,-4.973325884E0,-1.272307348E-1,7.940022488E0
1.319113388E1,5.801781033E0,-7.583920562E0,3.136663408E0,1.005063041E1
1.320120188E1,4.067069439E0,-8.093117151E0,4.924289964E0,1.030961836E1
1.321126988E1,1.870492712E0,-6.420842126E0,2.946883253E0,7.308219858E0
1.322133688E1,1.153964381E0,-3.618583320E0,-8.235616136E-1,3.886390713E0
1.323140488E1,1.204939823E0,-1.615396820E0,-3.170258585E0,3.756584401E0
1.324147188E1,2.019367501E0,-2.300201082E-1,-4.425371611E0,4.869770862E0
1.325153988E1,3.486292990E0,1.018254599E0,-5.052945081E0,6.222807665E0
1.326160688E1,3.964551961E0,2.085619377E0,-5.233576097E0,6.888962128E0
1.327167488E1,3.549294984E0,2.778233766E0,-5.469297241E0,7.087262522E0
1.328174188E1,2.850873726E0,3.074824424E0,-5.565393307E0,6.968186916E0
1.329180988E1,2.249564779E0,2.692427046E0,-4.807446223E0,5.951574942E0
1.330187788E1,1.245551074E0,1.605528474E0,-3.843933842E0,4.347981893E0
1.331194488E1,-2.885542452E-2,-2.286419195E-1,-3.156386651E0,3.164788532E0
1.332201288E1,-8.899982625E-1,-1.952393492E0,-2.338616120E0,3.173808849E0
1.333207988E1,-1.476090415E0,-3.100087320E0,-1.612366208E0,3.793297918E0
1.334214788E1,-1.182982358E0,-3.470662213E0,-1.024951415E0,3.807291539E0
1.335221488E1,7.376128060E-1,-2.425291736E0,-2.327215036E-1,2.545637829E0
1.336228288E1,1.780491199E0,-1.342654030E0,4.117843151E-1,2.267693780E0
1.337234988E1,2.196104856E0,-8.903555274E-1,8.985965931E-1,2.534380662E0
1.338241788E1,2.539639885E0,-6.432972175E-1,1.333282113E0,2.939599165E0
1.339248588E1,2.862248899E0,-4.878910893E-1,1.618531512E0,3.324176700E0
1.340255288E1,3.222241502E0,-2.483248168E-1,1.365227791E0,3.508326158E0
1.341262088E1,3.421679503E0,1.072548920E-1,6.697974566E-1,3.488269322E0
1.342268788E1,3.105334319E0,6.899480581E-1,1.215972349E-2,3.181081170E0
1.343275588E1,2.257789473E0,1.152638233E0,-1.847277220E-1,2.541714486E0
1.344282288E1,8.977502087E-1,1.096082209E0,-3.949209452E-1,1.470820927E0
1.345289088E1,-2.533423126E-1,8.256800598E-1,-4.853493047E-1,9.907037075E-1
1.346295788E1,-8.226760527E-1,5.661110473E-1,-5.555136998E-1,1.142748037E0
1.347302588E1,-1.061316126E0,3.184621686E-1,-6.724436872E-1,1.296144508E0
1.348309388E1,-1.047049212E0,3.054714096E-1,-5.544448288E-1,1.223533368E0
1.349316088E1,-8.686097324E-1,5.157635969E-1,-2.616769338E-1,1.043537145E0
1.350322888E1,-9.100606441E-1,6.215812433E-1,-1.101263134E-1,1.107565539E0
1.351329588E1,-9.013795754E-1,5.930678809E-1,1.601084590E-2,1.079106574E0
1.352336388E1,-5.583286956E-1,5.513725555E-1,1.811653058E-1,8.053343997E-1
1.353343088E1,-2.930984089E-1,4.023223507E-1,3.556663938E-1,6.117749054E-1
1.354349888E1,-1.829359889E-1,2.994218802E-1,5.817839241E-1,6.794053082E-1
1.355356588E1,-4.989136755E-3,3.680389559E-1,8.400519311E-1,9.171503757E-1
1.356363388E1,1.115847552E-1,4.786144817E-1,1.072900922E0,1.180101423E0
1.357370088E1,-8.729746789E-2,6.416249138E-1,1.284318699E0,1.438324684E0
1.358376888E1,-4.061660179E-1,6.049336356E-1,1.514251245E0,1.680438148E0
1.359383688E1,-8.404983661E-1,2.486008054E-1,1.775238499E0,1.979826152E0
1.360390388E1,-1.300673946E0,-2.210113031E-1,2.040374207E0,2.429758345E0
1.361397188E1,-1.182624801E0,-2.912088811E-1,2.327332455E0,2.626762340E0
1.362403888E1,-7.582224870E-1,-1.798287785E-1,2.725085499E0,2.834313093E0
1.363410688E1,-1.910530937E-1,1.481509030E-1,3.070300726E0,3.079804624E0
1.364417387E1,2.715832865E-1,8.891328746E-1,3.169443191E0,3.302981213E0
1.365424188E1,-1.768227249E-2,1.706005858E0,2.904099468E0,3.368168994E0
1.366430988E1,-9.484458607E-1,2.073226789E0,2.334533594E0,3.263106797E0
1.367437688E1,-2.227059723E0,1.730474117E0,1.596403309E0,3.240808419E0
1.368444488E1,-3.708453271E0,4.883115041E-1,9.046601558E-1,3.848309211E0
1.369451188E1,-4.628942716E0,-6.527065569E-1,3.659561777E-1,4.689036196E0
1.370457988E1,-4.671496413E0,-1.227627604E0,-9.601595879E-2,4.831062754E0
1.371464687E1,-4.466131382E0,-1.404966638E0,-4.954237649E-1,4.708046886E0
1.372471488E1,-4.098090672E0,-9.069920254E-1,-5.853694367E-1,4.237881436E0
1.373478188E1,-3.907330816E0,-3.450026804E-1,-1.086038446E-1,3.924035646E0
1.374484988E1,-3.806461668E0,2.228432357E-2,7.553738697E-1,3.880752080E0
1.375491788E1,-3.727633892E0,3.203736234E-1,1.842989018E0,4.170671674E0
1.376498488E1,-4.376507307E0,3.461107278E-1,2.861280893E0,5.240280259E0
1.377505288E1,-5.314426133E0,3.916324711E-1,3.757991174E0,6.520659382E0
1.378511988E1,-6.647908806E0,1.283919919E-1,4.558899797E0,8.061931738E0
1.379518788E1,-8.059110914E0,-8.442081320E-1,5.180516124E0,9.617676612E0
1.380525488E1,-8.925979346E0,-2.215514688E0,5.903357109E0,1.092845999E1
1.381532288E1,-8.743324023E0,-2.555978760E0,6.964588158E0,1.146665734E1
1.382538988E1,-8.041749362E0,-1.713694947E0,7.320184239E0,1.100870476E1
1.383545788E1,-7.369555789E0,-1.027972671E0,5.564244329E0,9.291280606E0
1.384552588E1,-6.209202740E0,-8.804035664E-1,3.296268421E0,7.084821424E0
1.385559288E1,-4.876722573E0,-1.091547693E0,2.639296321E0,5.651529394E0
1.386566088E1,-3.721184121E0,-1.639607216E0,3.105120603E0,5.116375381E0
1.387572788E1,-1.518994652E0,-2.555651901E0,3.504015316E0,4.595304639E0
1.388579588E1,8.039287099E-1,-3.889854366E0,3.628651056E0,5.379997848E0
1.389586288E1,2.480109968E0,-5.025396509E0,3.223615597E0,6.465079508E0
1.390593088E1,3.484089174E0,-5.646122890E0,2.048366182E0,6.943585894E0
1.391599788E1,4.078567404E0,-6.063179639E0,2.100986810E-1,7.310335208E0
1.392606588E1,4.283406478E0,-6.306094027E0,-2.055720810E0,7.895592503E0
1.393613388E1,4.526553585E0,-6.470500774E0,-3.721949229E0,8.729832398E0
1.394620088E1,4.963078054E0,-6.857962427E0,-3.910762839E0,9.325119753E0
1.395626888E1,5.215963115E0,-7.528595377E0,-3.042433773E0,9.651032216E0
1.396633588E1,4.737771971E0,-7.384274400E0,-1.644009000E0,8.926183802E0
1.397640387E1,3.690863092E0,-5.385172180E0,-2.959293383E-1,6.535298306E0
1.398647088E1,3.143673050E0,-3.743780394E0,6.690653121E-1,4.934188917E0
1.399653888E1,2.937549927E0,-2.839333661E0,5.317539044E-1,4.119924445E0
1.400660688E1,3.294570975E0,-2.550528570E0,-2.013841297E0,4.627629054E0
1.401667388E1,4.031845227E0,-2.426524329E0,-4.041331165E0,6.202914947E0
1.402674188E1,3.715749426E0,-2.191411296E0,-3.997294614E0,5.881108867E0
1.403680888E1,2.758826272E0,-1.549981095E0,-2.854591970E0,4.261720206E0
1.404687687E1,1.878467145E0,-8.901573068E-1,-1.979621783E0,2.870526302E0
1.405694388E1,1.664697618E0,-3.831405598E-1,-2.129563396E0,2.730028408E0
1.406701188E1,1.615477511E0,3.439513510E-1,-2.135072058E0,2.699370818E0
1.407707888E1,1.469191870E0,9.703050917E-1,-1.549281768E0,2.345269860E0
1.408714688E1,1.137548323E0,1.202843596E0,-1.366911643E0,2.146927186E0
1.409721388E1,1.019976604E0,1.202449493E0,-1.425757437E0,2.125798985E0
1.410728188E1,2.535912285E0,8.173009998E-1,-2.156529877E0,3.427747534E0
1.411734988E1,4.583645799E0,3.591675603E-1,-3.365381341E0,5.697771645E0
1.412741688E1,5.792499747E0,5.181399053E-1,-4.093600010E0,7.111897309E0
1.413748488E1,6.715000927E0,1.064871526E0,-4.231203413E0,8.008012934E0
1.414755188E1,7.371374858E0,1.669411059E0,-4.045036545E0,8.572422134E0
1.415761988E1,7.751292433E0,2.230439122E0,-3.994262248E0,9.000640197E0
1.416768688E1,7.944045312E0,2.675797564E0,-3.922896397E0,9.255099387E0
1.417775488E1,7.983625115E0,2.886563376E0,-3.610901248E0,9.225460743E0
1.418782288E1,8.095485858E0,2.944826787E0,-3.160602493E0,9.175963394E0
1.419788988E1,8.136758430E0,3.029016752E0,-2.650551626E0,9.077841382E0
1.420795788E1,7.855814336E0,3.265530778E0,-1.959587907E0,8.730263164E0
1.421802488E1,7.382451823E0,3.356898785E0,-9.771486729E-1,8.168487247E0
1.422809288E1,6.838408753E0,2.995542612E0,3.492629617E-1,7.473894194E0
1.423815988E1,6.191137767E0,2.437712392E0,2.067334988E0,6.967532024E0
1.424822788E1,4.759251133E0,2.083346565E0,3.823100798E0,6.450341384E0
1.425829488E1,2.094842775E0,1.578583919E0,4.963237098E0,5.613734580E0
1.426836288E1,-1.434066476E0,6.779934257E-1,5.678832799E0,5.896216049E0
1.427843088E1,-5.665004718E0,-1.999782836E-1,5.993751554E0,8.249686507E0
1.428849788E1,-1.000916786E1,-1.428886428E0,4.998458971E0,1.127872997E1
1.429856588E1,-1.217430645E1,-2.895014357E0,2.427632961E0,1.274708780E1
1.430863288E1,-1.274805747E1,-4.140248512E0,4.086044531E-1,1.340975706E1
1.431870088E1,-1.357811884E1,-5.067787653E0,9.766030546E-1,1.452589194E1
1.432876788E1,-1.343753073E1,-5.823094718E0,3.936075436E0,1.516470752E1
1.433883588E1,-8.265088441E0,-4.356783187E0,8.261657880E0,1.247189792E1
1.434890288E1,-3.155983193E0,-7.305253959E-1,1.279875633E1,1.320235058E1
1.435897088E1,-2.031263661E0,1.624234301E0,1.152643144E1,1.181620882E1
1.436903888E1,-3.264178902E-1,9.411818647E-1,6.206528808E0,6.285966258E0
1.437910588E1,1.641457275E0,-2.361162983E0,7.270878178E-1,2.966164074E0
1.438917388E1,3.936651387E0,-4.842060571E0,-4.464830961E0,7.673166897E0
1.439924088E1,5.193792812E0,-4.796520116E0,-7.356616486E0,1.020303362E1
1.440930888E1,5.018698524E0,-5.061693685E0,-6.798724285E0,9.850417744E0
1.441937588E1,4.990782162E0,-5.880191610E0,-3.488357642E0,8.464821262E0
1.442944388E1,6.350973161E0,-6.577039382E0,3.053293222E0,9.639237866E0
1.443951088E1,4.497591156E0,-3.474130781E0,6.656229393E0,8.752331154E0
1.444957888E1,1.505910630E0,-3.750404119E-3,1.954817748E0,2.467608826E0
1.445964688E1,2.875965883E0,6.825753039E-1,-3.293032572E0,4.425059584E0
1.446971388E1,3.941444934E0,3.287246168E-2,-4.948172917E0,6.326174514E0
1.447978188E1,4.118113877E0,9.635802090E-2,-5.081026334E0,6.541022503E0
1.448984888E1,4.438448909E0,7.344061929E-1,-4.905847262E0,6.656314185E0
1.449991688E1,4.180866196E0,8.579888499E-1,-4.691835076E0,6.342641673E0
1.450998388E1,3.594707385E0,1.696347427E-1,-4.219112248E0,5.545412996E0
1.452005188E1,2.774663456E0,-6.167163599E-1,-3.561477658E0,4.556667584E0
1.453011988E1,1.765552733E0,-1.259013119E0,-3.007602494E0,3.707824598E0
1.454018688E1,3.769606376E-1,-1.520157956E0,-2.528470534E0,2.974246589E0
1.455025488E1,-9.574540812E-1,-1.827643147E0,-2.121706638E0,2.959499425E0
1.456032188E1,-1.127298739E0,-1.730795714E0,-2.338193366E0,3.119872508E0
1.457038988E1,-6.022374845E-1,-9.977332109E-1,-2.291263028E0,2.570612342E0
1.458045688E1,2.602472895E-1,2.141788316E-1,-1.556446946E0,1.592522627E0
1.459052488E1,1.298374820E0,8.951981914E-1,-5.178551825E-1,1.659918964E0
1.460059188E1,1.763542753E0,9.336372024E-1,2.299745365E-1,2.008643760E0
1.461065988E1,1.962281719E0,5.800929093E-1,5.238157245E-1,2.112212168E0
1.462072788E1,1.742611182E0,1.175518388E-1,3.986526382E-1,1.791489909E0
1.463079488E1,1.518437413E0,-8.341111600E-2,4.343850461E-1,1.581549860E0
1.464086288E1,9.608410808E-1,-1.920289940E-1,4.815475181E-1,1.091777784E0
1.465092988E1,-2.408307329E-1,-2.737812549E-1,3.508224872E-1,5.059960820E-1
1.466099788E1,-1.313178801E0,-9.332097709E-2,8.265960261E-2,1.319083006E0
1.467106488E1,-1.865116782E0,1.327610314E-1,-2.393943644E-1,1.885098343E0
1.468113288E1,-1.869324439E0,4.790986311E-1,-5.542271662E-1,2.007754245E0
1.469119988E1,-1.581753987E0,1.007935433E0,-8.412294873E-1,2.055613428E0
1.470126788E1,-1.270507868E0,1.328440619E0,-9.675681563E-1,2.077289786E0
1.471133588E1,-8.314831290E-1,1.536432511E0,-1.153102721E0,2.093235520E0
1.472140288E1,-3.618251199E-1,1.652519622E0,-1.248820252E0,2.102686506E0
1.473147088E1,7.295512497E-2,1.582132010E0,-1.291770390E0,2.043804024E0
1.474153788E1,2.092408580E-1,1.158964335E0,-1.379905326E0,1.814144089E0
1.475160588E1,1.615258241E-1,6.053207213E-1,-1.317126110E0,1.458535209E0
1.476167287E1,1.026712596E-1,1.827991641E-1,-1.110689138E0,1.130304067E0
1.477174088E1,1.113853651E-1,-1.320593655E-2,-8.699301799E-1,8.771314691E-1
1.478180788E1,1.535692254E-1,3.704211116E-3,-7.258362213E-1,7.419133698E-1
1.479187588E1,3.371682885E-1,1.378048396E-1,-6.150123350E-1,7.147816456E-1
1.480194388E1,4.863579494E-1,2.217363578E-1,-3.889088380E-1,6.610303712E-1
1.481201088E1,7.386501020E-1,2.871263552E-1,-7.661957502E-2,7.961884678E-1
1.482207888E1,1.010935054E0,3.292356634E-1,4.199481976E-1,1.143128293E0
1.483214587E1,9.637994796E-1,1.655001765E-1,1.199964427E0,1.547971050E0
1.484221388E1,4.107455572E-1,-1.059106171E-1,2.163415997E0,2.204608298E0
1.485228088E1,-1.780094174E-1,-5.157092178E-1,3.451542695E0,3.494394128E0
1.486234888E1,-3.572622451E-1,-1.022151183E0,5.086909218E0,5.200872498E0
1.487241688E1,-6.550068516E-1,-1.051380830E0,6.493141193E0,6.610243428E0
1.488248388E1,-2.033719491E0,-2.140449303E-1,6.580939475E0,6.891342001E0
1.489255188E1,-3.814833127E0,6.157281804E-1,5.160919181E0,6.447259865E0
1.490261888E1,-4.963499054E0,1.012278745E0,3.338572150E0,6.066885124E0
1.491268688E1,-5.774879748E0,1.247915103E0,2.003175391E0,6.238528661E0
1.492275388E1,-6.253764955E0,1.307699960E0,1.112081214E0,6.485089046E0
1.493282188E1,-6.353591545E0,1.297215317E0,5.444788344E-1,6.507484176E0
1.494288888E1,-6.187418354E0,1.328967453E0,3.063040531E-1,6.335938963E0
1.495295688E1,-5.886983151E0,1.110489748E0,2.890652919E-1,5.997775991E0
1.496302488E1,-4.893754927E0,4.538392442E-1,3.838156208E-1,4.929718225E0
1.497309188E1,-3.627746200E0,-2.863124228E-1,5.215378685E-1,3.676209874E0
1.498315988E1,-2.893107580E0,-8.893498063E-1,8.048563707E-1,3.131901711E0
1.499322688E1,-2.491818432E0,-1.194187962E0,1.225451417E0,3.022742987E0
1.500329488E1,-2.350730673E0,-1.159098237E0,1.934648070E0,3.257653538E0
1.501336188E1,-2.875664459E0,-8.038646829E-1,2.897266997E0,4.160504844E0
1.502342988E1,-4.222865869E0,-4.048968798E-1,4.020931107E0,5.845034182E0
1.503349688E1,-6.611905160E0,-5.735691708E-1,4.729129786E0,8.149290765E0
1.504356488E1,-8.606975141E0,-8.535952520E-1,4.870266077E0,9.926134071E0
1.505363288E1,-9.728682772E0,-6.666071427E-1,4.341697955E0,1.067436062E1
1.506369988E1,-9.479485551E0,6.997889221E-2,3.344935967E0,1.005256882E1
1.507376788E1,-8.495245374E0,6.559143394E-1,2.266975156E0,8.816949243E0
1.508383488E1,-7.357956668E0,9.779286915E-1,1.807698440E0,7.639610232E0
1.509390287E1,-5.932399060E0,1.078956299E0,2.441525799E0,6.505271211E0
1.510396988E1,-4.607125001E0,5.261488366E-1,3.220258126E0,5.645573113E0
1.511403788E1,-2.518970855E0,-7.723312336E-1,3.012194313E0,4.001877595E0
1.512410488E1,-2.158844644E-1,-2.484121742E0,2.153352939E0,3.294601009E0
1.513417288E1,1.273803066E0,-4.556440458E0,9.937740612E-1,4.834388357E0
1.514424088E1,1.511799653E0,-5.966153281E0,-6.497168756E-1,6.188913894E0
1.515430788E1,1.717576913E0,-6.310828518E0,-2.775231221E0,7.104824795E0
1.516437587E1,1.944594769E0,-5.801003353E0,-4.441190084E0,7.560241932E0
1.517444288E1,2.169101245E0,-6.190792197E0,-5.360671177E0,8.471582125E0
1.518451088E1,2.199444786E0,-6.730925819E0,-5.494023362E0,8.962544976E0
1.519457788E1,2.202899905E0,-7.567251905E0,-4.535909130E0,9.093433951E0
1.520464588E1,1.932517052E0,-7.718909968E0,-3.214120889E0,8.581769417E0
1.521471388E1,2.158220161E0,-5.096200444E0,-6.376172322E-1,5.570971994E0
1.522478088E1,2.034503018E0,-3.464024454E0,2.376682663E0,4.667685554E0
1.523484888E1,1.773700243E0,-2.996624347E0,2.453219792E0,4.259584179E0
1.524491588E1,2.836627570E0,-2.914714211E0,-1.915104044E0,4.495513141E0
1.525498388E1,3.955985205E0,-2.968286986E0,-5.614545586E0,7.482223514E0
1.526505088E1,3.943677986E0,-2.470946211E0,-5.844191473E0,7.470792809E0
1.527511888E1,3.394696941E0,-1.586577648E0,-4.888780993E0,6.159657097E0
1.528518688E1,2.714288031E0,-8.237610036E-1,-3.476756181E0,4.487067556E0
1.529525388E1,1.702566526E0,5.212061852E-1,-2.204910909E0,2.834081999E0
1.530532188E1,1.249255285E0,1.544958336E0,-1.896441486E0,2.746638917E0
1.531538888E1,9.644783413E-1,2.023195088E0,-1.856819583E0,2.910552490E0
1.532545688E1,5.436261642E-1,2.248861359E0,-1.909042528E0,2.999558333E0
1.533552388E1,1.125414181E0,2.063460769E0,-2.035944357E0,3.109581459E0
1.534559188E1,2.446525900E0,1.693006913E0,-2.587583253E0,3.943012614E0
1.535565888E1,4.482174388E0,1.233790569E0,-3.716555465E0,5.951882974E0
1.536572688E1,5.552765075E0,1.221366990E0,-4.761782393E0,7.416165374E0
1.537579488E1,6.627555817E0,1.641773610E0,-5.234372488E0,8.603404677E0
1.538586188E1,7.998006926E0,2.226184688E0,-5.195839337E0,9.793914410E0
1.539592988E1,8.862784978E0,2.668575084E0,-4.814689462E0,1.043319151E1
1.540599688E1,9.192786627E0,2.900062258E0,-4.444765071E0,1.061478326E1
1.541606488E1,9.303779644E0,3.145297991E0,-4.203915920E0,1.068298292E1
1.542613188E1,9.174234581E0,3.427133785E0,-3.888946293E0,1.053734926E1
1.543619988E1,9.044311788E0,3.535940529E0,-3.363313181E0,1.027688312E1
1.544626688E1,8.826737478E0,3.469444238E0,-2.616309454E0,9.838364345E0
1.545633488E1,8.521841435E0,3.167265396E0,-1.785380787E0,9.265038375E0
1.546640288E1,8.142913209E0,2.579175249E0,-7.666331220E-1,8.575949326E0
1.547646988E1,7.105590840E0,1.893091031E0,1.115824602E0,7.437625924E0
1.548653788E1,4.639383212E0,1.029425704E0,5.074161118E0,6.952028835E0
1.549660488E1,1.069727054E0,-2.336962527E-1,7.988799316E0,8.063488353E0
1.550667288E1,-2.793323675E0,-1.814650633E0,8.812426418E0,9.420959264E0
1.551673988E1,-7.559446456E0,-3.055228066E0,8.156005710E0,1.153256599E1
1.552680788E1,-1.150023124E1,-3.276324738E0,4.174296264E0,1.266547953E1
1.553687488E1,-1.279324124E1,-3.404607972E0,-3.864010403E-1,1.324415655E1
1.554694288E1,-1.301663411E1,-3.980975035E0,-1.663045195E0,1.371301007E1
1.555701088E1,-1.462267597E1,-4.184165195E0,1.296860391E0,1.526472200E1
1.556707788E1,-1.623733663E1,-3.128352175E0,4.870424829E0,1.723829244E1
1.557714588E1,-1.314432795E1,2.209364587E-1,7.424579258E0,1.509789877E1
1.558721288E1,-6.348160066E0,2.379908572E0,9.025189054E0,1.128792003E1
1.559728088E1,-3.180463731E0,7.801945692E-1,5.559548430E0,6.452335380E0
1.560734788E1,-4.102997071E-1,-3.791308317E0,8.075145149E-1,3.898005168E0
1.561741588E1,2.494969497E0,-6.791166174E0,-2.758118175E0,7.742869407E0
1.562748388E1,4.509523569E0,-6.027727970E0,-4.396271773E0,8.717597881E0
1.563755088E1,4.922627601E0,-5.683073784E0,-3.427991572E0,8.263214650E0
1.564761888E1,5.585824648E0,-6.346021155E0,-2.293044456E-1,8.457304654E0
1.565768588E1,6.726831014E0,-7.357443282E0,4.919286502E0,1.111672644E1
1.566775388E1,5.206440924E0,-4.307643186E0,6.757599648E0,9.556566848E0
1.567782088E1,3.187282754E0,-7.880380243E-1,2.480171948E0,4.114733062E0
1.568788888E1,3.507794371E0,3.585132569E-1,-2.772131612E0,4.485294503E0
1.569795588E1,4.140647877E0,7.466765749E-1,-4.822267746E0,6.399746632E0
1.570802388E1,4.439976202E0,1.663480228E0,-4.738085382E0,6.702985024E0
1.571809188E1,4.917677933E0,3.108252956E0,-4.759262243E0,7.516340186E0
1.572815888E1,5.043673151E0,4.092767367E0,-5.278575100E0,8.369751410E0
1.573822688E1,4.945548686E0,4.045538821E0,-5.775252215E0,8.612686823E0
1.574829388E1,3.572805469E0,2.136811166E0,-5.818488282E0,7.154418688E0
1.575836188E1,1.430588552E0,-5.452253777E-1,-5.067435066E0,5.293652092E0
1.576842888E1,3.490261495E-2,-2.332090042E0,-4.534677706E0,5.099329766E0
1.577849688E1,-6.795920545E-1,-3.261524266E0,-3.787648544E0,5.044369871E0
1.578856488E1,-2.422828012E0,-3.754981320E0,-2.047378002E0,4.915458979E0
1.579863188E1,-3.600128631E0,-3.199280655E0,-1.616265131E0,5.080220059E0
1.580869988E1,-2.553387567E0,-1.492223468E0,-2.618680208E0,3.950190498E0
1.581876688E1,-5.662969887E-1,2.259633100E-1,-2.348879153E0,2.426723093E0
1.582883488E1,1.028935123E0,1.180072784E0,-1.252627375E0,2.005082193E0
1.583890188E1,1.733188102E0,1.110919518E0,-5.085917311E-3,2.058666811E0
1.584896988E1,1.870540075E0,5.178750265E-1,7.452521932E-1,2.079066027E0
1.585903688E1,1.779064771E0,6.043331265E-2,8.037606025E-1,1.953139716E0
1.586910488E1,1.718532933E0,-1.084371990E-1,5.295086833E-1,1.801525330E0
1.587917288E1,1.820646368E0,-7.493557692E-2,2.907399710E-1,1.845236643E0
1.588923988E1,1.854433334E0,2.709424317E-2,-1.232238572E-2,1.854672190E0
1.589930788E1,1.438397801E0,6.201732337E-2,-2.499380271E-1,1.461267737E0
1.590937488E1,7.657668570E-1,3.906594944E-1,-1.705234830E-1,8.764085680E-1
1.591944288E1,3.435166106E-1,8.967108661E-1,-3.225395051E-1,1.012978663E0
1.592950988E1,-9.552479267E-2,1.070310606E0,-5.341981868E-1,1.200023950E0
1.593957788E1,-2.209098539E-1,1.157632340E0,-5.412252975E-1,1.296857209E0
1.594964487E1,-3.387932298E-1,1.047591249E0,-4.657799164E-1,1.195482835E0
1.595971288E1,-2.848044258E-1,8.398157036E-1,-5.002374852E-1,1.018155940E0
1.596978088E1,-1.474913371E-1,7.356656832E-1,-3.102767976E-1,8.119294199E-1
1.597984788E1,-1.446782416E-1,5.953114575E-1,-1.518112600E-1,6.311689027E-1
1.598991588E1,-1.941307756E-1,4.464729220E-1,7.549369365E-2,4.926704029E-1
1.599998288E1,-2.039184299E-1,4.940815365E-1,2.643188520E-1,5.962916621E-1
1.601005088E1,-8.255040586E-2,6.375166601E-1,3.683465195E-1,7.408921783E-1
1.602011788E1,-2.216357857E-2,8.056311268E-1,4.853845342E-1,9.408139469E-1
1.603018588E1,-1.320655051E-1,8.721777034E-1,6.692806359E-1,1.107281271E0
1.604025388E1,-2.926668844E-1,8.624608004E-1,9.036347003E-1,1.282984103E0
1.605032088E1,-2.955738276E-1,8.569527233E-1,1.276905891E0,1.565956740E0
1.606038888E1,-3.552414474E-1,5.837526816E-1,1.901451380E0,2.020515041E0
1.607045588E1,-8.116821179E-1,7.952271760E-2,2.579619345E0,2.705473654E0
1.608052388E1,-1.325910821E0,-6.170859039E-2,3.287809839E0,3.545636895E0
1.609059088E1,-1.985217715E0,4.500601888E-1,4.043800736E0,4.527247281E0
1.610065888E1,-2.821375400E0,9.770498550E-1,4.481448456E0,5.384994506E0
1.611072588E1,-3.499617040E0,1.180142950E0,4.466800303E0,5.795891800E0
1.612079388E1,-4.029713332E0,9.059348488E-1,3.877177602E0,5.664963693E0
1.613086188E1,-4.347472665E0,6.701067013E-1,2.950750601E0,5.296837800E0
1.614092888E1,-4.923604671E0,5.498692364E-1,2.029503064E0,5.353795086E0
1.615099688E1,-5.862434785E0,4.382511520E-1,9.917863002E-1,5.961865962E0
1.616106388E1,-6.704758945E0,3.882387471E-1,2.091797546E-2,6.716022587E0
1.617113188E1,-7.308567576E0,4.050775588E-1,-6.473978698E-1,7.348358445E0
1.618119888E1,-7.906664647E0,1.965512305E-1,-9.586358035E-1,7.966991956E0
1.619126688E1,-8.286357104E0,-1.487835717E-1,-9.074773443E-1,8.337227700E0
1.620133488E1,-7.918379543E0,-5.423929864E-1,-6.056757934E-1,7.960010547E0
1.621140187E1,-7.571235613E0,-1.190878438E0,-5.553816989E-2,7.664521162E0
1.622146988E1,-7.297912779E0,-1.603045746E0,8.120157015E-1,7.515893566E0
1.623153688E1,-7.905567124E0,-1.770697113E0,1.899533494E0,8.321153004E0
1.624160488E1,-8.432201280E0,-1.564122001E0,3.144025637E0,9.134188156E0
1.625167188E1,-8.972645974E0,-1.220147846E0,4.278369101E0,1.001506758E1
1.626173988E1,-9.031561350E0,-8.376674366E-1,4.916569301E0,1.031714306E1
1.627180788E1,-8.318777575E0,-4.869379932E-1,5.506553360E0,9.988057813E0
1.628187487E1,-6.327324098E0,-4.273729920E-1,5.408621854E0,8.334918612E0
1.629194288E1,-2.821745237E0,-8.355425584E-1,4.356773247E0,5.257551775E0
1.630200988E1,1.508327284E-1,-1.639956880E0,3.104457529E0,3.514237560E0
1.631207788E1,1.601442440E0,-2.674248637E0,1.553726821E0,3.482856686E0
1.632214488E1,2.429426595E0,-3.782139882E0,-4.868929696E-1,4.521477682E0
1.633221288E1,3.213233866E0,-4.596270522E0,-2.727756507E0,6.236283360E0
1.634227988E1,3.290468276E0,-4.995942330E0,-4.356707758E0,7.400508342E0
1.635234788E1,2.669729032E0,-4.758448310E0,-5.218822988E0,7.550258062E0
1.636241588E1,2.438364064E0,-5.088411952E0,-5.883849628E0,8.152131129E0
1.637248288E1,2.112858924E0,-5.959390392E0,-5.589043540E0,8.438952208E0
1.638255088E1,1.970101200E0,-7.276430694E0,-4.867772532E0,8.973458185E0
1.639261788E1,1.712315004E0,-7.277084413E0,-4.045193835E0,8.500092552E0
1.640268588E1,2.109017011E0,-5.673957975E0,-2.006076195E0,6.376997221E0
1.641275288E1,2.656906380E0,-4.366435770E0,7.587610155E-1,5.167265343E0
1.642282088E1,2.925920400E0,-3.279542461E0,1.305716000E0,4.584899477E0
1.643288888E1,3.315134463E0,-2.621754674E0,-2.304121202E0,4.813801885E0
1.644295588E1,3.489398446E0,-2.017049080E0,-5.479205933E0,6.801917829E0
1.645302388E1,2.999298863E0,-1.360523121E0,-5.718661693E0,6.599235440E0
1.646309088E1,2.836768488E0,-1.106913006E0,-4.445650924E0,5.388536350E0
1.647315888E1,2.187692467E0,-6.747143072E-1,-2.677575703E0,3.522875157E0
1.648322588E1,1.110799651E0,2.042122525E-1,-1.723159689E0,2.060305274E0
1.649329388E1,7.901570553E-1,1.052784746E0,-1.277153813E0,1.834073542E0
1.650336088E1,4.206399232E-1,1.566227583E0,-9.059699321E-1,1.857629755E0
1.651342888E1,6.365290654E-1,1.412862133E0,-9.352305686E-1,1.809973722E0
1.652349688E1,1.931285629E0,1.142574005E0,-1.935885926E0,2.963611623E0
1.653356388E1,4.039310952E0,7.205892223E-1,-3.459138228E0,5.366648775E0
1.654363187E1,5.821866218E0,6.051072979E-1,-4.704517394E0,7.509511636E0
1.655369888E1,6.944014730E0,9.913767028E-1,-5.172884338E0,8.715555100E0
1.656376688E1,7.939570438E0,1.518605520E0,-5.214582002E0,9.619501386E0
1.657383388E1,8.832068970E0,1.904893636E0,-5.157852901E0,1.040372571E1
1.658390188E1,9.585506095E0,2.248489476E0,-4.871453354E0,1.098493012E1
1.659396988E1,9.862737207E0,2.764796280E0,-4.499304391E0,1.118755665E1
1.660403688E1,1.001786033E1,3.325299262E0,-3.906607808E0,1.125507554E1
1.661410487E1,1.024759626E1,3.887178095E0,-3.082142215E0,1.138520897E1
