"Time (s)","Linear Acceleration x (m/s^2)","Linear Acceleration y (m/s^2)","Linear Acceleration z (m/s^2)","Absolute acceleration (m/s^2)"
7.119833332E-3,1.765668654E0,-1.306651554E0,-1.993573093E0,2.966354287E0
1.718783333E-2,1.715630375E0,-1.389426493E0,-2.662832533E0,3.458984051E0
2.725483333E-2,1.515326694E0,-1.154187745E0,-2.714704353E0,3.316320862E0
3.732283333E-2,1.139593972E0,-6.915390855E-1,-2.320939987E0,2.676502036E0
4.738983333E-2,9.241058023E-1,-2.903353071E-1,-1.776317457E0,2.023257233E0
5.745783333E-2,1.188824165E0,8.710538685E-2,-1.132991734E0,1.644554807E0
6.752483333E-2,1.294423857E0,6.375207531E-1,-3.925773080E-1,1.495353729E0
7.759283333E-2,1.395818962E0,1.358602896E0,1.502747579E-1,1.953636329E0
8.765983333E-2,1.518409785E0,1.942797042E0,1.788534629E-1,2.472249417E0
9.772783333E-2,1.381961938E0,2.298976675E0,1.794978261E-1,2.688369770E0
1.077958333E-1,1.018841659E0,2.549328722E0,1.841580570E-1,2.751550372E0
1.178628333E-1,5.428949699E-1,2.723962834E0,5.469237015E-2,2.778074823E0
1.279308333E-1,8.013945267E-2,2.727246630E0,-6.252661586E-2,2.729140174E0
1.379978333E-1,-2.588793883E-1,2.419125847E0,-1.245805574E-1,2.436125760E0
1.480658333E-1,-7.461611429E-1,1.782714311E0,-2.535725467E-1,1.949134629E0
1.581328333E-1,-1.204715728E0,9.732339621E-1,-3.083774757E-1,1.579120324E0
1.682008333E-1,-1.253944314E0,1.262723762E-1,-2.538301165E-1,1.285593553E0
1.782678333E-1,-1.306377320E0,-4.919204056E-1,3.649036789E-1,1.442831273E0
1.883358333E-1,-1.182038837E0,-7.399879450E-1,1.407028513E0,1.981041950E0
1.984028333E-1,-8.272772998E-1,-8.268641210E-1,2.139307781E0,2.438181656E0
2.084708333E-1,-7.713543101E-1,-7.123592663E-1,2.485949582E0,2.698590098E0
2.185388333E-1,-6.668393502E-1,-5.715290773E-1,2.354444386E0,2.512912369E0
2.286058333E-1,-6.063316318E-1,-3.008141023E-1,1.753210576E0,1.879328204E0
2.386738333E-1,-5.728814652E-1,1.434322000E-1,8.000837271E-1,9.944344823E-1
2.487408333E-1,-4.740319457E-1,6.841961521E-1,-3.989518695E-1,9.230348066E-1
2.588088333E-1,-4.150897461E-1,1.091784505E0,-1.295120845E0,1.744027209E0
2.688758333E-1,-5.848880647E-1,1.357097238E0,-1.868483755E0,2.382233931E0
2.789438333E-1,-8.382609290E-1,1.481687370E0,-2.205920577E0,2.786425029E0
2.890108333E-1,-1.267315288E0,1.497152671E0,-2.243945020E0,2.980409940E0
2.990788333E-1,-2.009377386E0,1.528113093E0,-1.867672893E0,3.140211639E0
3.091458333E-1,-2.703518921E0,1.694771018E0,-1.794304516E0,3.660709229E0
3.192138333E-1,-2.935299334E0,2.015787250E0,-2.326234056E0,4.253321679E0
3.292818333E-1,-2.979897217E0,2.244825611E0,-2.723930089E0,4.619396560E0
3.393488333E-1,-2.950324339E0,2.188159075E0,-2.796580575E0,4.616634787E0
3.494168333E-1,-2.750333776E0,1.912744693E0,-2.448900454E0,4.149703794E0
3.594838333E-1,-2.189698939E0,1.316488910E0,-2.078715424E0,3.293779335E0
3.695518333E-1,-1.105152994E0,4.791997880E-1,-2.044054445E0,2.372583856E0
3.796188333E-1,1.784234002E-2,-4.042683041E-1,-2.135282850E0,2.173288766E0
3.896868333E-1,1.004596965E0,-1.323144211E0,-2.249716222E0,2.796631678E0
3.997538333E-1,1.682905263E0,-2.058944964E0,-2.382879396E0,3.570649620E0
4.098218333E-1,1.654370120E0,-2.531473079E0,-2.488067443E0,3.916091936E0
4.198888333E-1,4.581000372E-1,-2.558777822E0,-2.445531288E0,3.569008668E0
4.299568333E-1,-9.199132756E-1,-1.971563589E0,-2.592351365E0,3.384315148E0
4.400248333E-1,-2.115092414E0,-1.048419215E0,-2.959810277E0,3.785931279E0
4.500918333E-1,-3.037400198E0,-1.927160418E-1,-3.188337007E0,4.407769538E0
4.601598333E-1,-3.588030742E0,3.539436579E-1,-2.943400651E0,4.654336484E0
4.702268333E-1,-3.749601882E0,6.208398163E-1,-2.376384455E0,4.482427849E0
4.802948333E-1,-3.679524756E0,8.808122867E-1,-1.639863324E0,4.123576656E0
4.903618333E-1,-3.313324457E0,1.207037804E0,-1.026798039E0,3.672788236E0
5.004298333E-1,-2.813697129E0,1.461609786E0,-5.025085437E-1,3.210250697E0
5.104968333E-1,-2.231284921E0,1.567891701E0,-2.890757438E-1,2.742349644E0
5.205648333E-1,-1.364187864E0,1.588512492E0,-2.327062460E-1,2.106782538E0
5.306318333E-1,-4.541559441E-1,1.117287721E0,-2.997585337E-1,1.242756876E0
5.406998333E-1,2.198230027E-1,2.030825704E-1,-7.255096543E-1,7.848114050E-1
5.507678333E-1,9.436749713E-1,-6.762953943E-1,-1.535234417E0,1.924796775E0
5.608348333E-1,1.765161408E0,-1.500381503E0,-2.408265814E0,3.341658822E0
5.709028333E-1,2.941928907E0,-3.570834373E0,-2.481946578E0,5.250320240E0
5.809698333E-1,4.212088281E0,-6.049253910E0,-2.370095336E0,7.742900778E0
5.910378333E-1,5.393898565E0,-8.048522192E0,-1.698779869E0,9.836600238E0
6.011048333E-1,5.905459768E0,-9.439837920E0,-1.097615203E0,1.118882273E1
6.111728333E-1,5.520981365E0,-9.165264952E0,8.677234407E-1,1.073481536E1
6.212398333E-1,3.669469007E0,-6.792979395E0,4.584231397E0,8.979128541E0
6.313078333E-1,7.700992052E-1,-4.758780432E0,7.810866205E0,9.178707690E0
6.413748333E-1,-1.070320546E0,-3.603731393E0,9.079886248E0,9.827349607E0
6.514428333E-1,-1.785600204E0,-2.135727092E0,9.539137090E0,9.937043561E0
6.615108333E-1,-2.027330239E0,-6.813316011E-1,8.601640141E0,8.863548599E0
6.715778333E-1,-2.037916623E0,7.391465306E-1,6.365461977E0,6.724473804E0
6.816458333E-1,-1.740859941E0,1.799258423E0,4.868172774E0,5.474215046E0
6.917128333E-1,-1.277588992E0,2.380948207E0,4.160166175E0,4.960658283E0
7.017808333E-1,-8.203069071E-1,2.458327920E0,2.894324678E0,3.885021869E0
7.118478333E-1,-1.433227839E-1,2.132343308E0,1.000189626E0,2.359620455E0
7.219158333E-1,-8.769310512E-2,1.955476729E0,-1.053767956E0,2.223062353E0
7.319828333E-1,1.081941010E-1,1.771152611E0,-2.466455842E0,3.038435775E0
7.420508333E-1,9.839910847E-1,1.524165053E0,-2.867004440E0,3.392791184E0
7.521178333E-1,2.436600690E0,1.411892080E0,-2.841525782E0,4.000591324E0
7.621858333E-1,4.244946417E0,1.463768578E0,-2.631573026E0,5.204552346E0
7.722538333E-1,5.309149021E0,1.814196889E0,-1.853647761E0,5.908839455E0
7.823208333E-1,5.464701329E0,2.421247802E0,-1.087511945E-1,5.978062258E0
7.923888333E-1,5.492073315E0,2.799881328E0,2.340777251E0,6.594046018E0
8.024558333E-1,4.929669988E0,2.663990282E0,4.287973153E0,7.055863106E0
8.125238333E-1,3.826393365E0,2.480184812E0,4.750836698E0,6.585062810E0
8.225908333E-1,3.124642117E0,2.415417543E0,4.173873803E0,5.746203337E0
8.326588333E-1,2.807973582E0,2.472681080E0,3.125264553E0,4.875053424E0
8.427258333E-1,2.441840234E0,2.546415639E0,2.143422320E0,4.128083765E0
8.527938333E-1,1.961091226E0,2.580466315E0,1.317500770E0,3.498641662E0
8.628608333E-1,1.201303001E0,2.646645101E0,3.963552672E-1,2.933420647E0
8.729288333E-1,9.698016465E-2,2.638777088E0,-8.571211231E-1,2.776185565E0
8.829968333E-1,-1.257728485E0,2.382588351E0,-2.239502014E0,3.503423677E0
8.930638333E-1,-2.340319121E0,1.425190403E0,-2.637058299E0,3.802938041E0
9.031315833E-1,-3.155219547E0,3.038833058E-1,-1.697802215E0,3.595870939E0
9.131985833E-1,-3.940034001E0,-7.169113237E-1,3.121772888E-1,4.016874959E0
9.232665833E-1,-4.159264827E0,-1.439982104E0,1.158216769E0,4.551318319E0
9.333335833E-1,-4.926503136E0,-2.477311490E0,1.882171356E0,5.826669235E0
9.434015833E-1,-5.351681083E0,-3.513548616E0,1.745129870E0,6.635585321E0
9.534685833E-1,-4.586629925E0,-4.078221248E0,4.484337857E-1,6.153873210E0
9.635365833E-1,-3.890911542E0,-4.324949775E0,-1.123517345E0,5.925088557E0
9.736045833E-1,-4.093438335E0,-4.360134226E0,-2.760882738E0,6.587069255E0
9.836715833E-1,-4.373676085E0,-4.126481827E0,-4.002869350E0,7.223562681E0
9.937395833E-1,-4.210645480E0,-3.801402950E0,-4.782480952E0,7.419725318E0
1.003806583E0,-3.625736512E0,-3.279706768E0,-4.913929868E0,6.931749309E0
1.013874583E0,-2.395788294E0,-2.631256399E0,-3.992775301E0,5.348417186E0
1.023941583E0,-1.280886968E0,-2.385339466E0,-2.511347255E0,3.692882455E0
1.034009583E0,-1.431660201E0,-2.876478099E0,-1.193463492E0,3.427554856E0
1.044076583E0,-2.258965348E0,-3.410303745E0,-1.335471895E-1,4.092790115E0
1.054144583E0,-2.706417679E0,-3.363978009E0,6.234948908E-1,4.362314819E0
1.064211583E0,-2.443591621E0,-2.771077943E0,1.125455697E0,3.862209666E0
1.074279583E0,-1.690457819E0,-1.887970040E0,1.770367769E0,3.091323430E0
1.084347583E0,-2.683300419E-1,-1.074027096E0,2.755840684E0,2.969880989E0
1.094414583E0,2.015986640E0,-7.124253398E-1,4.118520843E0,4.640470443E0
1.104482583E0,4.155351870E0,-4.914842033E-1,4.900189203E0,6.443629421E0
1.114549583E0,4.730093408E0,-1.548436260E-1,4.518174233E0,6.543061867E0
1.124617583E0,4.745088007E0,6.151744491E-1,4.310984870E0,6.440410729E0
1.134684583E0,4.626590089E0,1.546248817E0,4.061550837E0,6.347630775E0
1.144752583E0,4.368843654E0,2.269544131E0,3.679287067E0,6.146118999E0
1.154819583E0,3.948889024E0,2.633253808E0,3.276677910E0,5.767527050E0
1.164887583E0,3.380118663E0,2.509413289E0,2.894309475E0,5.108755677E0
1.174954583E0,2.738397855E0,2.026383575E0,2.378074008E0,4.154550420E0
1.185022583E0,1.947125736E0,1.306501281E0,8.671995302E-1,2.500055850E0
1.195090583E0,1.140451539E0,5.266920429E-1,-1.676854126E0,2.095202611E0
1.205157583E0,9.085356172E-1,-6.223367035E-1,-3.679506630E0,3.840769321E0
1.215225583E0,1.467785322E0,-2.094109535E0,-4.451495801E0,5.133761132E0
1.225292583E0,1.699524658E0,-2.910016558E0,-4.546611289E0,5.659351080E0
1.235360583E0,2.501998435E0,-2.956142319E0,-3.667248527E0,5.333618409E0
1.245427583E0,3.045183134E0,-2.400051645E0,-2.556201539E0,4.644088127E0
1.255495583E0,3.329034756E0,-1.527221392E0,-1.523604743E0,3.966894125E0
1.265562583E0,3.523796154E0,-7.018032879E-1,-5.682452810E-1,3.637659947E0
1.275630583E0,3.094911364E0,4.684672236E-2,2.113663208E-1,3.102474285E0
1.285697583E0,2.150874012E0,9.073966527E-1,7.878070593E-1,2.463791319E0
1.295765583E0,1.374249168E0,1.618009356E0,1.308623528E0,2.493794416E0
1.305833583E0,7.510707575E-1,2.154032385E0,1.788631985E0,2.898821688E0
1.315900583E0,3.915017858E-2,2.540378973E0,2.414472048E0,3.504958393E0
1.325968583E0,-7.413021067E-1,2.501282735E0,3.003216498E0,3.978096714E0
1.336035583E0,-1.469326941E0,2.288911278E0,3.450953003E0,4.393986018E0
1.346103583E0,-1.626733840E0,2.157661167E0,3.082924865E0,4.099535391E0
1.356170583E0,-1.273837565E0,2.099549784E0,2.103183975E0,3.233288460E0
1.366238583E0,-9.428683479E-1,1.812387761E0,1.073264619E0,2.307736350E0
1.376305583E0,-6.471850312E-1,1.257564763E0,-7.055104226E-3,1.414343442E0
1.386373583E0,-3.569630869E-1,6.651324749E-1,-6.931945784E-1,1.024862224E0
1.396440583E0,-1.886301537E-1,-1.576093590E-1,-1.760803624E0,1.777878356E0
1.406508583E0,-1.930317914E-1,-4.962315577E-1,-1.961302310E0,2.032292741E0
1.416576583E0,-2.264643433E-1,-9.007600629E-1,-1.923343209E0,2.135861393E0
1.426643583E0,-6.272049491E-1,-1.235686237E0,-1.620601426E0,2.132288795E0
1.436711583E0,-1.324426359E0,-1.317110469E0,-1.135804099E0,2.186077793E0
1.446778583E0,-2.016852321E0,-1.206836075E0,-5.894706738E-1,2.423143056E0
1.456846583E0,-2.371957820E0,-7.490318334E-1,2.639330819E-2,2.487554863E0
1.466913583E0,-2.233309812E0,-5.173557937E-2,5.540485337E-1,2.301590551E0
1.476981583E0,-1.854155884E0,6.019404459E-1,8.457330859E-1,2.124968422E0
1.487048583E0,-1.332448008E0,9.407678819E-1,8.770076497E-1,1.851919091E0
1.497116583E0,-9.108432940E-1,1.036570417E0,8.208276017E-1,1.605575189E0
1.507183583E0,-8.165259513E-1,1.151500949E0,6.406164153E-1,1.550180137E0
1.517251583E0,-7.601441744E-1,1.335143282E0,-1.228369908E-1,1.541270799E0
1.527319583E0,-9.748442852E-1,1.544225096E0,-1.022826391E0,2.093114032E0
1.537386583E0,-1.942446063E0,1.514042353E0,-1.703885365E0,2.994769823E0
1.547454583E0,-3.031027902E0,1.358472503E0,-2.283992600E0,4.031029631E0
1.557521583E0,-3.413974627E0,1.431092582E0,-2.795509365E0,4.638762910E0
1.567589583E0,-3.264433841E0,1.656381708E0,-2.937397607E0,4.693445788E0
1.577656583E0,-2.691195037E0,2.131244032E0,-2.927758180E0,4.511817795E0
1.587724583E0,-1.791823542E0,2.371093894E0,-2.746082851E0,4.046441509E0
1.597791583E0,-3.953208947E-1,1.885300786E0,-2.903286413E0,3.484208613E0
1.607859583E0,1.075437591E0,8.311068606E-1,-3.243154653E0,3.516440918E0
1.617927583E0,1.994499877E0,-5.702660787E-1,-3.409591846E0,3.991058721E0
1.627994583E0,1.836892418E0,-2.079821278E0,-3.196081059E0,4.232583660E0
1.638062583E0,3.557764676E-1,-3.156345720E0,-2.589961023E0,4.098413511E0
1.648129583E0,-1.260894899E0,-3.268857259E0,-2.333278781E0,4.209450510E0
1.658197583E0,-2.508271912E0,-2.635503232E0,-2.768699881E0,4.571980348E0
1.668264583E0,-3.483457675E0,-1.846041411E0,-3.482273029E0,5.260092367E0
1.678332583E0,-4.346748195E0,-1.586713888E0,-3.826153629E0,6.004276178E0
1.688399583E0,-5.100616261E0,-1.810403801E0,-3.287974731E0,6.332821329E0
1.698467583E0,-5.075335824E0,-1.680157657E0,-2.277442403E0,5.811084871E0
1.708534583E0,-4.222057491E0,-1.077706749E0,-1.005321070E0,4.471900239E0
1.718602583E0,-3.013291835E0,-3.867371821E-1,4.174900281E-1,3.066560167E0
1.728670583E0,-1.937784663E0,2.286536139E-1,1.559482966E0,2.497854879E0
1.738737583E0,-1.413665541E0,5.743263853E-1,2.292450159E0,2.753838919E0
1.748805583E0,-9.120528636E-1,6.784565252E-1,2.585259862E0,2.824130350E0
1.758872583E0,-2.065683880E-1,5.404727608E-1,2.396850879E0,2.465699787E0
1.768940583E0,1.139850957E0,2.621716082E-1,1.635736506E0,2.010877438E0
1.779007583E0,2.414770549E0,5.859377861E-2,1.296340574E0,2.741358954E0
1.789075583E0,3.650395097E0,-1.421832347E-1,1.206386716E0,3.847202795E0
1.799142583E0,5.024008965E0,-9.634661883E-1,9.338819084E-1,5.200102748E0
1.809210583E0,6.160608285E0,-2.415132199E0,6.805489513E-1,6.652000064E0
1.819277583E0,6.982326272E0,-3.740383746E0,8.448291063E-1,7.965995666E0
1.829345583E0,6.265551188E0,-4.558714440E0,1.210128057E0,7.842411552E0
1.839413583E0,4.190089594E0,-4.759237100E0,1.484996309E0,6.512480527E0
1.849480583E0,1.413712026E0,-4.567279442E0,1.901214568E0,5.145215256E0
1.859548583E0,-1.279428380E0,-4.776740155E0,2.102665765E0,5.373582307E0
1.869615583E0,-2.709325207E0,-4.791562847E0,2.645472442E0,6.107212296E0
1.879683583E0,-3.013623957E0,-4.505560911E0,3.456902837E0,6.429011254E0
1.889750583E0,-2.599227691E0,-3.337574907E0,4.650552856E0,6.286734662E0
1.899818583E0,-2.072943491E0,-1.679805070E0,5.633971206E0,6.233816755E0
1.909885708E0,-1.925936596E0,-1.100048375E-1,5.365267088E0,5.701528196E0
1.919953708E0,-1.066332014E0,1.144280223E0,5.002577165E0,5.241394804E0
1.930021708E0,-3.441218705E-1,2.317960246E0,4.244828010E0,4.848703373E0
1.940088708E0,9.057775587E-2,2.734770243E0,3.597469902E0,4.519840960E0
1.950156708E0,4.030473324E-1,2.789763891E0,2.298422944E0,3.637028697E0
1.960223708E0,7.757498083E-1,2.824199898E0,4.413621631E-1,2.961873290E0
1.970291708E0,1.759368571E0,2.518274159E0,-9.661643860E-1,3.220334786E0
1.980358708E0,2.782007559E0,2.096299902E0,-1.605821712E0,3.835714106E0
1.990426708E0,3.638615589E0,1.672638137E0,-1.633291931E0,4.324914366E0
2.000493708E0,4.186422512E0,1.442256086E0,-1.103672187E0,4.563368095E0
2.010561708E0,4.129439934E0,1.641294723E0,-1.070821068E-1,4.444950968E0
2.020628708E0,3.812105693E0,1.827188233E0,1.297259464E0,4.421950788E0
2.030696708E0,3.329598720E0,1.576751987E0,2.607897065E0,4.513701537E0
2.040763708E0,2.689592316E0,1.194865070E0,3.368053519E0,4.472738967E0
2.050831708E0,2.341349108E0,1.053396950E0,3.413449839E0,4.271205987E0
2.060899708E0,2.212294334E0,1.201461899E0,2.811657035E0,3.774012745E0
2.070966708E0,2.118988560E0,1.642294596E0,1.843506935E0,3.253576782E0
2.081034708E0,1.728509160E0,2.286695184E0,1.033322581E0,3.047043540E0
2.091101708E0,8.430392736E-1,3.081214846E0,1.334732223E-1,3.197251202E0
2.101169708E0,-4.533322176E-1,3.848728559E0,-1.335911898E0,4.099131886E0
2.111236708E0,-1.641468677E0,3.994712484E0,-2.503795869E0,4.992107871E0
2.121304708E0,-2.608075405E0,3.425034050E0,-2.702987410E0,5.083213206E0
2.131371708E0,-3.905869889E0,2.369600515E0,-2.057662378E0,5.010469105E0
2.141439708E0,-4.546195552E0,9.708383578E-1,-6.677467650E-1,4.696414255E0
2.151506708E0,-5.339383804E0,-6.468429691E-1,2.487549088E0,5.925818567E0
2.161574708E0,-6.042258886E0,-2.166408602E0,2.565048376E0,6.912430242E0
2.171642708E0,-6.232691005E0,-3.758368027E0,1.043621575E0,7.352612691E0
2.181709708E0,-6.526500143E0,-5.143027285E0,-8.019526434E-1,8.347997474E0
2.191777708E0,-6.541864287E0,-6.423441213E0,-2.563962256E0,9.520004613E0
2.201844708E0,-6.287768269E0,-7.136730187E0,-4.095959069E0,1.035595617E1
2.211912708E0,-5.577877697E0,-7.079654930E0,-4.791151203E0,1.020731911E1
2.221979708E0,-4.395420126E0,-6.007668512E0,-4.651516477E0,8.777722061E0
2.232047708E0,-2.857273504E0,-4.329472012E0,-3.874595179E0,6.474629532E0
2.242114708E0,-1.439962370E0,-3.104356956E0,-2.489677474E0,4.231904733E0
2.252182708E0,-7.901535469E-1,-2.935224490E0,-6.474738836E-1,3.107910530E0
2.262250708E0,-1.440754083E0,-3.645289308E0,9.501395068E-1,4.033196196E0
2.272317708E0,-2.555574718E0,-4.349253727E0,2.343629522E0,5.562334893E0
2.282385708E0,-2.779782109E0,-3.979545391E0,3.649280033E0,6.072990602E0
2.292452708E0,-1.568017416E0,-2.223120747E0,5.169586508E0,5.841709436E0
2.302520708E0,9.963868895E-1,-7.006654197E-1,6.748301990E0,6.857353616E0
2.312587708E0,2.985669004E0,1.149445653E-2,6.972160302E0,7.584548161E0
2.322655708E0,3.952936175E0,5.574238390E-1,6.163748825E0,7.343583955E0
2.332722708E0,4.265242102E0,1.157729988E0,5.055154159E0,6.714701221E0
2.342790708E0,4.534383591E0,1.625373924E0,4.123003611E0,6.340475828E0
2.352857708E0,4.611118941E0,1.522073504E0,3.220626501E0,5.826796779E0
2.362925708E0,4.204526369E0,1.065790708E0,2.283099438E0,4.901682861E0
2.372993708E0,3.090468358E0,6.563394320E-1,1.549680548E0,3.518989332E0
2.383060708E0,2.252890676E0,3.650358260E-1,9.013143790E-1,2.453800147E0
2.393128708E0,1.979395350E0,2.203032053E-1,4.828490353E-1,2.049312725E0
2.403195708E0,2.051351039E0,1.988708210E-1,1.948897442E-1,2.070162482E0
2.413263708E0,2.144054112E0,2.315766370E-1,-1.834527366E-1,2.164312981E0
2.423330708E0,2.216482110E0,5.833357751E-2,-5.387795533E-1,2.281771057E0
2.433398708E0,2.319857813E0,-4.426359791E-1,-1.297712038E0,2.694758508E0
2.443465708E0,2.269525273E0,-1.203336516E0,-3.390488993E0,4.253725349E0
2.453533708E0,2.689057003E0,-1.806173925E0,-3.631618811E0,4.866410073E0
2.463600708E0,2.876366709E0,-2.231538983E0,-2.865694664E0,4.633082946E0
2.473668708E0,2.475503823E0,-2.261810603E0,-2.156076572E0,3.986548955E0
2.483736708E0,1.809148696E0,-1.968189746E0,-1.490541662E0,3.060801255E0
2.493803708E0,1.374830381E0,-1.420948248E0,-6.204550695E-1,2.072249259E0
2.503871708E0,1.877762848E0,-6.671006477E-1,9.909861088E-3,1.992765614E0
2.513938708E0,1.999939834E0,2.389827204E-1,4.644700670E-1,2.067027945E0
2.524006708E0,1.368465687E0,1.268664533E0,8.531602192E-1,2.051850480E0
2.534073708E0,8.934162524E-1,2.256204293E0,1.064539696E0,2.649885880E0
2.544141708E0,5.295083544E-1,3.100767351E0,1.008159381E0,3.303259390E0
2.554208708E0,1.084851096E-1,3.820457856E0,1.210374956E0,4.009074055E0
2.564276708E0,-3.708794967E-1,4.230124894E0,1.472858513E0,4.494532281E0
2.574343708E0,-8.064368731E-1,3.945519274E0,1.598719830E0,4.332824467E0
2.584411708E0,-1.262712067E0,2.884838448E0,1.859356105E0,3.657039754E0
2.594479708E0,-1.720107296E0,1.442251409E0,2.438406895E0,3.314315377E0
2.604546708E0,-1.983841134E0,3.373901904E-1,2.431905668E0,3.156520705E0
2.614614708E0,-1.967755590E0,-5.081353194E-1,1.598768946E0,2.585793052E0
2.624681708E0,-1.599159394E0,-1.206422092E0,9.230578351E-1,2.205629343E0
2.634749708E0,-1.256614299E0,-1.610761732E0,3.215196776E-1,2.068092782E0
2.644816708E0,-1.170111467E0,-1.757770089E0,-4.259544575E-1,2.154148029E0
2.654884708E0,-1.082398116E0,-1.547901825E0,-1.045174741E0,2.158697751E0
2.664951708E0,-1.111601669E0,-1.007689850E0,-1.400625519E0,2.052522582E0
2.675019708E0,-1.118386194E0,-1.651867658E-1,-1.417839722E0,1.813379117E0
2.685086708E0,-1.126051528E0,6.941627312E-1,-1.143766837E0,1.748729973E0
2.695154708E0,-1.044252782E0,1.215204025E0,-9.365906310E-1,1.855905898E0
2.705222708E0,-1.104994096E0,1.419808041E0,-9.687013467E-1,2.043342635E0
2.715289708E0,-1.591097107E0,1.365033664E0,-8.458468142E-1,2.260611364E0
2.725357708E0,-2.486958519E0,1.368588771E0,-7.027417660E-1,2.924353585E0
2.735424708E0,-3.451379850E0,1.633154229E0,-7.180522616E-1,3.885204583E0
2.745492708E0,-4.228726825E0,1.975601091E0,-1.027231829E0,4.779156355E0
2.755559708E0,-4.694583267E0,2.250421396E0,-1.676503147E0,5.469384912E0
2.765627708E0,-4.221172222E0,2.771201320E0,-2.681979825E0,5.717592804E0
2.775694708E0,-3.267582859E0,3.377621902E0,-3.147980694E0,5.656430845E0
2.785762708E0,-2.511761823E0,3.680617016E0,-3.055077792E0,5.402720555E0
2.795829708E0,-1.825388899E0,3.298980360E0,-2.864539254E0,4.735071402E0
2.805897708E0,-7.228829388E-1,2.188958974E0,-2.938899757E0,3.735134926E0
2.815965708E0,2.857676084E-1,7.422823924E-1,-3.047329062E0,3.149422279E0
2.826032708E0,9.390926546E-1,-9.412496924E-1,-3.054130543E0,3.330999756E0
2.836100708E0,7.837694107E-1,-2.611847152E0,-3.021631719E0,4.070171775E0
2.846167708E0,-7.537616462E-2,-3.946576450E0,-2.887953844E0,4.890953348E0
2.856235708E0,-9.219933495E-1,-4.826599948E0,-3.008590089E0,5.761749137E0
2.866302708E0,-1.703740939E0,-5.202360737E0,-3.387973520E0,6.437829991E0
2.876370708E0,-2.539493413E0,-4.868381227E0,-3.652631657E0,6.594837419E0
2.886437708E0,-3.443923481E0,-3.716014305E0,-3.300501806E0,6.046708479E0
2.896505708E0,-3.501547791E0,-1.689410291E0,-2.335053996E0,4.535131886E0
2.906572750E0,-3.134068998E0,-9.646677911E-2,-1.133592609E0,3.334175539E0
2.916640750E0,-2.865149118E0,7.454866666E-1,-9.946340404E-2,2.962215861E0
2.926708750E0,-2.515624201E0,1.228063222E0,6.282249959E-1,2.869001750E0
2.936775750E0,-2.028571457E0,1.496833413E0,1.051784434E0,2.731641066E0
2.946843750E0,-1.450351849E0,1.532811331E0,1.397444780E0,2.530984586E0
2.956910750E0,-1.115929120E0,1.344736809E0,1.359057809E0,2.213741858E0
2.966978750E0,-5.401714099E-1,9.895728368E-1,8.905380336E-1,1.436696746E0
2.977045750E0,4.958715520E-1,4.673732096E-1,1.055331063E-1,6.895386498E-1
2.987113750E0,1.497605245E0,2.207300520E-1,-7.633167274E-1,1.695345290E0
2.997180750E0,2.528558827E0,-7.258324206E-2,-1.396791938E0,2.889620354E0
3.007248750E0,4.014180788E0,-5.716851979E-1,-1.607318599E0,4.361644695E0
3.017316750E0,5.057532222E0,-2.098190891E0,-1.823460926E0,5.771139137E0
3.027383750E0,5.996488636E0,-4.325221086E0,-1.540845113E0,7.552457684E0
3.037451750E0,5.926913202E0,-5.707811599E0,-5.363156828E-1,8.245910979E0
3.047518750E0,5.194578093E0,-6.448966649E0,3.859861073E-1,8.289861137E0
3.057586750E0,3.384639438E0,-6.961115497E0,1.277946549E0,7.845129729E0
3.067653750E0,6.899942511E-1,-7.388603679E0,3.151087904E0,8.062066197E0
3.077721750E0,-2.043091701E0,-6.804596059E0,6.274605601E0,9.478788249E0
3.087788750E0,-3.430097739E0,-5.091937823E0,8.092490330E0,1.015784431E1
3.097856750E0,-3.735905364E0,-3.395320839E0,9.271687201E0,1.055695865E1
3.107923750E0,-3.505691128E0,-1.805164111E0,9.627944017E0,1.040412388E1
3.117991750E0,-2.912418887E0,-2.528739506E-1,8.934234445E0,9.400355000E0
3.128059750E0,-2.090841818E0,1.035165916E0,7.352719316E0,7.713991790E0
3.138126750E0,-1.617539386E0,1.878008723E0,5.244670020E0,5.800854596E0
3.148194750E0,-1.098718645E0,2.702657919E0,2.696916246E0,3.973021485E0
3.158261750E0,-8.714609078E-1,3.545335835E0,-3.855575064E-1,3.671172140E0
3.168329750E0,-7.610982938E-1,3.592601802E0,-2.115534025E0,4.238106008E0
3.178396750E0,4.195286599E-1,3.055314020E0,-2.276407592E0,3.833142260E0
3.188464750E0,2.131123725E0,2.502325294E0,-2.751174898E0,4.286290183E0
3.198531750E0,3.591787578E0,1.983365609E0,-2.297962768E0,4.702691785E0
3.208599750E0,4.612601210E0,1.886818138E0,-1.063696528E0,5.095843690E0
3.218666750E0,5.183414589E0,2.046008000E0,3.726529938E-1,5.585051995E0
3.228734750E0,5.362525329E0,2.023834773E0,2.085898582E0,6.099471943E0
3.238802750E0,4.987656825E0,1.813418040E0,3.400543865E0,6.303086876E0
3.248869750E0,4.329134628E0,1.747285447E0,3.743767237E0,5.984162948E0
3.258937750E0,3.769138014E0,1.895411791E0,3.486954018E0,5.473375151E0
3.269004750E0,3.401311604E0,2.240137898E0,2.897474573E0,4.998249427E0
3.279072750E0,3.077785454E0,2.644465844E0,2.252410035E0,4.641046635E0
3.289139750E0,2.469078903E0,3.072935774E0,1.297944173E0,4.150173969E0
3.299207750E0,1.071475006E0,3.845454703E0,-5.219578448E-1,4.025918597E0
3.309274750E0,-9.582218206E-1,4.310463299E0,-2.596137730E0,5.122325060E0
3.319342750E0,-2.505875139E0,3.630796984E0,-3.536922568E0,5.654371601E0
3.329410750E0,-3.448379936E0,2.362917148E0,-3.806648779E0,5.653784269E0
3.339477750E0,-3.999822658E0,3.581355268E-1,-1.829846670E0,4.413069361E0
3.349545750E0,-4.882984941E0,-1.565436455E0,1.299792478E0,5.289952146E0
3.359612750E0,-6.380786945E0,-2.992616665E0,2.602899450E0,7.513007526E0
3.369680750E0,-6.992226777E0,-4.135889997E0,1.697519209E0,8.299300744E0
3.379747750E0,-7.277112479E0,-5.303493594E0,-2.754272461E-2,9.004674838E0
3.389815750E0,-7.429885021E0,-6.178835226E0,-2.000329843E0,9.868257985E0
3.399882750E0,-7.198820601E0,-6.610283727E0,-3.774995170E0,1.047709204E1
3.409950750E0,-6.265418456E0,-6.421968884E0,-4.731116670E0,1.014300832E1
3.420017750E0,-4.915174155E0,-5.578532000E0,-5.048771338E0,8.987160190E0
3.430085750E0,-2.986571814E0,-4.422676629E0,-4.657269845E0,7.083067286E0
3.440153750E0,-1.051647097E0,-3.286396567E0,-3.025536197E0,4.589142980E0
3.450220750E0,5.496068425E-2,-2.734114185E0,-1.107590991E0,2.950450619E0
3.460288750E0,-2.107555792E-2,-2.908200998E0,5.917832476E-1,2.967875441E0
3.470355750E0,-1.024541379E0,-3.130650131E0,1.985820270E0,3.846314785E0
3.480423750E0,-1.652134583E0,-2.598896738E0,3.207283447E0,4.446400797E0
3.490490750E0,-1.139223770E0,-1.755700175E0,4.594943496E0,5.049140485E0
3.500558750E0,1.208195625E0,-1.806432956E0,7.034030861E0,7.362100709E0
3.510625750E0,3.690482438E0,-2.303985400E0,8.417553420E0,9.475400516E0
3.520693750E0,4.508928908E0,-2.321911209E0,7.809475737E0,9.311800193E0
3.530760750E0,4.248004510E0,-1.552917566E0,6.435038581E0,7.865546187E0
3.540828750E0,4.203938139E0,-2.799377882E-1,5.343969190E0,6.805106006E0
3.550895750E0,4.313390415E0,8.109059000E-1,4.524544774E0,6.303523670E0
3.560963750E0,4.343976907E0,1.431169181E0,3.657770775E0,5.856421061E0
3.571031750E0,4.229596891E0,1.574925901E0,2.694126247E0,5.256253198E0
3.581098750E0,3.687945039E0,1.151740685E0,1.557339669E0,4.165663460E0
3.591166750E0,2.820932474E0,7.124586689E-1,6.741959515E-1,2.986603013E0
3.601233750E0,2.228412477E0,4.568148923E-1,4.881957293E-2,2.275276986E0
3.611301750E0,1.905316244E0,1.169513297E-1,-9.631008835E-1,2.138099837E0
3.621368750E0,1.446042305E0,-1.646470678E-1,-2.272034021E0,2.698200437E0
3.631436750E0,1.154255719E0,-6.598892766E-1,-3.975152086E0,4.191609980E0
3.641503750E0,2.078464140E0,-1.490280438E0,-4.422705281E0,5.108940298E0
3.651571750E0,2.781174331E0,-1.792133591E0,-4.078534659E0,5.251772884E0
3.661639750E0,2.770646711E0,-1.724964285E0,-3.699102988E0,4.933087056E0
3.671706750E0,2.448935830E0,-1.400271324E0,-2.617185659E0,3.848078385E0
3.681774750E0,2.036907978E0,-8.505751652E-1,-1.376060489E0,2.601156414E0
3.691841750E0,2.465372645E0,-1.114227873E-1,-8.273342371E-2,2.469275630E0
3.701909750E0,3.367027917E0,7.012308455E-1,4.858112347E-1,3.473415358E0
3.711976750E0,3.294975602E0,1.500761572E0,1.092933191E0,3.782016985E0
3.722044750E0,2.491764053E0,2.302099673E0,1.281452540E0,3.626385475E0
3.732111750E0,1.756020602E0,2.998255135E0,1.170299309E0,3.666434601E0
3.742179750E0,8.549143839E-1,3.463213445E0,1.075962524E0,3.725912146E0
3.752246750E0,-1.008361476E-1,3.341952133E0,9.162215629E-1,3.466738227E0
3.762314750E0,-1.073729473E0,2.467771758E0,1.092636152E0,2.904590538E0
3.772382750E0,-2.122272064E0,1.100931305E0,1.485860528E0,2.814936937E0
3.782449750E0,-3.076041815E0,-2.587047940E-1,1.978798641E0,3.666688626E0
3.792517750E0,-3.856350405E0,-1.313595707E0,1.947532556E0,4.515512726E0
3.802584750E0,-3.606762297E0,-1.971920854E0,1.756202158E0,4.470061760E0
3.812652750E0,-2.690572601E0,-2.068111644E0,1.357760897E0,3.655103466E0
3.822719750E0,-1.838456695E0,-1.740518464E0,6.979341853E-1,2.626107322E0
3.832787750E0,-1.019753679E0,-1.166710142E0,5.475186557E-3,1.549561260E0
3.842854750E0,-4.717046077E-1,-2.955744123E-1,-5.866065614E-1,8.086882762E-1
3.852922750E0,-1.977031320E-1,5.514076388E-1,-1.025862411E0,1.181325780E0
3.862989750E0,-3.334820576E-1,9.854043567E-1,-1.299139198E0,1.664330101E0
3.873057750E0,-1.252828373E0,1.071503438E0,-1.443545544E0,2.191237615E0
3.883125750E0,-2.663156761E0,1.210002927E0,-1.320079100E0,3.209224182E0
3.893192750E0,-3.947175205E0,1.601189840E0,-1.106711716E0,4.401001230E0
3.903260375E0,-4.822169220E0,2.164058021E0,-1.098206502E0,5.398381297E0
3.913327375E0,-5.197173672E0,2.729392558E0,-1.543656892E0,6.069849629E0
3.923395375E0,-4.873613901E0,3.203413467E0,-2.549333400E0,6.364987909E0
3.933462375E0,-4.147487950E0,3.584677071E0,-3.280250559E0,6.388396491E0
3.943530375E0,-3.362970534E0,3.624948015E0,-3.242560576E0,5.913037968E0
3.953597375E0,-2.551229067E0,3.230599512E0,-2.842167807E0,5.002345530E0
3.963665375E0,-1.468106627E0,2.504573548E0,-2.518282346E0,3.843172088E0
3.973733375E0,-2.908479618E-1,1.823209788E0,-2.370192400E0,3.004413167E0
3.983800375E0,7.287004799E-1,1.185960930E0,-2.253631518E0,2.648841772E0
3.993868375E0,1.401654044E0,3.368838215E-1,-2.082750003E0,2.532976972E0
4.003935375E0,9.470571470E-1,-8.365319073E-1,-1.961281260E0,2.333093880E0
4.014003375E0,-5.512405546E-1,-1.879302127E0,-1.911543528E0,2.736720902E0
4.024070375E0,-1.950062208E0,-2.381738166E0,-2.177250509E0,3.770389779E0
4.034138375E0,-3.113014052E0,-2.223577999E0,-2.543209026E0,4.593807544E0
4.044205375E0,-3.924808728E0,-1.658694282E0,-2.645837016E0,5.015560167E0
4.054273375E0,-4.226902786E0,-1.318306809E0,-2.242293621E0,4.963116026E0
4.064340375E0,-4.095624024E0,-1.369367620E0,-1.390996470E0,4.536978621E0
4.074408375E0,-3.443908570E0,-1.424587555E0,-2.261270320E-1,3.733776825E0
4.084476375E0,-2.384949749E0,-1.334387822E0,7.132152987E-1,2.824402986E0
4.094543375E0,-1.152020547E0,-1.379289760E0,1.043562079E0,2.078127377E0
4.104611375E0,-7.726993158E-2,-1.601036643E0,7.351496664E-1,1.763443792E0
4.114678375E0,9.465963864E-1,-2.183919843E0,3.241089709E-1,2.402206741E0
4.124746375E0,1.973750155E0,-2.802758743E0,-4.490413114E-2,3.428288586E0
4.134813375E0,2.693564622E0,-2.525857413E0,-7.637703252E-1,3.770754719E0
4.144881375E0,3.097650200E0,-2.193919167E0,-1.077641699E0,3.945887695E0
4.154948375E0,3.247566962E0,-2.347516751E0,-7.142420697E-1,4.070340011E0
4.165016375E0,4.147032744E0,-3.263284278E0,9.718203977E-2,5.277911444E0
4.175083375E0,5.700169873E0,-4.105510204E0,1.313905610E0,7.146572505E0
4.185151375E0,5.777296402E0,-4.129371521E0,2.545795834E0,7.543867662E0
4.195219375E0,4.117139439E0,-3.855787902E0,3.931698210E0,6.875768199E0
4.205286375E0,1.547925798E0,-3.986454461E0,5.815266466E0,7.218394387E0
4.215354375E0,-4.596712206E-1,-4.660616207E0,5.794455056E0,7.450392638E0
4.225421375E0,-1.604297050E0,-4.959758005E0,5.092084004E0,7.287131671E0
4.235489375E0,-2.309455470E0,-5.052318259E0,5.075984280E0,7.524966497E0
4.245556375E0,-2.792367363E0,-4.464775997E0,6.041122187E0,8.014156068E0
4.255624375E0,-2.909017854E0,-2.863722398E0,6.879254478E0,7.999214525E0
4.265691375E0,-2.794029727E0,-9.684971327E-1,6.255084672E0,6.918863567E0
4.275759375E0,-2.475374600E0,3.992478848E-1,5.282572841E0,5.847431411E0
4.285826375E0,-2.088391104E0,1.550856423E0,3.759297150E0,4.571525796E0
4.295894375E0,-1.582399666E0,2.462361914E0,1.928636840E0,3.505261040E0
4.305962375E0,-7.951359594E-1,2.888561954E0,7.836695695E-1,3.096799857E0
4.316029375E0,3.624846858E-1,2.971646211E0,1.062789917E-2,2.993691585E0
4.326097375E0,1.457299364E0,3.103176988E0,-9.483713087E-1,3.557082653E0
4.336164375E0,2.369282573E0,3.330094564E0,-1.605794230E0,4.391082421E0
4.346232375E0,3.178323650E0,3.588983545E0,-2.041272340E0,5.210502555E0
4.356299375E0,3.864245315E0,3.722938578E0,-2.122720253E0,5.770494328E0
4.366367375E0,4.252630243E0,3.544754621E0,-1.466628158E0,5.727228602E0
4.376434375E0,4.167956128E0,2.874636226E0,-4.661450019E-1,5.084553361E0
4.386502375E0,3.359979683E0,1.855399879E0,1.028719653E0,3.973693031E0
4.396569375E0,2.250370233E0,1.277578613E0,2.124448398E0,3.348082182E0
4.406637375E0,1.630827914E0,1.271351913E0,2.388503394E0,3.159253683E0
4.416705375E0,1.311380490E0,1.620103244E0,2.391618791E0,3.172427107E0
4.426772375E0,7.025914925E-1,2.324268222E0,1.965059731E0,3.123670488E0
4.436840375E0,-3.216412997E-1,3.155058163E0,1.049348338E0,3.340505512E0
4.446907375E0,-1.425909318E0,3.554136479E0,2.287079930E-1,3.836327781E0
4.456975375E0,-2.061833781E0,3.412197658E0,-3.495304719E-1,4.002052342E0
4.467042375E0,-2.622712155E0,2.528578708E0,-1.080544403E0,3.799987570E0
4.477110375E0,-4.341989439E0,9.644771719E-1,-1.628136148E0,4.736445484E0
4.487177375E0,-5.687790733E0,-1.205532146E0,-1.627792040E0,6.037712986E0
4.497245375E0,-5.578995684E0,-3.276758602E0,7.004870796E-1,6.507919939E0
4.507312375E0,-5.442115874E0,-3.862395841E0,1.469253266E0,6.833259250E0
4.517380375E0,-5.440285696E0,-3.810332233E0,9.046201023E-1,6.703258738E0
4.527448375E0,-5.496832364E0,-3.419789683E0,-2.220050374E-1,6.477608644E0
4.537515375E0,-5.630506146E0,-3.045560279E0,-1.834991927E0,6.659221595E0
4.547583375E0,-5.455896007E0,-3.214750634E0,-3.346054831E0,7.162227713E0
4.557650375E0,-5.127463167E0,-3.525130781E0,-3.740238735E0,7.259945685E0
4.567718375E0,-4.433370017E0,-3.464935450E0,-3.654853307E0,6.709582705E0
4.577785375E0,-2.672339521E0,-3.206546990E0,-2.824761815E0,5.040101331E0
4.587853375E0,-9.933358124E-1,-3.437833021E0,-1.042504756E0,3.727227935E0
4.597920375E0,-5.955408145E-1,-4.446201732E0,6.373614165E-1,4.530961077E0
4.607988375E0,-8.984825724E-1,-4.898460474E0,1.811833445E0,5.299521335E0
4.618056375E0,-1.181891780E0,-3.492758841E0,2.694178579E0,4.566708959E0
4.628123375E0,-7.591415962E-1,-1.851890965E0,3.200104236E0,3.774448732E0
4.638191375E0,4.675803472E-1,-9.201389050E-1,3.431132404E0,3.583009428E0
4.648258375E0,2.144848018E0,-7.106588960E-1,3.347928864E0,4.039063847E0
4.658326375E0,4.080358406E0,-9.118428755E-1,3.571596265E0,5.498825513E0
4.668393375E0,6.011716540E0,-1.059511383E0,3.834113151E0,7.208586809E0
4.678461375E0,6.365489459E0,-1.055540539E0,3.052042795E0,7.137827898E0
4.688528375E0,6.120921478E0,-8.541834819E-1,2.721848481E0,6.753056220E0
4.698596375E0,5.649235947E0,-5.496616602E-1,2.699094626E0,6.284990575E0
4.708663375E0,4.722921213E0,-8.922909558E-2,2.533291856E0,5.360178564E0
4.718731375E0,3.563424781E0,4.123216742E-1,2.172505201E0,4.193779224E0
4.728799375E0,2.632589564E0,6.238084477E-1,1.857372145E0,3.281691040E0
4.738866375E0,2.018560000E0,6.615785372E-1,1.418817523E0,2.554469377E0
4.748934375E0,1.428814215E0,8.282025486E-1,8.643402417E-1,1.864004714E0
4.759001375E0,7.574014648E-1,8.554622680E-1,3.712359211E-1,1.201369543E0
4.769069375E0,3.284258240E-1,4.672872555E-1,1.642693377E-1,5.943107911E-1
4.779136375E0,1.640816420E-2,-1.301941037E-1,-5.997489095E-1,6.139368753E-1
4.789204375E0,-3.786656857E-2,-7.868177104E-1,-1.862439927E0,2.022176666E0
4.799271375E0,3.655401483E-1,-1.170759923E0,-2.429567220E0,2.721597927E0
4.809339375E0,7.844001791E-1,-1.375706586E0,-2.948816342E0,3.347143569E0
4.819406375E0,4.038686469E-1,-1.200621654E0,-3.805386658E0,4.010681969E0
4.829474375E0,4.160207142E-2,-4.758978653E-1,-3.634888866E0,3.666146012E0
4.839542375E0,-1.773144758E-1,7.263703644E-2,-3.407429546E0,3.412813015E0
4.849609375E0,-6.934243192E-2,3.240591234E-1,-3.230172665E0,3.247127675E0
4.859677375E0,4.521242559E-2,4.875309008E-1,-2.962739732E0,3.002924785E0
4.869744375E0,7.782461308E-4,9.305054337E-1,-2.505730712E0,2.672924872E0
4.879812375E0,9.591712257E-2,1.472247625E0,-1.477467288E0,2.087970965E0
4.889879375E0,1.563215098E-1,1.980933167E0,-5.850490093E-2,1.987952578E0
4.899947375E0,3.665002611E-1,2.444892188E0,2.096680848E0,3.241587702E0
4.910014458E0,2.739230499E-1,2.047809527E0,4.764993099E0,5.193622717E0
4.920082458E0,5.732735941E-1,-7.492505193E-2,1.022528797E1,1.024161952E1
4.930149458E0,1.111994529E0,-9.260498554E-1,6.762681463E0,6.915776221E0
4.940217458E0,9.550319452E-2,1.200959623E-2,6.193098924E-1,6.267454294E-1
4.950285458E0,-8.149942732E-1,-3.120302314E-1,-1.711469204E0,1.921120862E0
4.960352458E0,-1.258126973E0,-1.064879127E0,-2.658495946E0,3.128010826E0
4.970420458E0,-1.497281309E0,-1.490882701E0,-2.845979022E0,3.544598587E0
4.980487458E0,-1.672722045E0,-1.424352497E0,-2.467108684E0,3.303544208E0
4.990555458E0,-1.243976419E0,-7.605806690E-1,-9.517977771E-1,1.741229248E0
5.000622458E0,-8.111845929E-1,1.648908967E-1,1.071247914E-1,8.346766874E-1
5.010690458E0,-1.399716277E0,5.736621416E-1,-2.647610477E-1,1.535705805E0
5.020757458E0,-1.819622813E0,5.342039609E-1,-7.421040523E-1,2.036447760E0
5.030825458E0,-1.870186026E0,1.447928470E-1,-3.156186676E-1,1.902150331E0
5.040892458E0,-1.854490052E0,-3.156917578E-1,2.755219710E-1,1.901238280E0
5.050960458E0,-2.079543536E0,-7.830322230E-1,1.813584101E-1,2.229468917E0
5.061028458E0,-2.223953975E0,-1.263574532E0,-4.415792410E-1,2.595685672E0
5.071095458E0,-1.974294093E0,-1.772344274E0,-1.318236350E0,2.962564508E0
5.081163458E0,-1.343403059E0,-2.154162194E0,-2.140200212E0,3.320482417E0
5.091230458E0,-4.943861765E-1,-2.338475786E0,-2.733830595E0,3.631351872E0
5.101298458E0,5.358036129E-1,-2.363231143E0,-2.828983212E0,3.724928585E0
5.111365458E0,1.467101490E0,-2.403815498E0,-2.295758222E0,3.633348530E0
5.121433458E0,1.610570528E0,-2.629027441E0,-1.309106215E0,3.349549491E0
5.131500458E0,6.116513555E-1,-2.950436021E0,-4.718479376E-1,3.049890256E0
5.141568458E0,-3.319880209E-1,-3.153004621E0,-1.244215862E-1,3.172874867E0
5.151635458E0,-6.163797064E-1,-3.153180038E0,-2.557206675E-2,3.212961597E0
5.161703458E0,-6.373697488E-1,-2.850318825E0,-3.619294927E-2,2.920936071E0
5.171771458E0,-4.877136263E-1,-2.367261629E0,-2.264825428E-1,2.427568031E0
5.181838458E0,-5.644051952E-1,-1.896736770E0,-6.169797769E-1,2.072879072E0
5.191906458E0,-1.017753273E0,-1.313913211E0,-1.013087268E0,1.946416057E0
5.201973458E0,-1.627185099E0,-6.589279944E-1,-1.261154077E0,2.161579759E0
5.212041458E0,-2.114859841E0,-9.322742164E-2,-1.069316287E0,2.371657821E0
5.222108458E0,-2.336755389E0,3.798994482E-1,-6.667277415E-1,2.459527439E0
5.232176458E0,-2.441039019E0,8.618830955E-1,-2.763486211E-1,2.603436675E0
5.242243458E0,-2.510125480E0,1.558242626E0,7.972342327E-2,2.955538162E0
5.252311458E0,-2.572692149E0,2.237925897E0,1.734379180E-1,3.414255105E0
5.262378458E0,-2.556527814E0,2.776221739E0,-1.755660121E-1,3.778103364E0
5.272446458E0,-2.154689028E0,3.208184795E0,-7.907423615E-1,3.944668297E0
5.282514458E0,-1.626061556E0,3.893810592E0,-1.581199233E0,4.506221047E0
5.292581458E0,-1.168766535E0,4.552690639E0,-2.124195359E0,5.158024156E0
5.302649458E0,-4.074766713E-1,4.975211027E0,-2.137891731E0,5.430409105E0
5.312716458E0,2.385725747E-1,5.452369552E0,-1.696668001E0,5.715236907E0
5.322784458E0,5.521356171E-1,5.203213845E0,-1.119911221E0,5.350933489E0
5.332851458E0,7.357364345E-1,4.054345313E0,-6.574970345E-1,4.172688146E0
5.342919458E0,6.166096482E-1,2.651515247E0,-3.999961822E-1,2.751497322E0
5.352986458E0,1.189121935E-1,1.213721171E0,-1.847237751E-2,1.219672259E0
5.363054458E0,-5.686572173E-1,-4.844599432E-1,4.722329767E-1,8.837852973E-1
5.373122458E0,-1.061836821E0,-2.546755947E0,1.412974985E0,3.099993806E0
5.383189458E0,-1.050757809E0,-4.953651758E0,2.375289125E0,5.593277764E0
5.393257458E0,-4.945039979E-1,-7.330142047E0,2.869132826E0,7.887169316E0
5.403324458E0,7.955516964E-2,-8.640787250E0,2.713124435E0,9.057073342E0
5.413392458E0,6.194318068E-1,-8.600138576E0,2.352457941E0,8.937568889E0
5.423459458E0,1.309536278E0,-6.982046190E0,1.588526233E0,7.279235527E0
5.433527458E0,1.857893717E0,-4.392105047E0,5.098675570E-1,4.796073470E0
5.443594458E0,2.151310506E0,-1.765808256E0,-5.668837568E-1,2.840347318E0
5.453662458E0,2.236684533E0,4.905188280E-1,-9.098135993E-1,2.463965748E0
5.463729458E0,2.046354155E0,2.351139686E0,-4.675898489E-1,3.151834929E0
5.473797458E0,1.268750195E0,3.576616684E0,1.593728793E-1,3.798330380E0
5.483865458E0,2.237488233E-1,4.104324389E0,1.373132934E0,4.333709298E0
5.493932458E0,-1.324503542E0,4.391868235E0,2.341686200E0,5.150369937E0
5.504000458E0,-3.166086012E0,3.907672001E0,3.436905945E0,6.091496005E0
5.514067458E0,-3.807676720E0,3.081860379E0,3.140002168E0,5.818580498E0
5.524135458E0,-2.694289384E0,2.484028187E0,1.966444059E0,4.158905331E0
5.534202458E0,-8.754305094E-1,2.129095180E0,1.168380107E0,2.581576444E0
5.544270458E0,8.681532110E-1,1.852363420E0,8.937776104E-1,2.232437828E0
5.554337458E0,2.204618256E0,1.536210902E0,7.782132402E-1,2.797481266E0
5.564405458E0,2.999249162E0,1.227503643E0,6.358124891E-1,3.302501817E0
5.574472458E0,3.400161749E0,1.125245782E0,6.884093633E-1,3.647079029E0
5.584540458E0,3.494394307E0,1.101656944E0,9.573619875E-1,3.786948847E0
5.594608458E0,3.491090046E0,1.132082931E0,1.298574210E0,3.893021506E0
5.604675458E0,3.480373853E0,1.354477685E0,1.659938277E0,4.086931250E0
5.614743458E0,3.151415348E0,1.674690510E0,1.791390117E0,3.993129794E0
5.624810458E0,2.526932132E0,2.177589648E0,1.540375581E0,3.674240003E0
5.634878458E0,1.838633281E0,2.655048720E0,1.151933059E0,3.428819887E0
5.644945458E0,1.209027026E0,2.962956079E0,6.568387842E-1,3.266847451E0
5.655013458E0,6.023173720E-1,3.038517893E0,2.347660008E-1,3.106524147E0
5.665080458E0,-1.849094242E-2,2.941268172E0,-6.120163679E-2,2.941962952E0
5.675148458E0,-6.776703671E-1,2.715672067E0,-3.384789419E-1,2.819340330E0
5.685215458E0,-1.562944372E0,2.518089972E0,-1.019641851E0,3.134205118E0
5.695283458E0,-2.968291079E0,2.612225466E0,-2.388912992E0,4.619673051E0
5.705351458E0,-4.138265429E0,2.578370088E0,-3.860472984E0,6.219042107E0
5.715418458E0,-4.440300722E0,2.073878168E0,-3.689321474E0,6.134193842E0
5.725486458E0,-4.631667811E0,1.344440939E0,-1.219445888E0,4.974627265E0
5.735553458E0,-4.990117334E0,8.770127660E-1,9.431544229E-1,5.153635868E0
5.745621458E0,-4.675750262E0,4.388171625E-1,2.012733834E0,5.109432308E0
5.755688458E0,-4.823080216E0,4.006161332E-2,1.815789671E0,5.153717089E0
5.765756458E0,-5.264873319E0,-5.670805156E-1,1.050702845E0,5.398559794E0
5.775823458E0,-5.181753979E0,-1.484857146E0,1.433120397E-1,5.392208581E0
5.785891458E0,-4.469414009E0,-2.538106161E0,-9.075252914E-1,5.219314765E0
5.795958458E0,-3.164155846E0,-3.679865064E0,-1.470800147E0,5.071148014E0
5.806026458E0,-2.236623137E0,-4.944851114E0,-1.359802744E0,5.594917255E0
5.816094458E0,-1.877971009E0,-6.396065719E0,-1.130646855E0,6.761271634E0
5.826161458E0,-1.436834840E0,-8.161363513E0,-7.357115838E-1,8.319472357E0
5.836229458E0,-6.875498226E-1,-9.844394492E0,-2.366564056E-1,9.871212384E0
5.846296458E0,2.472256865E-1,-1.028793270E1,-4.842254698E-2,1.029101669E1
5.856364458E0,1.237703818E0,-8.440859837E0,4.003889689E-1,8.540511510E0
5.866431458E0,2.165570111E0,-4.641409273E0,1.227902423E0,5.266888864E0
5.876499458E0,3.041769530E0,-1.384762169E0,1.845181285E0,3.817672342E0
5.886566458E0,4.022749298E0,8.466493446E-1,2.005107019E0,4.573814730E0
5.896634458E0,4.919456071E0,2.406261388E0,2.087274870E0,5.860704590E0
5.906701333E0,5.822348614E0,3.354901961E0,2.443532710E0,7.150242140E0
5.916769333E0,6.710127273E0,3.506983362E0,2.733410765E0,8.049613328E0
5.926837333E0,6.272844420E0,2.543948114E0,2.091089886E0,7.084695197E0
5.936904333E0,5.165068365E0,1.441448586E0,1.634660764E0,5.606052181E0
5.946972333E0,4.085888118E0,6.981791836E-1,1.531802101E0,4.419089675E0
5.957039333E0,3.196943523E0,5.210529882E-1,1.328469855E0,3.500967904E0
5.967107333E0,2.370153954E0,6.882552892E-1,1.147656551E0,2.721845086E0
5.977174333E0,1.624708511E0,9.482470554E-1,1.010859772E0,2.135576667E0
5.987242333E0,1.027000864E0,1.097548690E0,8.798469114E-1,1.741687254E0
5.997309333E0,5.607532436E-1,1.091319652E0,5.143234277E-1,1.330395193E0
6.007377333E0,3.431040895E-1,1.000284351E0,-3.333743227E-1,1.108795580E0
6.017444333E0,3.339675227E-1,6.952707785E-1,-1.198166920E0,1.424970080E0
6.027512333E0,2.639468046E-1,3.510364223E-1,-2.367496687E0,2.407890166E0
6.037580333E0,2.123889989E-1,5.074213743E-2,-4.055434649E0,4.061309400E0
6.047647333E0,1.724823368E-1,-1.531344849E-1,-4.638497944E0,4.644229054E0
6.057715333E0,1.497311130E-1,-2.357421935E-1,-4.068210815E0,4.077785309E0
6.067782333E0,4.366221178E-1,-3.781008446E-1,-2.671024482E0,2.732758845E0
6.077850333E0,7.496314654E-1,-4.161235338E-1,-1.634432430E0,1.845663972E0
6.087917333E0,9.494746783E-1,-3.826189882E-1,-8.937083939E-1,1.358901817E0
6.097985333E0,8.336509842E-1,-2.673849857E-1,4.691805840E-3,8.754945500E-1
6.108052333E0,5.247624983E-1,3.971054649E-1,5.271684448E-1,8.431933344E-1
6.118120333E0,3.266669816E-1,1.191353817E0,6.645407367E-1,1.402729348E0
6.128188333E0,1.048542811E-1,1.852390317E0,3.517569454E-1,1.888406009E0
6.138255333E0,-6.941489171E-2,2.235206941E0,-1.116398652E-1,2.239069440E0
6.148323333E0,-4.273370682E-1,2.314564767E0,-2.187290617E-1,2.363825170E0
6.158390333E0,-7.736094350E-1,1.909457973E0,2.048922837E-1,2.070382128E0
6.168458333E0,-1.327058629E0,1.083037071E0,1.176244685E0,2.077884852E0
6.178525333E0,-1.857676493E0,1.936083269E-1,1.551186790E0,2.427885210E0
6.188593333E0,-1.704949120E0,-6.957134128E-2,1.496553039E0,2.269661356E0
6.198660333E0,-1.054819358E0,1.617176127E-1,1.338746921E0,1.712027974E0
6.208728333E0,-3.955468896E-1,2.486189318E-1,8.470358455E-1,9.673357425E-1
6.218795333E0,8.008178450E-2,1.639436477E-1,3.676821296E-1,4.104640791E-1
6.228863333E0,3.578466743E-1,9.013599873E-2,-1.506769001E-1,3.986003874E-1
6.238931333E0,5.063632476E-1,5.472643018E-2,-8.111864202E-1,9.578215538E-1
6.248998333E0,5.984306547E-1,1.402542382E-1,-1.501228180E0,1.622182649E0
6.259066333E0,5.135125650E-1,4.276700306E-1,-1.992231888E0,2.101329271E0
6.269133333E0,1.349421890E-1,7.279502821E-1,-2.285345792E0,2.402275254E0
6.279201333E0,-5.100264551E-1,7.570787716E-1,-2.009063683E0,2.206724300E0
6.289268333E0,-1.229837705E0,6.864408982E-1,-1.219500120E0,1.863030443E0
6.299336333E0,-1.675418927E0,8.529567361E-1,-3.934754404E-1,1.920777628E0
6.309403333E0,-1.791612604E0,1.168913373E0,6.192808025E-2,2.140109642E0
6.319471333E0,-1.973782461E0,1.509482110E0,9.334641248E-3,2.484842164E0
6.329538333E0,-2.520102584E0,1.667885520E0,-6.146802863E-1,3.083924609E0
6.339606333E0,-3.099263447E0,1.842201544E0,-1.589033332E0,3.940072001E0
6.349674333E0,-3.309509441E0,2.096075369E0,-2.625002217E0,4.715614629E0
6.359741333E0,-3.049319747E0,2.382042806E0,-3.330062989E0,5.105075744E0
6.369809333E0,-2.407804614E0,2.371448236E0,-3.366514531E0,4.770189712E0
6.379876333E0,-1.384808508E0,1.739644890E0,-2.960183330E0,3.702262051E0
6.389944333E0,-1.410048746E-1,9.436815494E-1,-2.756094453E0,2.916585997E0
6.400011333E0,7.624633263E-1,1.154965425E-1,-2.975121796E0,3.073440983E0
6.410079333E0,6.695499001E-1,-7.396534842E-1,-3.423519037E0,3.565931427E0
6.420146333E0,-3.177616721E-1,-1.431663855E0,-3.772672656E0,4.047677463E0
6.430214333E0,-1.316556591E0,-1.899332934E0,-4.009339879E0,4.627698468E0
6.440281333E0,-2.231617189E0,-2.081692387E0,-4.090515604E0,5.103516080E0
6.450349333E0,-3.101928315E0,-2.124619721E0,-4.013568585E0,5.499518253E0
6.460417333E0,-3.875352394E0,-2.027392804E0,-3.699411721E0,5.728378902E0
6.470484333E0,-4.411520727E0,-1.920228544E0,-2.932591488E0,5.634614949E0
6.480552333E0,-4.521923175E0,-1.643716639E0,-1.828951753E0,5.147296194E0
6.490619333E0,-4.005473700E0,-1.170797346E0,-6.329401175E-1,4.220805513E0
6.500687333E0,-2.997331275E0,-6.408314466E-1,5.114722522E-1,3.107452909E0
6.510754333E0,-2.014850819E0,-1.617006558E-1,1.420871065E0,2.470758083E0
6.520822333E0,-1.075069070E0,2.278426051E-1,1.916689224E0,2.209385286E0
6.530889333E0,-3.406155876E-1,4.489269984E-1,1.839379678E0,1.923765066E0
6.540957333E0,6.035185729E-1,5.463831264E-1,1.250121843E0,1.491835718E0
6.551024333E0,1.734993430E0,5.512246209E-1,6.222933611E-1,1.923876246E0
6.561092333E0,2.869379286E0,3.672226846E-1,-5.389963388E-3,2.892787417E0
6.571160333E0,4.337629755E0,-2.758564317E-1,-1.271535662E0,4.528568383E0
6.581227333E0,5.939191770E0,-1.312252017E0,-2.100425258E0,6.434888539E0
6.591295333E0,6.617971061E0,-3.247480423E0,-1.587437189E0,7.540797498E0
6.601362333E0,7.382818444E0,-5.066354501E0,-1.293978445E0,9.047007036E0
6.611430333E0,6.795987788E0,-5.886447546E0,-9.277775614E-1,9.038610841E0
6.621497333E0,5.362560997E0,-6.083622090E0,-4.734129448E-1,8.123523742E0
6.631565333E0,2.908782796E0,-5.678708253E0,9.084456432E-1,6.444689152E0
6.641632333E0,-4.957632688E-1,-5.440019063E0,3.888312747E0,6.705114812E0
6.651700333E0,-3.235188407E0,-4.489962294E0,5.830918293E0,8.039018197E0
6.661767333E0,-3.761845659E0,-2.955433052E0,7.173553612E0,8.622409101E0
6.671835333E0,-3.639944661E0,-1.225059507E0,7.636877625E0,8.548208455E0
6.681903333E0,-3.349798511E0,3.554230034E-1,7.140948368E0,7.895607588E0
6.691970333E0,-2.546903004E0,1.401603320E0,6.445831372E0,7.071064195E0
6.702038333E0,-1.365315207E0,2.128567761E0,5.346855376E0,5.914706141E0
6.712105333E0,-7.321576461E-2,2.835648746E0,3.584605735E0,4.571177379E0
6.722173333E0,4.923037637E-1,3.433839957E0,1.595885538E0,3.818438228E0
6.732240333E0,7.528676069E-1,3.413665309E0,1.483403528E-1,3.498846286E0
6.742308333E0,1.130395571E0,3.247575148E0,-1.605979002E0,3.795221607E0
6.752375333E0,2.041847998E0,2.915856172E0,-2.579887440E0,4.396268835E0
6.762443333E0,3.226005355E0,2.290654333E0,-2.731475629E0,4.807823513E0
6.772511333E0,4.575381929E0,1.869018629E0,-2.706434928E0,5.634903766E0
6.782578333E0,5.487593179E0,1.624895037E0,-1.844278475E0,6.012929891E0
6.792646333E0,5.859652680E0,1.334491902E0,-1.983021793E-1,6.012962824E0
6.802713333E0,5.826840445E0,9.546959496E-1,1.589528445E0,6.114745670E0
6.812781333E0,5.154896548E0,8.638079989E-1,2.850911733E0,5.953723238E0
6.822848333E0,4.387484577E0,1.206175339E0,3.056249282E0,5.481381171E0
6.832916333E0,3.677523839E0,1.632777084E0,2.985719290E0,5.010455295E0
6.842983333E0,2.865455805E0,1.996049974E0,2.830625403E0,4.495274479E0
6.853051333E0,1.902504025E0,2.212030333E0,2.229327566E0,3.671852551E0
6.863118333E0,5.293040673E-1,2.216896386E0,9.414827040E-1,2.466005284E0
6.873186333E0,-1.460791468E0,2.307922915E0,-9.677881578E-1,2.897763588E0
6.883254333E0,-3.751948077E0,2.160416375E0,-2.655163617E0,5.078819461E0
6.893321333E0,-5.973072292E0,1.341250114E0,-2.659281811E0,6.674453103E0
6.903389333E0,-7.012501997E0,-2.512373149E-2,-1.032170095E0,7.088102043E0
6.913456833E0,-6.445660048E0,-1.332835386E0,-2.796138525E-2,6.582079114E0
6.923524833E0,-5.605694656E0,-2.248870715E0,5.316823491E-1,6.063325670E0
6.933591833E0,-5.043681922E0,-3.113935280E0,4.743474761E-1,5.946454893E0
6.943659833E0,-3.900098395E0,-3.869159315E0,-7.613728206E-1,5.546246467E0
6.953726833E0,-2.834327275E0,-4.507726135E0,-1.947257298E0,5.669639936E0
6.963794833E0,-2.670059984E0,-4.706694020E0,-2.580501690E0,5.995096153E0
6.973861833E0,-2.686760509E0,-4.315343385E0,-3.455207437E0,6.146489160E0
6.983929833E0,-2.333042846E0,-3.523974786E0,-3.581751709E0,5.539894631E0
6.993997833E0,-1.448816662E0,-2.939648493E0,-2.792647445E0,4.305749962E0
7.004064833E0,-1.064784329E0,-3.202962062E0,-1.508760417E0,3.697173195E0
7.014132833E0,-1.458649340E0,-3.937537240E0,-3.451842365E-1,4.213194699E0
7.024199833E0,-1.650437429E0,-4.777814873E0,3.927902198E-1,5.070083119E0
7.034267833E0,-1.472268675E0,-5.498819833E0,9.968377098E-1,5.779124503E0
7.044334833E0,-5.987624842E-1,-5.264527749E0,1.946980140E0,5.644864976E0
7.054402833E0,1.539079838E0,-3.670284986E0,3.728298136E0,5.453436129E0
7.064469833E0,4.167719608E0,-1.974532805E0,5.082018607E0,6.862621922E0
7.074537833E0,4.929649522E0,-8.666438985E-1,4.616781677E0,6.809345719E0
7.084604833E0,5.082230861E0,2.333676392E-1,4.139847978E0,6.559106056E0
7.094672833E0,5.310313786E0,1.285861194E0,3.839847808E0,6.678121196E0
7.104740833E0,5.461242117E0,2.160810478E0,3.370848488E0,6.771771327E0
7.114807833E0,5.379425536E0,2.679374306E0,2.792527285E0,6.626875162E0
7.124875833E0,5.003698661E0,2.663639449E0,2.204575425E0,6.082115439E0
7.134942833E0,4.217924679E0,2.448137977E0,1.578716651E0,5.126072026E0
7.145010833E0,3.277007401E0,2.191265116E0,3.159005034E-1,3.954770972E0
7.155077833E0,2.025952342E0,2.024734075E0,-1.518917177E0,3.242088888E0
7.165145833E0,6.438545302E-1,1.651117460E0,-3.501646024E0,3.924571620E0
7.175212833E0,6.208228594E-1,6.519353092E-1,-4.203356341E0,4.298679472E0
7.185280833E0,6.836090916E-1,-3.059122896E-1,-4.468888929E0,4.531210873E0
7.195347833E0,1.033246275E0,-9.171498084E-1,-3.570057278E0,3.828063558E0
7.205415833E0,1.588446418E0,-1.528378556E0,-2.318513392E0,3.199157293E0
7.215483833E0,1.716044066E0,-1.881066817E0,-1.176822244E0,2.805018752E0
7.225550833E0,1.187868584E0,-1.252582936E0,-1.955284794E-1,1.737304570E0
7.235618833E0,8.871784428E-1,-2.007740897E-1,4.335500637E-1,1.007651469E0
7.245685833E0,8.602078682E-1,7.485102618E-1,7.257235162E-1,1.351628577E0
7.255753833E0,9.110742590E-1,1.504431869E0,4.594906513E-1,1.817829259E0
7.265820833E0,5.927848756E-1,1.979676601E0,4.382299559E-1,2.112476946E0
7.275888833E0,1.619392222E-1,2.174235685E0,4.087813313E-1,2.218248702E0
7.285955833E0,-2.177818859E-1,2.074923651E0,2.276848765E-1,2.098708534E0
7.296023833E0,-1.056195135E0,2.006370894E0,5.265208657E-1,2.327723469E0
7.306090833E0,-1.839391665E0,1.782083396E0,9.040191548E-1,2.715959050E0
7.316158833E0,-2.297459323E0,1.712609704E0,7.928882897E-1,2.973217647E0
7.326226833E0,-2.424966046E0,1.618663074E0,5.064378726E-1,2.959224526E0
7.336293833E0,-2.113504457E0,1.309097444E0,3.694411182E-1,2.513388937E0
7.346361833E0,-1.775832723E0,7.703981441E-1,5.262121327E-1,2.005989623E0
7.356428833E0,-1.529232542E0,2.551958799E-1,5.434940171E-1,1.642882483E0
7.366496833E0,-1.275635291E0,-1.699773896E-1,3.497840948E-1,1.333599123E0
7.376563833E0,-1.204372716E0,-6.300918657E-1,-6.819709942E-2,1.360948288E0
7.386631833E0,-1.120360214E0,-8.568843108E-1,-5.715616755E-1,1.521887144E0
7.396698833E0,-9.153291316E-1,-6.972056222E-1,-1.160165792E0,1.633985240E0
7.406766833E0,-7.867744410E-1,-2.941465223E-1,-1.531805609E0,1.746987299E0
7.416834833E0,-6.670896111E-1,2.804441571E-1,-1.706657238E0,1.853735796E0
7.426901833E0,-8.027738848E-1,9.536492980E-1,-1.946720524E0,2.311625768E0
7.436969833E0,-1.127200067E0,1.618705174E0,-2.305174724E0,3.033911162E0
7.447036833E0,-1.659086046E0,2.166831940E0,-2.618757391E0,3.782276753E0
7.457104833E0,-2.103989136E0,2.826619475E0,-2.950813751E0,4.596068944E0
7.467171833E0,-2.415295044E0,3.398711640E0,-3.066137216E0,5.175527836E0
7.477239833E0,-2.290995664E0,3.536100157E0,-2.956480873E0,5.147178315E0
7.487306833E0,-1.586774553E0,3.226039853E0,-3.067015468E0,4.725650272E0
7.497374833E0,-1.007877984E0,2.799081429E0,-3.360042833E0,4.487823828E0
7.507441833E0,-1.464184168E0,1.985203974E0,-3.417858932E0,4.215048016E0
7.517509833E0,-2.512440977E0,7.832228422E-1,-3.223948889E0,4.161687653E0
7.527577833E0,-3.341088206E0,-3.296806365E-1,-3.011498494E0,4.510064623E0
7.537644833E0,-3.695613955E0,-1.211292822E0,-3.000874103E0,4.912233523E0
7.547712833E0,-3.688089465E0,-1.901904539E0,-3.069695832E0,5.161615762E0
7.557779833E0,-3.492632541E0,-2.436938805E0,-2.929598883E0,5.169110409E0
7.567847833E0,-3.141073085E0,-2.707635654E0,-2.368663791E0,4.775793035E0
7.577914833E0,-2.631765984E0,-2.721560798E0,-1.487124550E0,4.067508426E0
7.587982833E0,-2.023154450E0,-2.467828476E0,-5.300875211E-1,3.234860753E0
7.598049833E0,-1.280264239E0,-1.999153091E0,2.738904516E-1,2.389708263E0
7.608117833E0,-2.384178428E-1,-1.546354067E0,6.345291714E-1,1.688396055E0
7.618184833E0,6.389293474E-1,-9.595953315E-1,3.863711464E-1,1.215868650E0
7.628252833E0,1.465240322E0,-4.568131381E-1,-2.600080653E-1,1.556666836E0
7.638320833E0,2.092141654E0,1.600020397E-1,-1.579555142E0,2.626338097E0
7.648387833E0,1.842527526E0,7.292471945E-1,-2.646290760E0,3.305989102E0
7.658455833E0,1.641129831E0,9.312509537E-2,-3.325010995E0,3.709134336E0
7.668522833E0,2.337597096E0,-2.160660789E0,-3.092983830E0,4.438396580E0
7.678590833E0,3.523645003E0,-4.456003420E0,-2.564117500E0,6.232715230E0
7.688657833E0,4.506905186E0,-6.327542784E0,-1.442062544E0,7.901236385E0
7.698725833E0,4.988096536E0,-7.840222735E0,-2.628264964E-1,9.296196930E0
7.708792833E0,4.995436546E0,-9.166373584E0,1.362992985E0,1.052779848E1
7.718860833E0,3.694442173E0,-9.262583671E0,4.966627314E0,1.114054514E1
7.728927833E0,1.543091320E0,-7.632765863E0,7.398436357E0,1.074137357E1
7.738995833E0,3.666369398E-1,-5.134357619E0,8.466503971E0,9.908468110E0
7.749063833E0,-9.384807435E-1,-2.451890135E0,8.285298758E0,8.691299491E0
7.759130833E0,-1.740359420E0,-4.139343363E-1,8.010650361E0,8.207966359E0
7.769198833E0,-1.453938239E0,1.123144877E0,7.587640561E0,7.806899519E0
7.779265833E0,-1.071960836E0,2.187631656E0,5.854996542E0,6.341594185E0
7.789333833E0,-1.064974144E0,2.721991153E0,3.447662190E0,4.519931453E0
7.799400833E0,-1.449453717E0,2.718664087E0,4.233264264E-1,3.109864267E0
7.809468833E0,-1.839333485E0,2.384755329E0,-2.480697613E0,3.901802954E0
7.819535833E0,-1.916409435E0,1.776519771E0,-4.802417910E0,5.467345371E0
7.829603833E0,-1.109391641E0,9.825064766E-1,-5.529061632E0,5.724210978E0
7.839671833E0,6.048125982E-1,4.276805556E-1,-4.751926034E0,4.809314917E0
7.849738833E0,2.832610825E0,4.400152570E-1,-1.974444804E0,3.480765691E0
7.859806833E0,4.509508074E0,4.730923712E-1,2.440043676E0,5.149106001E0
7.869873833E0,4.871215957E0,-2.105073649E-1,4.848151031E0,6.875872793E0
7.879941833E0,4.309641180E0,-6.194353151E-1,4.880990748E0,6.540701636E0
7.890008833E0,3.219405017E0,-4.747518110E-1,3.772618276E0,4.982229080E0
7.900076833E0,2.315525757E0,-1.847983271E-1,2.229362649E0,3.219606774E0
7.910143208E0,1.262178509E0,3.357599866E-1,1.166310777E0,1.751031178E0
7.920211208E0,2.111865190E-1,9.113867927E-1,5.777405745E-1,1.099549818E0
7.930278208E0,-2.671432033E-1,1.310055803E0,2.354191348E-1,1.357583834E0
7.940346208E0,-1.006738508E-1,1.738373120E0,4.920575228E-1,1.809474215E0
7.950414208E0,9.192495435E-2,2.355754309E0,4.585740271E-1,2.401732437E0
7.960481208E0,1.162672055E-1,2.721043319E0,6.253304780E-2,2.724243967E0
7.970549208E0,4.274723947E-2,2.609457979E0,-1.719309443E-1,2.615465259E0
7.980616208E0,1.644391993E-1,2.298174437E0,-1.047207087E-1,2.306428499E0
7.990684208E0,2.829175293E-1,1.779482555E0,1.196159059E-1,1.805798565E0
8.000751208E0,1.427986541E-1,1.224415144E0,5.753671896E-1,1.360379103E0
8.010819208E0,-5.144389102E-1,5.561321890E-1,1.072293981E0,1.312914615E0
8.020886208E0,-1.463921190E0,-3.473316264E-1,1.552527557E0,2.161954284E0
8.030954208E0,-1.626484018E0,-1.458827680E0,1.768816941E0,2.811110427E0
8.041021208E0,-1.771054671E0,-2.024192038E0,1.018478255E0,2.875984355E0
8.051089208E0,-1.217706048E0,-2.112850446E0,3.834820372E-1,2.468603552E0
8.061157208E0,-1.781602755E-1,-1.708276917E0,2.647853136E-2,1.717746262E0
8.071224208E0,6.389366564E-1,-9.532727373E-1,2.602051896E-1,1.176722441E0
8.081292208E0,7.953859279E-1,-2.670943791E-1,4.555498472E-1,9.547271049E-1
8.091359208E0,7.006835461E-1,1.761169660E-1,2.645610729E-1,7.693940335E-1
8.101427208E0,5.883743209E-1,4.646682876E-1,1.300002685E-1,7.609211712E-1
8.111494208E0,4.293513975E-1,6.005341905E-1,1.215089419E-1,7.481633241E-1
8.121562208E0,2.384485772E-1,5.720506489E-1,8.871658713E-2,6.260753164E-1
8.131629208E0,6.284704328E-2,4.093910497E-1,-4.642630756E-1,6.221663651E-1
8.141697208E0,8.385842800E-2,3.101714015E-2,-1.547381423E0,1.549962440E0
8.151764208E0,4.467069568E-1,-3.326252943E-1,-2.584437451E0,2.643766939E0
8.161832208E0,1.309050082E0,-3.887720132E-1,-2.945382565E0,3.246541891E0
8.171900208E0,1.896137431E0,1.891667819E-1,-2.391569674E0,3.057895802E0
8.181967208E0,1.453489465E0,4.430049384E-1,-1.263740300E0,1.976341202E0
8.192035208E0,2.894301581E-1,-3.431070131E-1,-1.102308324E-1,4.622153992E-1
8.202102208E0,-7.354594226E-1,-1.340049096E0,7.578614214E-1,1.706161210E0
8.212170208E0,-1.493422001E0,-2.206169084E0,1.415781941E0,3.016940470E0
8.222237208E0,-1.672190094E0,-3.156645682E0,1.854807849E0,4.025039606E0
8.232305208E0,-1.237277264E0,-3.771926551E0,2.053163238E0,4.469201742E0
8.242372208E0,-3.685630126E-1,-3.388001295E0,2.011705017E0,3.957442172E0
8.252440208E0,9.160582794E-1,-2.651280774E0,1.850101425E0,3.360257103E0
8.262508208E0,2.118422403E0,-2.416717964E0,1.993369903E0,3.781767148E0
8.272575208E0,3.042792792E0,-2.023692686E0,2.266075562E0,4.299885873E0
8.282643208E0,3.600479171E0,-1.235763420E0,1.970927704E0,4.286620756E0
8.292710208E0,3.637915969E0,-1.405916226E-1,1.263758719E0,3.853736460E0
8.302778208E0,3.383948297E0,9.435137343E-1,6.050768924E-1,3.564749962E0
8.312845208E0,3.206987870E0,1.797264522E0,6.430972427E-2,3.676828348E0
8.322913208E0,3.097547289E0,2.329557613E0,-5.316402492E-1,3.912068409E0
8.332980208E0,3.053133593E0,2.460382631E0,-1.341248360E0,4.144159094E0
8.343048208E0,3.077600975E0,2.294916369E0,-2.306444739E0,4.478610971E0
8.353115208E0,3.157230112E0,1.550954071E0,-2.498945603E0,4.314891614E0
8.363183208E0,2.851333025E0,4.527212566E-1,-1.893269956E0,3.452466898E0
8.373251208E0,2.189478791E0,-6.239721698E-1,-1.566724012E0,2.763653881E0
8.383318208E0,1.724639034E0,-1.682229910E0,-1.916131692E0,3.078284901E0
8.393386208E0,1.455079761E0,-2.478887315E0,-2.023812846E0,3.515388722E0
8.403453208E0,9.710997283E-1,-2.777351421E0,-1.652095699E0,3.374334868E0
8.413521208E0,3.386630561E-1,-2.657267153E0,-1.456304314E0,3.049029952E0
8.423588208E0,-3.614572569E-1,-2.095840310E0,-1.609612023E0,2.667217430E0
8.433656208E0,-1.119769206E0,-1.198529520E0,-1.877451776E0,2.493026525E0
8.443723208E0,-1.838237424E0,-2.627481437E-1,-2.111923077E0,2.812182871E0
8.453791208E0,-2.289565289E0,3.759514081E-1,-1.868191102E0,2.978856604E0
8.463858208E0,-2.464416625E0,5.503153789E-1,-1.167830176E0,2.782089797E0
8.473926208E0,-2.565740687E0,5.292104387E-1,-4.984356657E-1,2.666744658E0
8.483994208E0,-2.791073667E0,4.965169019E-1,5.435805559E-2,2.835414616E0
8.494061208E0,-2.837133062E0,3.362967610E-1,2.763858971E-1,2.870332504E0
8.504129208E0,-2.692598369E0,1.053112775E-1,1.953475812E-1,2.701728543E0
8.514196208E0,-2.384815263E0,1.737786645E-1,2.322332793E-1,2.402389468E0
8.524264208E0,-1.792300529E0,5.156554234E-1,4.130253866E-1,1.910191527E0
8.534331208E0,-9.447793642E-1,6.435574186E-1,5.390337610E-1,1.263855844E0
8.544399208E0,2.038856855E-1,4.029889333E-1,6.193473145E-1,7.665249827E-1
8.554466208E0,1.409718670E0,-1.660229176E-1,7.957312059E-1,1.627285620E0
8.564534208E0,2.313423683E0,-6.795762670E-1,7.959323502E-1,2.539145791E0
8.574601208E0,2.531509624E0,-1.027172772E0,7.753267622E-1,2.839851487E0
8.584669208E0,2.123790878E0,-1.271636088E0,3.759864914E-1,2.503779518E0
8.594737208E0,1.357458303E0,-1.466309777E0,-3.803640094E-1,2.034068383E0
8.604804208E0,5.134171093E-1,-1.593160443E0,-1.209391308E0,2.065038659E0
8.614872208E0,-3.722063031E-1,-1.526466517E0,-1.671116546E0,2.293745424E0
8.624939208E0,-1.119214086E0,-1.195728704E0,-1.885240560E0,2.497306403E0
8.635007208E0,-1.757957785E0,-5.661695194E-1,-1.717933009E0,2.522351546E0
8.645074208E0,-2.142746967E0,3.740826380E-1,-1.425508199E0,2.600649152E0
8.655142208E0,-2.280389254E0,1.636390663E0,-1.121550780E0,3.022552845E0
8.665209208E0,-2.109530689E0,2.838368871E0,-8.570122187E-1,3.638808530E0
8.675277208E0,-1.780296049E0,3.582536405E0,-1.073607120E0,4.142059073E0
8.685345208E0,-1.727435465E0,3.861036948E0,-1.492493755E0,4.485440581E0
8.695412208E0,-1.675856737E0,3.779993370E0,-2.229635568E0,4.697671811E0
8.705480208E0,-1.818614315E0,3.409437772E0,-3.068136964E0,4.934074217E0
8.715547208E0,-1.832413597E0,2.965903076E0,-4.393646958E0,5.608783668E0
8.725615208E0,-1.495561351E0,2.264009741E0,-5.514075218E0,6.145524337E0
8.735682208E0,-1.063571397E0,1.209362072E0,-6.033353577E0,6.244605361E0
8.745750208E0,-5.717262746E-1,-8.048458457E-2,-5.872407796E0,5.900722162E0
8.755817208E0,-8.240807001E-1,-1.206976408E0,-4.657442923E0,4.881360018E0
8.765885208E0,-1.577779489E0,-1.969202483E0,-3.294417193E0,4.149738688E0
8.775952208E0,-1.990682669E0,-2.629205781E0,-2.099228772E0,3.909258492E0
8.786020208E0,-2.017257679E0,-3.049101353E0,-5.335571858E-1,3.694730149E0
8.796088208E0,-2.032141766E0,-3.020782118E0,7.993329446E-1,3.727419741E0
8.806155208E0,-1.851035371E0,-2.202333310E0,8.497581629E-1,2.999782141E0
8.816223208E0,-1.529850301E0,-6.666515815E-1,6.047377539E-1,1.774985641E0
8.826290208E0,-1.463949841E0,8.868261480E-1,6.913642538E-1,1.845967033E0
8.836358208E0,-1.759292704E0,2.095988830E0,9.638854337E-1,2.901267847E0
8.846425208E0,-2.077114164E0,2.984287891E0,1.152991551E0,3.814415681E0
8.856493208E0,-2.210224274E0,3.768374367E0,1.087957576E0,4.502153751E0
8.866560208E0,-2.215746823E0,4.512870516E0,6.825910914E-1,5.073604722E0
8.876628208E0,-1.858245865E0,5.236731255E0,2.640881793E-1,5.562928590E0
8.886695208E0,-1.242019941E0,5.660636848E0,-2.802921295E-2,5.795360963E0
8.896763208E0,-3.051656002E-1,5.722596284E0,-1.378071785E-2,5.730743772E0
8.906831583E0,8.563256094E-1,4.962520230E0,-2.607834792E-1,5.042609305E0
8.916898583E0,1.602645212E0,2.808849787E0,-1.178485046E0,3.441937798E0
8.926966583E0,1.786927230E0,1.482666779E-1,-2.108168141E0,2.767573819E0
8.937033583E0,2.389396849E0,-3.104261062E0,-3.385666502E0,5.177682078E0
8.947101583E0,2.671752461E0,-6.749357412E0,-3.828867906E0,8.206845687E0
8.957168583E0,2.805475944E0,-1.023249641E1,-3.517463912E0,1.117797971E1
8.967236583E0,2.430146679E0,-1.288653941E1,-2.989905896E0,1.345020625E1
8.977303583E0,1.452578469E0,-1.369126364E1,-1.730337146E0,1.387640987E1
8.987371583E0,2.006624079E-1,-1.136141132E1,1.000946694E0,1.140718313E1
8.997439583E0,-6.634306428E-1,-6.620055009E0,5.960262212E0,8.932524513E0
9.007506583E0,-7.040761006E-1,-3.462377293E0,9.956470413E0,1.056480396E1
9.017574583E0,-2.772188147E-1,-1.441653823E0,1.140331832E1,1.149742948E1
9.027641583E0,-6.879807624E-1,6.060171247E-1,1.062965567E1,1.066912152E1
9.037709583E0,-1.199872333E0,1.813891080E0,8.766980689E0,9.032709719E0
9.047776583E0,-1.430202928E0,2.470055096E0,6.375848386E0,6.985563344E0
9.057844583E0,-1.889899621E0,3.252330689E0,3.553833885E0,5.174853696E0
9.067911583E0,-1.821913460E0,3.640476465E0,5.445421305E-1,4.107184398E0
9.077979583E0,-1.047510631E0,3.337278453E0,-2.224454497E0,4.145226629E0
9.088046583E0,-8.574583612E-2,2.826727064E0,-4.606256104E0,5.405121048E0
9.098114583E0,9.771601481E-1,2.647913362E0,-6.123051034E0,6.742257863E0
9.108182583E0,2.646169723E0,2.356101633E0,-6.403690488E0,7.318516310E0
9.118249583E0,4.474471266E0,2.109783581E0,-5.719051702E0,7.561721513E0
9.128317583E0,5.400196601E0,2.110087636E0,-3.477784414E0,6.760885858E0
9.138384583E0,5.393102174E0,2.294632194E0,-4.092817068E-1,5.875236121E0
9.148452583E0,5.028544065E0,2.010665674E0,2.470831898E0,5.952650010E0
9.158519583E0,4.242880888E0,1.292182034E0,4.390917478E0,6.241148046E0
9.168587583E0,3.338899301E0,8.006136310E-1,5.135710080E0,6.177762439E0
9.178654583E0,2.552844653E0,7.988419247E-1,4.662993392E0,5.375748470E0
9.188722583E0,1.790075663E0,1.141891050E0,3.592172032E0,4.172767182E0
9.198789583E0,1.126056352E0,1.456084167E0,2.711291040E0,3.277084545E0
9.208857583E0,3.364104894E-1,1.719819320E0,1.958926002E0,2.628372423E0
9.218925583E0,-4.379548444E-1,1.825777885E0,1.147376031E0,2.200395666E0
9.228992583E0,-1.094174408E0,1.839050480E0,3.774713919E-1,2.172972378E0
9.239060583E0,-1.748301400E0,1.920227959E0,-1.990880451E-1,2.604509407E0
9.249127583E0,-2.483848385E0,2.063938487E0,-6.438334072E-1,3.293002632E0
9.259195583E0,-3.670993084E0,2.332970048E0,-9.075077498E-1,4.443254413E0
9.269262583E0,-5.013653546E0,2.372288480E0,-8.936109647E-1,5.618097104E0
9.279330583E0,-4.995369303E0,1.896863070E0,-1.786800930E-1,5.346375459E0
9.289397583E0,-5.239626212E0,1.529114136E0,-6.474285677E-1,5.496456734E0
9.299465583E0,-5.602776895E0,7.005642629E-1,-1.929360141E0,5.966936381E0
9.309532583E0,-6.183597783E0,-1.227749226E0,-3.256901457E0,7.095890135E0
9.319600583E0,-6.526512423E0,-3.535489708E0,-4.265377758E0,8.560870242E0
9.329668583E0,-6.522274361E0,-5.592182325E0,-4.826463708E0,9.854304537E0
9.339735583E0,-5.850892382E0,-7.128078647E0,-4.680575970E0,1.034167483E1
9.349803583E0,-4.771947777E0,-8.092295033E0,-3.613282527E0,1.006541281E1
9.359870583E0,-3.689684293E0,-8.785545598E0,-1.332208564E0,9.621557114E0
9.369938583E0,-2.046168944E0,-9.669955092E0,1.425766646E0,9.986373184E0
9.380005583E0,1.135880113E-2,-9.041674109E0,5.001383749E0,1.033275564E1
9.390073583E0,1.191381591E0,-5.963008064E0,7.821091815E0,9.906883085E0
9.400140583E0,8.589415075E-1,-1.884688582E0,7.965967108E0,8.230823989E0
9.410208583E0,3.945750093E-1,1.577064228E0,6.176648367E0,6.387002902E0
9.420275583E0,6.761829816E-1,3.413830200E0,3.813156730E0,5.162521120E0
9.430343583E0,1.213525289E0,3.813632401E0,2.028565171E0,4.486815393E0
9.440411583E0,1.865909226E0,3.644625065E0,3.657196578E-1,4.110797972E0
9.450478583E0,2.742647611E0,3.469904999E0,-6.484518304E-1,4.470217712E0
9.460546583E0,3.928966683E0,3.396882631E0,-1.535462458E0,5.416016596E0
9.470613583E0,5.319788030E0,3.079812099E0,-2.531664283E0,6.647910295E0
9.480681583E0,6.399592175E0,2.408483915E0,-3.473398125E0,7.669424314E0
9.490748583E0,6.024368745E0,1.470816227E0,-3.961384524E0,7.358592698E0
9.500816583E0,4.052858366E0,2.887875491E-1,-3.759171435E0,5.535379757E0
9.510883583E0,4.233951020E0,-1.166504320E0,-3.901847005E0,5.874647531E0
9.520951583E0,7.602906471E0,-2.651762000E0,-3.457299571E0,8.762930380E0
9.531018583E0,9.654990313E0,-3.812186970E0,-1.891445625E0,1.055126409E1
9.541086583E0,8.982310252E0,-5.039354398E0,-3.237615001E-1,1.030445592E1
9.551154583E0,6.426225657E0,-5.282690370E0,1.237029927E0,8.410317282E0
9.561221583E0,3.622860266E0,-4.709770825E0,2.444129126E0,6.425015558E0
9.571289583E0,1.339513491E0,-3.947555274E0,3.221453297E0,5.268325197E0
9.581356583E0,-2.392779317E-1,-2.940575277E0,3.389486488E0,4.493646129E0
9.591424583E0,-1.061238943E0,-1.636941471E0,2.908138725E0,3.501867547E0
9.601491583E0,-1.379172816E0,-1.339684814E-1,2.246347057E0,2.639344674E0
9.611559583E0,-1.673226075E0,9.683825272E-1,1.488949027E0,2.440167909E0
9.621626583E0,-1.683929988E0,1.656074145E0,6.120504279E-1,2.439837598E0
9.631694583E0,-1.447563896E0,1.996350521E0,1.080697015E-1,2.468306240E0
9.641762583E0,-9.175751933E-1,2.118284848E0,6.687263198E-1,2.403387156E0
9.651829583E0,-4.121629223E-1,2.181019624E0,1.642019777E0,2.760969726E0
9.661897583E0,-1.878020418E-1,2.424377232E0,1.509473923E0,2.862059764E0
9.671964583E0,-3.985932524E-1,2.793093880E0,9.781162409E-1,2.986128159E0
9.682032583E0,-7.260633856E-1,2.994122323E0,4.573225768E-1,3.114655754E0
9.692099583E0,-1.432861073E0,3.001327847E0,4.177449667E-1,3.351950262E0
9.702167583E0,-1.938291470E0,2.499743748E0,-2.313810477E-1,3.171628891E0
9.712234583E0,-1.863795019E0,1.612677280E0,-9.480324626E-1,2.640686546E0
9.722302583E0,-1.528121864E0,4.963286215E-1,-1.138194587E0,1.969006208E0
9.732369583E0,-1.000722965E0,-6.051868200E-1,-1.123860503E0,1.621961766E0
9.742437583E0,-2.589287424E-1,-1.194243511E0,-5.161840117E-1,1.326539706E0
9.752505583E0,4.352234638E-1,-9.322496581E-1,1.054907870E-1,1.034232660E0
9.762572583E0,9.861545545E-1,-4.304076970E-1,6.236722076E-1,1.243671425E0
9.772640583E0,1.331349024E0,1.696160316E-1,7.068734086E-1,1.516881616E0
9.782707583E0,1.414116361E0,7.784480059E-1,4.583902784E-1,1.678042916E0
9.792775583E0,1.180959514E0,1.118033241E0,1.147831821E-1,1.630287975E0
9.802842583E0,8.436117160E-1,1.321205859E0,-4.209398854E-1,1.623100747E0
9.812910583E0,2.585071582E-1,1.538916993E0,-1.345480574E0,2.060439137E0
9.822977583E0,-6.061885943E-1,1.843132421E0,-2.814661335E0,3.418613778E0
9.833045583E0,-8.378601024E-1,2.041929567E0,-3.804375089E0,4.398267355E0
9.843112583E0,-1.151860114E0,2.137110543E0,-4.534708697E0,5.143695769E0
9.853180583E0,-1.754727636E0,2.369614549E0,-4.432956619E0,5.324025411E0
9.863248583E0,-2.560351308E0,2.629503989E0,-3.221864941E0,4.883656801E0
9.873315583E0,-3.341438162E0,2.849221303E0,-1.924759405E0,4.794577123E0
9.883383583E0,-3.785168448E0,2.991252510E0,-1.320062436E0,5.001765347E0
9.893450583E0,-3.748767484E0,2.668775643E0,-1.203862327E0,4.756564473E0
9.903518583E0,-3.318755936E0,1.550038982E0,-1.497928011E0,3.957341296E0
9.913585458E0,-2.729268013E0,8.778074026E-2,-1.766596899E0,3.252302868E0
9.923653458E0,-2.285269194E0,-1.386929147E0,-1.580642870E0,3.105553031E0
9.933720458E0,-1.856445508E0,-2.954622627E0,-1.133736670E0,3.668997633E0
9.943788458E0,-1.376483827E0,-4.243064198E0,-9.059148952E-1,4.551810993E0
9.953855458E0,-1.200658930E0,-4.923628060E0,-1.268122935E0,5.224158393E0
9.963923458E0,-1.496309064E0,-4.803055549E0,-1.919074888E0,5.384341357E0
9.973991458E0,-1.893617427E0,-3.786510676E0,-2.273860399E0,4.805610385E0
9.984058458E0,-2.361809831E0,-2.290239766E0,-2.366601917E0,4.052671773E0
9.994126458E0,-2.888943193E0,-7.553707999E-1,-2.243313521E0,3.734840475E0
1.000419346E1,-3.360453892E0,4.710575402E-1,-1.838836033E0,3.859515970E0
1.001426146E1,-3.703946822E0,1.454391983E0,-1.144460463E0,4.140563711E0
1.002432846E1,-3.869021321E0,2.227086913E0,-3.643155952E-1,4.479058824E0
1.003439646E1,-3.723280348E0,2.840010184E0,4.273215365E-1,4.702241815E0
1.004446346E1,-3.199227446E0,3.287525665E0,8.323393075E-1,4.662152933E0
1.005453146E1,-2.522452287E0,3.638460345E0,6.720451263E-1,4.478035716E0
1.006459846E1,-1.617680450E0,3.700451356E0,4.357345835E-1,4.062030884E0
1.007466646E1,-4.193076351E-1,3.245595281E0,-3.876353145E-1,3.295446671E0
1.008473446E1,1.400911009E0,2.591209404E0,-1.623736703E0,3.363545557E0
1.009480146E1,3.757612275E0,1.466187571E0,-3.213261348E0,5.156976293E0
1.010486946E1,5.865347868E0,-8.987772721E-1,-3.747077054E0,7.017883773E0
1.011493646E1,7.394094214E0,-3.911929944E0,-3.750787697E0,9.167564207E0
1.012500446E1,8.588784453E0,-7.142433561E0,-3.662219921E0,1.175557018E1
1.013507146E1,9.045299968E0,-9.955093979E0,-3.558889096E0,1.391355595E1
1.014513946E1,9.219218965E0,-1.180448526E1,-2.417249330E0,1.517178186E1
1.015520646E1,8.186698914E0,-1.283139081E1,-3.637202024E-1,1.522494406E1
1.016527446E1,4.273974919E0,-1.159660973E1,1.448965913E0,1.244378242E1
1.017534246E1,-6.760364357E-1,-7.964767259E0,6.588782930E0,1.035889006E1
1.018540946E1,-5.522688752E0,-3.970445369E0,1.352198323E1,1.513633239E1
1.019547746E1,-6.243165708E0,-7.612992918E-1,1.276900687E1,1.423391131E1
1.020554446E1,-4.638021981E0,1.221592108E0,1.061951660E1,1.165236749E1
1.021561246E1,-3.384331875E0,2.951706036E0,9.068920380E0,1.011986105E1
1.022567946E1,-2.464669225E0,4.274830951E0,7.118569905E0,8.661570962E0
1.023574746E1,-1.698367348E0,5.086556046E0,4.824052608E0,7.213112201E0
1.024581446E1,-3.656538036E-1,5.375359967E0,2.450273673E0,5.918786916E0
1.025588246E1,6.507452546E-1,5.218565125E0,2.648584038E-2,5.259048664E0
1.026594946E1,9.184231127E-1,4.897435457E0,-2.095437145E0,5.405481653E0
1.027601746E1,8.879863818E-1,3.914842442E0,-2.564721225E0,4.763644206E0
1.028608546E1,1.440429124E0,2.820324363E0,-2.332511042E0,3.933150561E0
1.029615246E1,2.637635711E0,2.120719628E0,-2.798634117E0,4.391688378E0
1.030622046E1,4.008325971E0,1.693680512E0,-2.812946639E0,5.181495881E0
1.031628746E1,4.778661550E0,1.654365588E0,-1.837448050E0,5.380403986E0
1.032635546E1,4.923890015E0,1.741468052E0,-3.751775292E-1,5.236235483E0
1.033642246E1,4.880534665E0,1.563424428E0,1.360162641E0,5.302259610E0
1.034649046E1,4.464841194E0,1.077003329E0,2.823580678E0,5.391414555E0
1.035655746E1,3.320221833E0,7.820557380E-1,3.474780699E0,4.869248926E0
1.036662546E1,1.736341798E0,6.995784223E-1,3.309802094E0,3.802510054E0
1.037669246E1,1.452351158E-1,7.477799445E-1,2.460851870E0,2.576055126E0
1.038676046E1,-1.759568400E0,9.695636648E-1,1.061568141E0,2.272237130E0
1.039682846E1,-3.716550787E0,8.736991489E-1,4.146108592E-1,3.840312764E0
1.040689546E1,-5.185248275E0,7.636919725E-1,-7.182722631E-1,5.290173924E0
1.041696346E1,-6.336030017E0,3.301162541E-1,-1.680523985E0,6.563414811E0
1.042703046E1,-6.592906972E0,-8.537636518E-1,-7.831129146E-1,6.693922658E0
1.043709846E1,-5.956773763E0,-2.058812233E0,4.540430197E-1,6.318861965E0
1.044716546E1,-4.849119622E0,-2.656184249E0,8.813774201E-1,5.598758972E0
1.045723346E1,-3.294490575E0,-2.920761402E0,2.273914924E-1,4.408653106E0
1.046730046E1,-2.647010552E0,-2.794020663E0,-1.142196860E0,4.014701732E0
1.047736846E1,-2.917941874E0,-2.668509010E0,-2.034976058E0,4.447072371E0
1.048743546E1,-3.008049806E0,-2.821060528E0,-2.787164218E0,4.977452212E0
1.049750346E1,-2.448562485E0,-3.099410212E0,-3.007616820E0,4.964630987E0
1.050757146E1,-1.129557226E0,-3.558953415E0,-2.680796349E0,4.596598525E0
1.051763846E1,-3.984519325E-1,-4.343992403E0,-1.885749560E0,4.752376809E0
1.052770646E1,-3.597131056E-1,-5.033490225E0,-8.029209423E-1,5.109804243E0
1.053777346E1,-7.296768918E-1,-5.168618209E0,1.826928909E-1,5.223066078E0
1.054784146E1,-1.019760257E0,-5.050492759E0,7.889776719E-1,5.212472912E0
1.055790846E1,-6.211313731E-1,-4.521116259E0,1.118569723E0,4.698669454E0
1.056797646E1,4.173572963E-1,-3.249784811E0,1.409022267E0,3.566599526E0
1.057804346E1,1.660568022E0,-1.828303297E0,1.899056653E0,3.115540928E0
1.058811146E1,3.223717339E0,-6.069936097E-1,2.529236519E0,4.142201359E0
1.059817846E1,4.976371114E0,5.794684267E-1,3.367933066E0,6.036805965E0
1.060824646E1,5.261276112E0,1.519714152E0,3.410383852E0,6.451455297E0
1.061831446E1,4.904523452E0,2.356924921E0,3.313130622E0,6.370736213E0
1.062838146E1,4.467751061E0,3.098243693E0,3.245978566E0,6.332163167E0
1.063844946E1,4.074687484E0,3.476208297E0,3.061819632E0,6.169427986E0
1.064851646E1,3.941467738E0,3.158018609E0,2.757926094E0,5.754511778E0
1.065858446E1,3.500374255E0,2.496836513E0,2.321366103E0,4.886261667E0
1.066865146E1,2.929737462E0,1.769575617E0,1.105030203E0,3.596644438E0
1.067871946E1,2.248000357E0,1.034986407E0,-9.002443385E-1,2.633465841E0
1.068878646E1,1.703072018E0,7.106939793E-2,-2.040838476E0,2.659046228E0
1.069885446E1,1.621323265E0,-1.408284348E0,-2.660273792E0,3.418919505E0
1.070892246E1,1.424356882E0,-2.789368034E0,-2.894523483E0,4.264696091E0
1.071898946E1,7.206839472E-1,-3.664777493E0,-2.790484267E0,4.662272179E0
1.072905746E1,3.589298710E-1,-3.855849883E0,-2.197781253E0,4.452712814E0
1.073912446E1,2.986921660E-1,-2.927227837E0,-1.912532877E0,3.509367725E0
1.074919246E1,3.951595116E-1,-1.600220371E0,-2.348447482E0,2.869156993E0
1.075925946E1,1.629829502E-1,-4.005810499E-1,-2.613328836E0,2.648870745E0
1.076932746E1,-1.354364340E-1,6.520849979E-1,-2.583274148E0,2.667744964E0
1.077939446E1,-3.055673039E-1,1.405816823E0,-1.564933887E0,2.125725850E0
1.078946246E1,-1.332899212E-1,1.756178477E0,1.021992432E0,2.036270507E0
1.079952946E1,2.765706691E-1,2.005328336E0,3.929511644E0,4.420282211E0
1.080959746E1,7.943848845E-1,2.107313717E0,6.541165545E0,6.917995745E0
1.081966546E1,6.408621445E-1,2.035154398E0,6.325011524E0,6.675202506E0
1.082973246E1,2.571374479E-1,1.909770799E0,4.133862183E0,4.560938579E0
1.083980046E1,4.322437227E-1,1.657745279E0,1.631018826E0,2.365412534E0
1.084986746E1,5.232255211E-1,1.297426987E0,-9.549378781E-1,1.693808750E0
1.085993546E1,3.194892320E-1,6.986323428E-1,-2.660845649E0,2.769523441E0
1.087000246E1,-9.005126892E-2,2.201003069E-1,-3.218112783E0,3.226887550E0
1.088007046E1,-8.684199902E-1,-6.476493001E-2,-3.253058375E0,3.367601010E0
1.089013746E1,-1.741416889E0,-3.176651931E-1,-2.535829547E0,3.092551608E0
1.090020546E1,-2.229398317E0,-3.444618130E-1,-1.583888952E0,2.756369897E0
1.091027233E1,-2.092555929E0,-3.172933102E-2,-8.055483887E-1,2.242477486E0
1.092034033E1,-1.329294751E0,3.866699392E-1,5.576343387E-3,1.384402135E0
1.093040833E1,-4.867169684E-1,7.324216479E-1,7.695228159E-1,1.168546209E0
1.094047533E1,-1.778233297E-2,7.201255381E-1,9.643463404E-1,1.203686365E0
1.095054333E1,2.528518774E-1,4.433516783E-1,8.363450888E-1,9.797795109E-1
1.096061033E1,3.614187384E-1,1.384240597E-1,3.583583057E-1,5.274517988E-1
1.097067833E1,4.989851578E-1,3.034763396E-2,-4.528085263E-1,6.744944240E-1
1.098074533E1,5.060523950E-1,5.062110007E-2,-1.194787448E0,1.298525536E0
1.099081333E1,4.828067891E-1,1.249456429E-1,-2.051633460E0,2.111377196E0
1.100088033E1,7.483213967E-1,3.802689922E-1,-2.722641363E0,2.849099053E0
1.101094833E1,1.003701756E0,5.180095124E-1,-2.784434738E0,3.004800806E0
1.102101533E1,1.290016810E0,1.313986301E-1,-2.758660212E0,3.048215073E0
1.103108333E1,1.608580282E0,-6.494935119E-1,-3.046354916E0,3.505659798E0
1.104115133E1,1.408936898E0,-1.374390963E0,-3.412374244E0,3.939333913E0
1.105121833E1,3.711337410E-1,-1.935441830E0,-3.167336147E0,3.730374458E0
1.106128633E1,-5.884450722E-1,-2.391303041E0,-2.604838386E0,3.584659099E0
1.107135333E1,-1.559010657E0,-2.831045233E0,-1.861194470E0,3.729527610E0
1.108142133E1,-2.540417273E0,-3.181370634E0,-1.140742657E0,4.228017602E0
1.109148833E1,-3.087816060E0,-3.130513891E0,-4.847645831E-1,4.423767845E0
1.110155633E1,-2.898430300E0,-2.363835161E0,-4.842773639E-2,3.740449187E0
1.111162333E1,-2.788537145E0,-1.696367308E0,-1.834131217E-1,3.269134721E0
1.112169133E1,-3.076569818E0,-1.537035944E0,-7.465138762E-1,3.519239166E0
1.113175833E1,-3.501297822E0,-1.416528338E0,-1.325374046E0,4.002780950E0
1.114182633E1,-3.791356264E0,-1.075300035E0,-1.714770834E0,4.297800775E0
1.115189433E1,-3.661010132E0,-6.096599400E-1,-1.893887568E0,4.166712199E0
1.116196133E1,-3.243861289E0,-9.260527790E-2,-1.853618817E0,3.737260296E0
1.117202933E1,-2.765176056E0,4.304761094E-1,-1.494770515E0,3.172671933E0
1.118209633E1,-2.058393280E0,9.862726682E-1,-9.221643806E-1,2.461727811E0
1.119216433E1,-1.296469797E0,1.686227651E0,-3.277633345E-1,2.152121379E0
1.120223133E1,-5.851246577E-1,2.507627549E0,-1.828343935E-1,2.581471519E0
1.121229933E1,7.213505298E-2,3.236283005E0,-4.303468859E-1,3.265567271E0
1.122236633E1,7.516072395E-1,3.862508692E0,-7.149929984E-1,3.999387682E0
1.123243433E1,1.522502689E0,4.333638738E0,-1.197467593E0,4.746827128E0
1.124250233E1,2.416734044E0,4.504652839E0,-1.585440949E0,5.352207361E0
1.125256933E1,3.572727116E0,4.481179776E0,-1.740478703E0,5.989542332E0
1.126263733E1,4.319201085E0,4.069991877E0,-1.531619668E0,6.129126422E0
1.127270433E1,4.539758352E0,3.159985027E0,-6.295837426E-1,5.566981853E0
1.128277233E1,4.147944325E0,1.789610517E0,3.787786831E-1,4.533389595E0
1.129283933E1,2.607115877E0,3.618841767E-2,1.287864158E0,2.908084745E0
1.130290733E1,-1.340546401E0,-2.316710111E0,4.802519944E0,5.498036759E0
1.131297433E1,-3.475850155E0,-4.978735728E0,5.351265346E0,8.093539680E0
1.132304233E1,-3.161141314E0,-7.095704368E0,3.931191841E0,8.706095806E0
1.133310933E1,-2.405767298E0,-8.277780408E0,2.903546614E0,9.096150159E0
1.134317733E1,-6.248565611E-1,-8.075087262E0,1.612601558E0,8.258205846E0
1.135324533E1,1.733961104E0,-6.557571078E0,4.124617150E-1,6.795475275E0
1.136331233E1,3.176121296E0,-4.351752827E0,3.123313630E-1,5.396577623E0
1.137338033E1,3.188840744E0,-1.610202738E0,3.992651340E-1,3.594561280E0
1.138344733E1,2.619065539E0,8.328926003E-1,1.211098695E-1,2.750978368E0
1.139351533E1,2.570890037E0,2.347646559E0,5.057984796E-1,3.518060837E0
1.140358233E1,2.081964575E0,3.312674539E0,1.317015159E0,4.128306920E0
1.141365033E1,8.466284408E-1,4.061259645E0,1.239735726E0,4.329844604E0
1.142371733E1,-7.810048471E-1,3.779326787E0,9.605762020E-1,3.976931754E0
1.143378533E1,-2.524026065E0,2.274885562E0,7.455626804E-1,3.478746270E0
1.144385233E1,-3.497752363E0,5.814494634E-1,4.816105950E-1,3.578310193E0
1.145392033E1,-3.677001098E0,-7.357352650E-1,4.763814300E-1,3.780024169E0
1.146398833E1,-3.390717034E0,-1.326160204E0,1.197484038E0,3.832705430E0
1.147405533E1,-2.213461293E0,-1.325419362E0,2.777210503E0,3.790652392E0
1.148412333E1,-1.792611600E-1,-1.042730459E0,4.114411420E0,4.248270555E0
1.149419033E1,1.827330320E0,-6.591250455E-1,4.218709960E0,4.644469362E0
1.150425833E1,3.004820389E0,-2.906750304E-1,3.657341297E0,4.742318305E0
1.151432533E1,3.760527989E0,1.236791360E-1,2.933978740E0,4.771278501E0
1.152439333E1,4.145098193E0,6.962156886E-1,2.053483665E0,4.677964352E0
1.153446033E1,3.990867940E0,1.401454800E0,9.948514107E-1,4.345207912E0
1.154452833E1,3.451395637E0,1.989106405E0,-5.428993553E-2,3.983920624E0
1.155459533E1,2.964222001E0,2.377431691E0,-8.480392277E-1,3.893323009E0
1.156466333E1,2.305967752E0,2.620012203E0,-1.262807377E0,3.711688793E0
1.157473133E1,1.508089010E0,2.622264551E0,-1.511976532E0,3.381815618E0
1.158479833E1,7.521590705E-1,2.543724750E0,-1.541391242E0,3.067925331E0
1.159486633E1,4.701015204E-3,2.465822881E0,-1.573513506E0,2.925106722E0
1.160493333E1,-8.395042663E-1,2.431321970E0,-1.714673478E0,3.091310251E0
1.161500133E1,-1.871185607E0,2.476467152E0,-1.991167257E0,3.687678426E0
1.162506833E1,-2.870630298E0,2.443927982E0,-2.087021247E0,4.309171611E0
1.163513633E1,-3.981803001E0,2.359895307E0,-2.440085192E0,5.232387289E0
1.164520333E1,-4.858185437E0,1.960353892E0,-3.202931949E0,6.140336000E0
1.165527133E1,-5.113508787E0,5.335046339E-1,-2.927976573E0,5.916556948E0
1.166533833E1,-5.089663256E0,-1.372024595E0,-1.901759529E0,5.603910497E0
1.167540633E1,-5.708739552E0,-2.883385414E0,-1.866743185E0,6.662458168E0
1.168547433E1,-6.383586007E0,-4.350968131E0,-1.647299521E0,7.899030934E0
1.169554133E1,-7.121188288E0,-5.796295760E0,-1.446378958E-1,9.183097913E0
1.170560933E1,-8.860365400E0,-6.940514002E0,2.349429960E0,1.149767936E1
1.171567633E1,-9.405467402E0,-6.720258744E0,4.489804127E0,1.240092883E1
1.172574433E1,-6.793420860E0,-5.706120000E0,5.498318142E0,1.043752245E1
1.173581133E1,-3.044344059E0,-5.457939025E0,5.209235308E0,8.135924142E0
1.174587933E1,-7.191847211E-1,-6.122603137E0,4.347058682E0,7.543236376E0
1.175594633E1,7.561594431E-1,-5.920152651E0,3.690320178E0,7.017011296E0
1.176601433E1,2.159335664E0,-4.503242490E0,3.149673755E0,5.904436315E0
1.177608133E1,3.294494961E0,-2.558273208E0,1.955320901E0,4.606705838E0
1.178614933E1,4.521270041E0,-4.930495030E-1,4.824235041E-1,4.573588638E0
1.179621733E1,5.403185697E0,1.529159160E0,-7.618451294E-1,5.666846691E0
1.180628433E1,5.731888679E0,3.488869858E0,-1.806821212E0,6.949198774E0
1.181635233E1,5.665353797E0,5.275801765E0,-2.506315434E0,8.137071646E0
1.182641933E1,4.471923341E0,6.528950711E0,-2.683591318E0,8.356252637E0
1.183648733E1,2.019128642E0,7.202753438E0,-2.441821815E0,7.868864679E0
1.184655433E1,1.729481260E0,7.749637671E0,-2.409870290E0,8.297919273E0
1.185662233E1,4.256091502E0,6.790313650E0,-2.658988574E0,8.443511981E0
1.186668933E1,6.116815563E0,5.106528965E0,-2.539493705E0,8.363079516E0
1.187675733E1,6.756764081E0,3.472504671E0,-2.052081503E0,7.869128797E0
1.188682533E1,6.651136469E0,1.524469108E0,-1.484783471E0,6.983280342E0
1.189689233E1,6.122423628E0,-6.796037489E-1,-1.156518445E0,6.267652451E0
1.190696033E1,5.297106680E0,-2.927980374E0,-8.713485682E-1,6.114871755E0
1.191702746E1,4.055185558E0,-4.760646864E0,-2.237963319E-1,6.257665161E0
1.192709546E1,2.389502683E0,-5.811452327E0,3.016650183E-1,6.290763309E0
1.193716246E1,7.183807290E-1,-5.889236668E0,6.916880433E-1,5.973073895E0
1.194723046E1,-7.168382335E-1,-4.966753614E0,7.754799592E-1,5.077781768E0
1.195729746E1,-1.593282065E0,-3.375309328E0,1.391498454E-1,3.735053344E0
1.196736546E1,-1.738646185E0,-1.578815469E0,-6.639886133E-1,2.440579792E0
1.197743246E1,-2.005248814E0,-3.037154907E-1,-7.446007403E-1,2.160485169E0
1.198750046E1,-1.992614735E0,4.865199172E-1,-8.460685699E-1,2.218794072E0
1.199756846E1,-1.942263191E0,1.029459618E0,-6.322018334E-1,2.287324325E0
1.200763546E1,-1.865642155E0,1.517841289E0,-2.329470782E-1,2.416345830E0
1.201770346E1,-1.614339058E0,1.999353066E0,5.455918519E-1,2.627008517E0
1.202777046E1,-9.243103087E-1,2.429753746E0,1.375410279E0,2.941055295E0
1.203783846E1,3.025506888E-1,2.383388835E0,2.022172118E0,3.140264213E0
1.204790546E1,1.480084648E0,1.982396725E0,2.498811117E0,3.516333935E0
1.205797346E1,2.247929898E0,1.532846414E0,2.454485714E0,3.664329008E0
1.206804046E1,2.579693020E0,1.108926787E0,2.063484743E0,3.484609588E0
1.207810846E1,2.675233893E0,6.451314890E-1,1.428930867E0,3.100792550E0
1.208817546E1,2.699046386E0,2.768715084E-2,7.628816946E-1,2.804925392E0
1.209824346E1,2.794285835E0,-5.818868351E-1,4.136951852E-1,2.884054320E0
1.210831146E1,2.624059646E0,-1.042058029E0,-1.138580064E-1,2.825692412E0
1.211837846E1,2.076957020E0,-1.244190427E0,-8.603932250E-1,2.569442893E0
1.212844646E1,1.179648276E0,-1.215404000E0,-1.291710602E0,2.130092303E0
1.213851346E1,1.116569318E-1,-9.658471745E-1,-1.553690422E0,1.832834407E0
1.214858146E1,-9.140286378E-1,-5.430203927E-1,-1.655124411E0,1.967169620E0
1.215864846E1,-1.656743359E0,4.943236113E-3,-1.472735721E0,2.216703295E0
1.216871646E1,-2.073329992E0,4.962502688E-1,-1.010089108E0,2.359076428E0
1.217878346E1,-2.168901855E0,9.306861126E-1,-4.216320495E-1,2.397516524E0
1.218885146E1,-2.072838534E0,1.354141470E0,5.120289803E-2,2.476485503E0
1.219891846E1,-1.847637408E0,1.711586441E0,1.400981176E-1,2.522482828E0
1.220898646E1,-1.790890326E0,1.917432990E0,-2.495707123E-1,2.635549843E0
1.221905446E1,-2.072552897E0,2.013478185E0,-1.050652267E0,3.074644711E0
1.222912146E1,-2.495894526E0,2.086943772E0,-1.981675179E0,3.809443569E0
1.223918946E1,-3.000603377E0,2.226868812E0,-2.615779989E0,4.561235609E0
1.224925646E1,-3.263597689E0,2.399220756E0,-2.970626457E0,5.023141612E0
1.225932446E1,-3.216284651E0,2.565115619E0,-2.897113800E0,5.031657129E0
1.226939146E1,-2.705321033E0,2.597579361E0,-2.355989367E0,4.429093172E0
1.227945946E1,-1.599453948E0,2.246431841E0,-1.812741956E0,3.300112475E0
1.228952646E1,-7.149337953E-1,1.158726354E0,-1.156394484E0,1.786344115E0
1.229959446E1,-1.111355867E0,-2.417268187E-1,-3.876106100E-1,1.201576341E0
1.230966146E1,-1.817308339E0,-1.450681924E0,-3.008838303E-1,2.344700135E0
1.231972946E1,-2.143457111E0,-2.404852794E0,-1.185501704E0,3.432657810E0
1.232979746E1,-2.275032912E0,-3.101544446E0,-2.465307449E0,4.568708080E0
1.233986446E1,-2.479101908E0,-3.251238429E0,-3.520564106E0,5.395448935E0
1.234993246E1,-2.854538176E0,-3.151301912E0,-4.231610964E0,5.998801821E0
1.235999946E1,-3.278732037E0,-2.983675688E0,-4.293764820E0,6.171614109E0
1.237006746E1,-3.249641847E0,-2.175835483E0,-3.229827679E0,5.072102032E0
1.238013446E1,-2.650917077E0,-7.596065229E-1,-1.741717143E0,3.261585815E0
1.239020246E1,-2.470560295E0,7.041158617E-2,-4.637872584E-1,2.514701689E0
1.240026946E1,-2.493322336E0,4.994294000E-1,5.592627883E-1,2.603624563E0
1.241033746E1,-2.380278701E0,8.956408256E-1,1.330415808E0,2.870175152E0
1.242040446E1,-2.060834785E0,1.323413182E0,1.849524597E0,3.069072123E0
1.243047246E1,-1.702668267E0,1.800146615E0,2.013449095E0,3.192739313E0
1.244054046E1,-1.019290506E0,2.331950294E0,1.899079896E0,3.175444813E0
1.245060746E1,-5.670724757E-2,2.655407154E0,1.243968379E0,2.932892803E0
1.246067546E1,9.484487844E-1,2.749190646E0,2.225450277E-3,2.908196908E0
1.247074246E1,2.388627940E0,2.561489761E0,-1.383489669E0,3.765742542E0
1.248081046E1,3.753763345E0,1.473270303E0,-1.923151567E0,4.467636577E0
1.249087746E1,4.541353765E0,-4.995364040E-1,-1.724760218E0,4.883464799E0
1.250094546E1,4.905696988E0,-2.456985984E0,-1.396081063E0,5.661420793E0
1.251101246E1,5.336167250E0,-4.389777271E0,-1.110370757E0,6.998410436E0
1.252108046E1,5.713717872E0,-5.902593462E0,-2.163444941E-1,8.217906451E0
1.253114846E1,5.501331797E0,-7.401223724E0,5.271720994E-1,9.236919106E0
1.254121546E1,4.133336226E0,-8.673967860E0,7.739137825E-1,9.639560640E0
1.255128346E1,2.103633626E0,-9.118033483E0,1.070577824E0,9.418595750E0
1.256135046E1,-9.514742799E-2,-8.380117207E0,2.187510911E0,8.661444534E0
1.257141846E1,-2.749864245E0,-6.378132893E0,5.920434487E0,9.126547928E0
1.258148546E1,-4.328438224E0,-3.915334777E0,8.611452938E0,1.040299695E1
1.259155346E1,-4.574031807E0,-1.643933571E0,9.738128364E0,1.088372310E1
1.260162046E1,-4.373298647E0,9.875713348E-2,9.942136549E0,1.086193230E1
1.261168846E1,-3.456198833E0,1.338900118E0,8.986442479E0,9.720808214E0
1.262175546E1,-2.215618184E0,2.023690932E0,7.243961105E0,7.840871216E0
1.263182346E1,-8.667196930E-1,2.247123567E0,4.927895358E0,5.484972197E0
1.264189146E1,4.901712111E-1,2.312220034E0,2.481629659E0,3.427114685E0
1.265195846E1,1.774374281E0,2.234533342E0,-3.278881726E-1,2.872116641E0
1.266202646E1,2.681841831E0,2.122417075E0,-1.787166673E0,3.858872188E0
1.267209346E1,3.294370415E0,1.522595660E0,-2.725194550E0,4.538486456E0
1.268216146E1,3.709274512E0,1.094957789E0,-3.887418416E0,5.483582032E0
1.269222846E1,3.743833019E0,1.187277138E0,-2.902377171E0,4.883616070E0
1.270229646E1,3.829494143E0,1.565036505E0,-1.272404704E0,4.328207295E0
1.271236346E1,4.031349968E0,2.072527462E0,2.177239984E-2,4.532949005E0
1.272243146E1,3.795427972E0,2.329479845E0,1.385394253E0,4.663803928E0
1.273249846E1,3.102940176E0,1.900183119E0,2.899645352E0,4.652620422E0
1.274256646E1,2.286909630E0,1.395602322E0,3.548929826E0,4.446635178E0
1.275263446E1,1.719263396E0,1.299533738E0,3.352072201E0,3.985102584E0
1.276270146E1,1.598300438E0,1.464025855E0,2.987112974E0,3.690634080E0
1.277276946E1,1.557742396E0,1.779948578E0,2.383783229E0,3.358154374E0
1.278283646E1,1.432810348E0,2.025712314E0,1.782240979E0,3.054969522E0
1.279290446E1,1.235759619E0,2.138051945E0,1.221532174E0,2.755087804E0
1.280297146E1,8.396376559E-1,2.183429262E0,4.522797918E-1,2.382627068E0
1.281303946E1,-7.686545044E-2,2.428143423E0,-9.047677445E-1,2.592372167E0
1.282310646E1,-1.463292614E0,2.615080077E0,-2.530808543E0,3.922354008E0
1.283317446E1,-2.597924054E0,2.314447823E0,-3.523409361E0,4.951796809E0
1.284324146E1,-3.081741681E0,1.393681512E0,-2.581493670E0,4.254831314E0
1.285330946E1,-2.715175053E0,-5.013753533E-2,2.962795866E-1,2.731752356E0
1.286337746E1,-3.717769055E0,-6.480042261E-1,1.353660829E0,4.009253529E0
1.287344446E1,-5.292928845E0,-9.871830797E-1,1.775855235E0,5.669505093E0
1.288351246E1,-5.819353670E0,-1.761847937E0,2.328450443E0,6.510811528E0
1.289357946E1,-5.680004581E0,-2.589638257E0,1.258095398E0,6.368004583E0
1.290364746E1,-5.564548384E0,-3.441649498E0,-4.349135613E-1,6.557308883E0
1.291371471E1,-5.188407526E0,-4.283815198E0,-1.945411040E0,7.003946703E0
1.292378271E1,-4.653540199E0,-4.649430483E0,-3.172798616E0,7.303375333E0
1.293384971E1,-3.618068473E0,-4.586888080E0,-3.690408763E0,6.910070808E0
1.294391771E1,-2.561399129E0,-4.400132689E0,-3.249021749E0,6.039708231E0
1.295398571E1,-1.183792782E0,-4.215132049E0,-2.455879691E0,5.019964999E0
1.296405271E1,-3.664242839E-1,-4.422600031E0,-1.513348581E0,4.688697230E0
1.297412071E1,-7.181608737E-1,-5.199000342E0,-4.891757226E-1,5.271114918E0
1.298418771E1,-1.625502563E0,-5.868409470E0,4.828487429E-1,6.108488455E0
1.299425571E1,-2.226262748E0,-5.657143722E0,1.278023879E0,6.212315667E0
1.300432271E1,-1.983040796E0,-4.401109174E0,1.832919674E0,5.163507267E0
1.301439071E1,-9.310246664E-1,-2.603523055E0,2.353653989E0,3.631091617E0
1.302445771E1,8.090552562E-1,-1.590853132E0,3.199767144E0,3.663863244E0
1.303452571E1,3.404526696E0,-9.092180604E-1,4.601527461E0,5.795820432E0
1.304459271E1,4.908110134E0,-4.339014083E-1,5.174960684E0,7.145490438E0
1.305466071E1,5.261945034E0,3.074851906E-1,5.356244835E0,7.514783524E0
1.306472871E1,5.052679617E0,1.501561471E0,5.361654679E0,7.518749834E0
1.307479571E1,4.457395934E0,2.883279580E0,5.219877241E0,7.445051918E0
1.308486371E1,3.751223607E0,3.827277464E0,4.755665621E0,7.164920574E0
1.309493071E1,3.103411169E0,3.995911748E0,4.018948023E0,6.461456089E0
1.310499871E1,2.528060644E0,3.435816316E0,3.308044714E0,5.398063005E0
1.311506571E1,1.944616988E0,2.603723615E0,2.367340274E0,4.020598446E0
1.312513371E1,1.329616786E0,2.026420412E0,8.999399909E-1,2.585372792E0
1.313520071E1,7.498720783E-1,1.502256120E0,-8.657140450E-1,1.889058600E0
1.314526871E1,4.716785145E-1,6.021357429E-1,-2.997635915E0,3.093682135E0
1.315533571E1,7.111395371E-1,-3.811413968E-1,-4.112453188E0,4.190854260E0
1.316540371E1,1.490084556E0,-1.335081301E0,-4.555158749E0,4.975164851E0
1.317547171E1,2.411733212E0,-2.269315504E0,-4.589198899E0,5.659239921E0
1.318553871E1,2.956284699E0,-2.553086727E0,-3.594780475E0,5.308513701E0
1.319560671E1,3.249600039E0,-2.357483915E0,-1.832800245E0,4.413251359E0
1.320567371E1,3.955471235E0,-1.910419840E0,-1.381603503E-1,4.394831616E0
1.321574171E1,4.615185095E0,-9.192822880E-1,7.178673434E-1,4.760288532E0
1.322580871E1,4.190446566E0,5.169593525E-1,1.048185473E0,4.350377246E0
1.323587671E1,2.928841669E0,1.763161806E0,1.084141317E0,3.586393101E0
1.324594371E1,1.393046650E0,2.714847609E0,1.134488622E0,3.255463246E0
1.325601171E1,1.966938661E-1,3.178300261E0,1.218130703E0,3.409416876E0
1.326607871E1,-5.512382888E-1,3.060146159E0,1.075434082E0,3.290124106E0
1.327614671E1,-1.102270025E0,2.260433584E0,1.082995555E0,2.738145096E0
1.328621471E1,-1.461786664E0,1.343138180E0,1.169429243E0,2.303997651E0
1.329628171E1,-1.779262699E0,5.964750534E-1,1.253841549E0,2.256917560E0
1.330634971E1,-1.916449781E0,6.410302520E-3,1.198238475E0,2.260220409E0
1.331641671E1,-1.683597574E0,-6.070017958E-1,5.340836544E-1,1.867671631E0
1.332648471E1,-1.336357164E0,-1.237916949E0,-1.133797042E-1,1.825142131E0
1.333655171E1,-1.289575930E0,-1.790176528E0,-5.121446089E-1,2.264956993E0
1.334661971E1,-1.186316952E0,-2.250597398E0,-6.798253584E-1,2.633381681E0
1.335668671E1,-9.950171793E-1,-2.194163581E0,-6.764477143E-1,2.502397753E0
1.336675471E1,-1.017809187E0,-1.741844028E0,-7.827810851E-1,2.163955264E0
1.337682271E1,-1.269655782E0,-1.024288926E0,-1.082581719E0,1.957850042E0
1.338688971E1,-1.617539678E0,-1.588401979E-1,-1.401161270E0,2.145907203E0
1.339695771E1,-2.001175351E0,6.081653917E-1,-1.404856857E0,2.519561612E0
1.340702471E1,-2.638062266E0,9.990225220E-1,-1.028809408E0,3.002643388E0
1.341709271E1,-3.237030280E0,1.226027806E0,-5.701516195E-1,3.508073842E0
1.342715971E1,-3.555895906E0,1.383544779E0,-2.015839291E-1,3.820893604E0
1.343722771E1,-3.561916199E0,1.468746312E0,-7.072558165E-2,3.853500337E0
1.344729471E1,-3.443715320E0,1.534014103E0,-1.024066731E-2,3.769944209E0
1.345736271E1,-3.288712065E0,1.633419693E0,-5.263999745E-2,3.672391306E0
1.346742971E1,-3.225479105E0,1.679899210E0,-2.915084048E-1,3.648390599E0
1.347749771E1,-3.342409092E0,1.656576421E0,-8.035327072E-1,3.815967609E0
1.348756571E1,-3.514554630E0,1.634251167E0,-1.410921443E0,4.124750955E0
1.349763271E1,-3.623333598E0,1.619882219E0,-1.906047146E0,4.402905914E0
1.350770071E1,-3.592867266E0,1.555266393E0,-2.301543457E0,4.541437110E0
1.351776771E1,-3.320647802E0,1.278390791E0,-2.472705638E0,4.333042582E0
1.352783571E1,-2.533057382E0,4.642794478E-1,-2.399190935E0,3.519666497E0
1.353790271E1,-1.135519047E0,-8.218945724E-1,-1.691235791E0,2.196632126E0
1.354797071E1,3.243207863E-1,-2.048193689E0,-7.377198100E-1,2.201025188E0
1.355803771E1,1.302057104E0,-3.055225142E0,4.850250766E-2,3.321461405E0
1.356810571E1,9.985168840E-1,-3.761444247E0,5.376105487E-1,3.928679663E0
1.357817271E1,-4.513164631E-1,-3.692401494E0,-1.271183221E-1,3.722052446E0
1.358824071E1,-1.651661544E0,-2.817363333E0,-1.607512873E0,3.640002698E0
1.359830871E1,-2.632353337E0,-1.752567821E0,-2.935846049E0,4.315086335E0
1.360837571E1,-3.574199445E0,-6.340790820E-1,-3.885520409E0,5.317351484E0
1.361844371E1,-4.246001839E0,5.434355450E-1,-4.184052343E0,5.985828917E0
1.362851071E1,-4.581194061E0,1.366478510E0,-3.826231982E0,6.123287820E0
1.363857871E1,-4.613549629E0,1.737838685E0,-3.010505637E0,5.776509990E0
1.364864571E1,-4.665350989E0,1.894382097E0,-1.933784144E0,5.393858035E0
1.365871371E1,-4.556894202E0,1.979418738E0,-7.592387331E-1,5.025915515E0
1.366878071E1,-3.976265396E0,2.074228417E0,2.944143248E-1,4.494417628E0
1.367884871E1,-3.167058404E0,2.172397320E0,1.027898412E0,3.975694178E0
1.368891571E1,-2.184907000E0,2.129815557E0,1.272741212E0,3.306025271E0
1.369898371E1,-1.340073800E0,1.552477271E0,9.171591640E-1,2.246589504E0
1.370905171E1,-2.684917905E-1,4.782928848E-1,3.444713147E-1,6.476977782E-1
1.371911871E1,1.042309971E0,-7.555275053E-1,-1.742094581E-1,1.299069214E0
1.372918671E1,2.209744948E0,-2.017154914E0,-2.491138986E-1,3.002323170E0
1.373925371E1,3.335658774E0,-3.515027962E0,-7.841594200E-1,4.908864128E0
1.374932171E1,4.829495781E0,-5.660421671E0,-1.589170157E0,7.608538939E0
1.375938871E1,5.533618367E0,-7.345948825E0,-9.838851039E-1,9.249428430E0
1.376945671E1,5.639692706E0,-7.967292672E0,-2.834693603E-1,9.765461649E0
1.377952371E1,4.596072594E0,-7.394190109E0,3.947654092E-1,8.715146033E0
1.378959171E1,2.731673265E0,-6.319161385E0,2.317081117E0,7.263794073E0
1.379965971E1,-4.902986804E-1,-5.163027686E0,7.954600121E0,9.495941805E0
1.380972671E1,-3.168944716E0,-4.106053995E0,8.924162031E0,1.032194546E1
1.381979471E1,-4.428111032E0,-3.179527591E0,8.807547501E0,1.035811064E1
1.382986171E1,-4.348467569E0,-2.320421923E0,9.121910187E0,1.036835443E1
1.383992971E1,-3.115118465E0,-1.503473511E0,9.002106586E0,9.643770975E0
1.384999671E1,-1.563770583E0,-3.908185387E-1,7.318430074E0,7.493833220E0
1.386006471E1,-2.939643815E-2,5.174347311E-1,5.570522484E0,5.594579841E0
1.387013171E1,4.059289864E-1,1.100552405E0,4.048509791E0,4.215023781E0
1.388019971E1,3.543365908E-1,1.894937582E0,1.724633625E0,2.586639519E0
1.389026671E1,-1.034927204E-1,2.682814808E0,-9.236703309E-1,2.839255698E0
1.390033471E1,-9.505296622E-1,3.253030016E0,-3.206893730E0,4.665820219E0
1.391040283E1,-7.889647349E-1,3.019241377E0,-4.013514498E0,5.083953429E0
1.392046983E1,3.660904444E-1,2.237074542E0,-4.071732886E0,4.660207443E0
1.393053783E1,2.009328270E0,1.604560760E0,-3.279426979E0,4.167332076E0
1.394060483E1,3.569297140E0,1.282316612E0,-1.456262799E0,4.062624682E0
1.395067283E1,4.406724548E0,1.454705393E0,1.190747753E0,4.790957027E0
1.396073983E1,4.355666369E0,1.715190080E0,4.040052671E0,6.183504840E0
1.397080783E1,3.359950447E0,1.453952857E0,5.191800081E0,6.352797336E0
1.398087483E1,2.472236107E0,1.012824875E0,4.823640380E0,5.514097579E0
1.399094283E1,2.183741796E0,9.187525302E-1,3.939450449E0,4.596966857E0
1.400101083E1,2.044490355E0,1.081488728E0,2.977398994E0,3.770207349E0
1.401107783E1,2.217376442E0,1.366193751E0,1.967202443E0,3.263913158E0
1.402114583E1,2.386955490E0,1.794859563E0,9.998832321E-1,3.149419603E0
1.403121283E1,2.032252133E0,2.368541585E0,1.489051938E-1,3.124453668E0
1.404128083E1,1.134113084E0,3.037401075E0,-9.328697553E-1,3.373761070E0
1.405134783E1,-2.470523896E-1,3.853360723E0,-2.512651769E0,4.606825660E0
1.406141583E1,-1.686470457E0,4.203501937E0,-3.735983716E0,5.871216694E0
1.407148283E1,-2.970154002E0,3.630153791E0,-3.811540267E0,6.043812584E0
1.408155083E1,-3.838828638E0,2.130345899E0,-2.445216708E0,5.025342149E0
1.409161783E1,-4.002509161E0,7.320462567E-1,2.358436427E-1,4.075732269E0
1.410168583E1,-5.057860835E0,-5.064138991E-1,1.894037403E0,5.424554263E0
1.411175383E1,-6.009245507E0,-1.449758649E0,1.744452763E0,6.423079257E0
1.412182083E1,-7.088919843E0,-2.587985249E0,8.685419047E-1,7.596368688E0
1.413188883E1,-7.963941633E0,-3.636175253E0,-5.454689142E-1,8.771754279E0
1.414195583E1,-8.059213241E0,-4.515988836E0,-1.921214823E0,9.435896334E0
1.415202383E1,-7.716732464E0,-5.132188302E0,-3.456304960E0,9.891074798E0
1.416209083E1,-6.839358925E0,-5.508374183E0,-4.246453829E0,9.754557231E0
1.417215883E1,-5.350438550E0,-5.735091199E0,-4.104877535E0,8.852597546E0
1.418222583E1,-2.929248050E0,-5.881158739E0,-3.480802454E0,7.435355270E0
1.419229383E1,-7.579443057E-1,-5.939388821E0,-1.982531211E0,6.307237838E0
1.420236083E1,3.850895099E-1,-6.624418786E0,-1.649046376E-1,6.637651070E0
1.421242883E1,8.123244345E-4,-7.609982187E0,1.473856194E0,7.751392238E0
1.422249683E1,-8.754201306E-1,-7.261119175E0,2.768641116E0,7.820203687E0
1.423256383E1,-1.000716533E0,-4.480906126E0,3.988487246E0,6.081774725E0
1.424263183E1,2.530012737E-1,-1.402769254E0,5.333190433E0,5.520388702E0
1.425269883E1,3.000548998E0,3.638424093E-1,7.250036947E0,7.854852725E0
1.426276683E1,4.730266485E0,1.020696396E0,7.379064531E0,8.824275353E0
1.427283383E1,4.818707376E0,1.260120581E0,5.272827287E0,7.253313191E0
1.428290183E1,4.791640907E0,1.838855183E0,3.442058803E0,6.179723276E0
1.429296883E1,4.989750128E0,2.469689645E0,2.730496513E0,6.201014795E0
1.430303683E1,4.996891333E0,2.816913098E0,2.190397097E0,6.140176042E0
1.431310483E1,4.639191131E0,2.813315306E0,1.623204607E0,5.663182017E0
1.432317183E1,3.818216326E0,2.312310081E0,1.082856392E0,4.593270272E0
1.433323983E1,2.969028997E0,1.550371689E0,7.707520469E-1,3.436981856E0
1.434330683E1,2.041150133E0,7.685515934E-1,6.448775737E-1,2.274386181E0
1.435337483E1,1.341310779E0,1.988170266E-2,4.646633175E-1,1.419655552E0
1.436344183E1,9.959563152E-1,-6.479942858E-1,1.288594767E-2,1.188272538E0
1.437350983E1,6.043491333E-1,-1.238708662E0,-9.414882588E-1,1.669142644E0
1.438357683E1,7.335128845E-1,-1.968015499E0,-3.046986415E0,3.700709712E0
1.439364483E1,1.298881774E0,-2.371139503E0,-3.658768895E0,4.549284145E0
1.440371183E1,1.630763010E0,-2.312980172E0,-3.912079632E0,4.828419236E0
1.441377983E1,1.982662481E0,-1.879949414E0,-3.615382555E0,4.531683057E0
1.442384783E1,2.053378123E0,-1.295901448E0,-2.490042633E0,3.477935392E0
1.443391483E1,2.187793331E0,-8.310799634E-1,-1.461173729E0,2.759014722E0
1.444398283E1,2.701670617E0,-3.391349995E-1,-8.614376839E-1,2.855890676E0
1.445404983E1,3.006936204E0,4.414946026E-1,-2.688695937E-3,3.039175883E0
1.446411783E1,2.640398228E0,1.311556199E0,7.831153996E-1,3.050434755E0
1.447418483E1,1.731853475E0,2.202192977E0,1.142192767E0,3.025487512E0
1.448425283E1,7.520320398E-1,2.954278811E0,1.383834655E0,3.347881992E0
1.449431983E1,6.745015416E-2,3.346800059E0,9.963139455E-1,3.492600984E0
1.450438783E1,-7.155899991E-1,3.364814746E0,9.267683320E-1,3.562716220E0
1.451445483E1,-1.329943207E0,2.850503013E0,1.223147467E0,3.374937938E0
1.452452283E1,-1.832584482E0,1.978407755E0,1.600215986E0,3.135786079E0
1.453459083E1,-2.720467661E0,8.613048059E-1,1.656745698E0,3.299635824E0
1.454465783E1,-3.694679570E0,-1.747574884E-1,1.260884228E0,3.907816057E0
1.455472583E1,-3.747191659E0,-8.289860755E-1,6.024210870E-1,3.884787563E0
1.456479283E1,-3.331456965E0,-9.221082473E-1,6.924810719E-1,3.525396313E0
1.457486083E1,-2.961345171E0,-8.860338503E-1,9.670277274E-1,3.238790489E0
1.458492783E1,-2.720975491E0,-8.047300708E-1,1.208471979E0,3.084104836E0
1.459499583E1,-2.313315217E0,-8.386673105E-1,1.304032001E0,2.784832062E0
1.460506283E1,-1.862141719E0,-5.848437721E-1,1.313803868E0,2.352805692E0
1.461513083E1,-1.157700313E0,-7.454673707E-2,9.796566899E-1,1.518405236E0
1.462519783E1,-4.072968695E-1,3.842222947E-1,4.893230724E-1,7.436091586E-1
1.463526583E1,2.791051447E-2,7.482576621E-1,-2.576062484E-1,7.918519463E-1
1.464533383E1,3.073748975E-1,1.089524556E0,-1.126741938E0,1.597213349E0
1.465540083E1,2.993337335E-1,1.350975788E0,-1.822236811E0,2.288074137E0
1.466546883E1,1.212990269E-2,1.477100814E0,-2.560450126E0,2.955990324E0
1.467553583E1,-8.194153529E-1,1.446640329E0,-2.941943525E0,3.379236817E0
1.468560383E1,-2.270271086E0,1.463011363E0,-2.939860747E0,3.992156593E0
1.469567083E1,-3.418408570E0,1.652009161E0,-3.123961501E0,4.916684541E0
1.470573883E1,-4.248640980E0,1.943846617E0,-3.495004756E0,5.834770612E0
1.471580583E1,-4.537966180E0,2.285512877E0,-3.969265401E0,6.447617699E0
1.472587383E1,-4.135857838E0,2.615368345E0,-4.492752585E0,6.643063858E0
1.473594083E1,-3.271128902E0,2.844382147E0,-4.311256181E0,6.113732408E0
1.474600883E1,-2.260073980E0,2.625814980E0,-3.655383357E0,5.036334599E0
1.475607683E1,-1.182464295E0,1.518666331E0,-3.056724368E0,3.612219968E0
1.476614383E1,-6.294396088E-2,-1.750539422E-2,-2.769257705E0,2.770028270E0
1.477621183E1,6.464886278E-1,-1.556023023E0,-2.552765715E0,3.058719992E0
1.478627883E1,6.892073621E-1,-3.019486960E0,-2.290019910E0,3.851817685E0
1.479634683E1,-1.584010720E-3,-4.086396241E0,-1.927601298E0,4.518216851E0
1.480641383E1,-8.840134911E-1,-4.473946770E0,-2.100656662E0,5.020999698E0
1.481648183E1,-1.752412578E0,-3.980922995E0,-2.717395241E0,5.128638672E0
1.482654883E1,-2.700226647E0,-2.787250172E0,-3.166621617E0,5.008740354E0
1.483661683E1,-3.627877470E0,-1.409918060E0,-3.045683656E0,4.942221444E0
1.484668483E1,-4.236642786E0,-2.727059519E-1,-2.585174493E0,4.970577209E0
1.485675183E1,-4.282773224E0,7.995009059E-1,-1.762252564E0,4.699668317E0
1.486681983E1,-3.854040754E0,1.750351142E0,-8.725881048E-1,4.321894175E0
1.487688683E1,-3.201724792E0,2.501997265E0,-2.354720521E-1,4.070193981E0
1.488695483E1,-2.489189524E0,2.909162865E0,5.478844721E-2,3.829137610E0
1.489702183E1,-2.020672014E0,2.849267496E0,-9.437051576E-2,3.494330615E0
1.490708983E1,-1.348860557E0,2.319905030E0,-3.744883617E-1,2.709543445E0
1.491715675E1,-2.651187511E-1,1.630073331E0,-9.118545699E-1,1.886506235E0
1.492722475E1,1.020644795E0,9.090882522E-1,-1.174342001E0,1.802008985E0
1.493729175E1,2.414708568E0,2.462613344E-2,-1.206368370E0,2.699397814E0
1.494735975E1,3.840772253E0,-1.238157855E0,-1.124569259E0,4.189179202E0
1.495742775E1,5.071999403E0,-3.254337453E0,-7.715505572E-1,6.075457222E0
1.496749475E1,6.447821179E0,-5.810176465E0,-4.114239804E-1,8.689178224E0
1.497756275E1,7.810946311E0,-8.309783973E0,-5.797384219E-1,1.141925955E1
1.498762975E1,7.864143695E0,-9.968163675E0,-7.639606521E-2,1.269704215E1
1.499769775E1,6.427039590E0,-1.026704761E1,6.678830051E-1,1.213116533E1
1.500776475E1,3.411084348E0,-8.982080457E0,2.628117614E0,9.960937102E0
1.501783275E1,-8.736694743E-1,-6.567776808E0,7.086224277E0,9.701214618E0
1.502789975E1,-3.612456023E0,-4.489616139E0,8.377370185E0,1.016793110E1
1.503796775E1,-4.740948763E0,-2.717330922E0,8.918829955E0,1.045973280E1
1.504803475E1,-4.646448403E0,-9.783643091E-1,9.981856685E0,1.105369361E1
1.505810275E1,-3.804246451E0,2.504929644E-1,9.760836611E0,1.047897748E1
1.506817075E1,-2.951724747E0,1.358835030E0,8.238384207E0,8.856076218E0
1.507823775E1,-2.292280005E0,2.110361871E0,6.232093420E0,6.967579439E0
1.508830575E1,-1.845502882E0,2.645072785E0,3.593375974E0,4.828523772E0
1.509837275E1,-9.679632819E-1,3.124604695E0,5.684113419E-1,3.320120309E0
1.510844075E1,-3.018856046E-1,3.323803545E0,-2.300097002E0,4.053301264E0
1.511850775E1,-2.239230703E-1,3.010739526E0,-3.068958205E0,4.305020151E0
1.512857575E1,7.149890515E-1,2.831866182E0,-3.851806533E0,4.833951695E0
1.513864275E1,2.331871503E0,2.783478718E0,-4.574641086E0,5.840609519E0
1.514871075E1,4.161840525E0,2.494381267E0,-3.711306420E0,6.108735532E0
1.515877775E1,5.820621346E0,2.072867185E0,-1.943981396E0,6.477304601E0
1.516884575E1,6.975089757E0,1.914686553E0,1.429182297E-1,7.234523297E0
1.517891375E1,7.243852347E0,1.811891917E0,2.748755028E0,7.956884023E0
1.518898075E1,5.869670130E0,1.260628120E0,5.104029865E0,7.879932205E0
1.519904875E1,4.079330758E0,7.150940090E-1,6.016430565E0,7.304090335E0
1.520911575E1,3.144239645E0,6.899439651E-1,5.192063205E0,6.108992220E0
1.521918375E1,2.568424559E0,1.041638199E0,3.686272151E0,4.611986255E0
1.522925075E1,2.056594384E0,1.557181356E0,2.359408234E0,3.495883500E0
1.523931875E1,1.533587841E0,2.020928707E0,1.414437081E0,2.904595800E0
1.524938575E1,5.700598913E-1,2.503775403E0,3.415560392E-1,2.590467155E0
1.525945375E1,-9.397869384E-1,2.888024595E0,-1.209876334E0,3.269202701E0
1.526952075E1,-2.600672538E0,2.899926603E0,-2.963097874E0,4.894182359E0
1.527958875E1,-4.225469634E0,2.130483309E0,-3.877231689E0,6.117718392E0
1.528965675E1,-6.106713914E0,7.346266329E-1,-1.900875722E0,6.437775984E0
1.529972375E1,-6.606073732E0,-6.536941516E-1,4.914049736E-1,6.656500961E0
1.530979175E1,-6.118213048E0,-1.399064459E0,1.816311243E0,6.533674218E0
1.531985875E1,-6.329502770E0,-2.118866646E0,1.954765708E0,6.955092390E0
1.532992675E1,-6.111930799E0,-2.688974265E0,5.324053574E-1,6.698487602E0
1.533999375E1,-5.275878364E0,-3.468819171E0,-1.828017368E0,6.573374054E0
1.535006175E1,-4.917918838E0,-4.197473457E0,-3.951995650E0,7.577795111E0
1.536012875E1,-4.759637927E0,-4.335941371E0,-5.879335577E0,8.719009554E0
1.537019675E1,-4.240670933E0,-4.088191336E0,-6.907124062E0,9.077717839E0
1.538026375E1,-2.958243516E0,-3.697763391E0,-6.354129488E0,7.924621149E0
1.539033175E1,-1.025874910E0,-3.673493353E0,-4.204889773E0,5.676977255E0
1.540039975E1,-3.205728672E-1,-4.065981857E0,-1.772971680E0,4.447291760E0
1.541046675E1,-1.113512832E0,-4.813114514E0,3.052493615E-1,4.949662547E0
1.542053475E1,-2.039185469E0,-5.304398743E0,2.178762892E0,6.086208273E0
1.543060175E1,-2.027292378E0,-5.396342116E0,4.361689001E0,7.228744950E0
1.544066975E1,1.434976157E-1,-4.732924629E0,7.361987153E0,8.753286352E0
1.545073675E1,1.992114652E0,-3.382205535E0,8.069737644E0,8.973767364E0
1.546080475E1,2.723974528E0,-2.276121663E0,6.282185347E0,7.215720324E0
1.547087175E1,3.691614459E0,-1.140983562E0,4.474334733E0,5.911812929E0
1.548093975E1,4.425945223E0,1.973499602E-1,3.422080037E0,5.598086272E0
1.549100775E1,5.273626016E0,1.515397153E0,2.719144728E0,6.123831149E0
1.550107475E1,5.913504367E0,2.574717332E0,1.909135060E0,6.726328859E0
1.551114275E1,6.324280622E0,3.274250146E0,7.170054638E-1,7.157606879E0
1.552120975E1,6.087729759E0,3.425121759E0,1.029998732E-1,6.985880163E0
1.553127775E1,5.159546839E0,3.044701324E0,5.724570304E-2,5.991194105E0
1.554134475E1,3.839891370E0,2.323179470E0,-3.015979216E-2,4.488077338E0
1.555141275E1,2.416424580E0,1.351809601E0,-1.326082875E0,3.070015104E0
1.556147975E1,1.476325181E0,3.330574036E-1,-2.956443450E0,3.321298112E0
1.557154775E1,7.979489817E-1,-8.802562165E-1,-2.673276830E0,2.925402980E0
1.558161475E1,6.732131077E-1,-2.426105669E0,-1.963885318E0,3.193125451E0
1.559168275E1,1.381615782E0,-3.671044539E0,-1.825292566E0,4.326329059E0
1.560174975E1,2.609235785E0,-3.821847739E0,-1.892962539E0,4.999793865E0
1.561181775E1,3.754848003E0,-2.693571346E0,-1.916945478E0,5.002888175E0
1.562188575E1,3.679485287E0,-8.284604108E-1,-1.858189001E0,4.204500564E0
1.563195275E1,3.145848214E0,4.929284656E-1,-1.162233514E0,3.389708866E0
1.564202075E1,2.627955354E0,1.169720873E0,2.441212535E-2,2.876628619E0
1.565208775E1,1.987050524E0,1.503653605E0,8.606117646E-1,2.636284613E0
1.566215575E1,1.513447691E0,1.699102635E0,1.059418266E0,2.509948355E0
1.567222275E1,1.062407509E0,1.814057141E0,1.094084361E0,2.369922702E0
1.568229075E1,5.280740324E-1,1.866121334E0,1.169348552E0,2.264651640E0
1.569235775E1,-7.059051096E-4,1.887585878E0,1.185533499E0,2.229006644E0
1.570242575E1,-7.840377979E-1,1.724600589E0,1.391814057E0,2.350767711E0
1.571249375E1,-2.013427168E0,1.445114790E0,1.666909182E0,2.986776178E0
1.572256075E1,-3.031634258E0,1.132826112E0,1.520251511E0,3.575649023E0
1.573262875E1,-3.048881790E0,9.381869209E-1,1.359279857E0,3.467494283E0
1.574269575E1,-2.165387824E0,8.107310683E-1,1.151793895E0,2.583179915E0
1.575276375E1,-1.290799168E0,6.421880007E-1,8.490484571E-1,1.673156060E0
1.576283075E1,-6.426185019E-1,3.908974761E-1,6.914329585E-1,1.021684350E0
1.577289875E1,-4.386113405E-2,2.650308967E-2,6.834564793E-1,6.853750593E-1
1.578296575E1,2.085209926E-1,-2.761569786E-1,5.731372078E-1,6.694997686E-1
1.579303375E1,9.677850880E-2,-3.741147977E-1,3.000789611E-1,4.892599969E-1
1.580310075E1,-3.380388658E-1,-3.965289295E-1,-5.056452826E-2,5.235095398E-1
1.581316875E1,-8.011694089E-1,-4.235489130E-1,-3.651165175E-1,9.770241424E-1
1.582323675E1,-1.111857704E0,-2.037129003E-1,-6.306198692E-1,1.294375494E0
1.583330375E1,-1.280467284E0,1.487414718E-1,-7.459633608E-1,1.489356178E0
1.584337175E1,-1.241000332E0,5.924439830E-1,-8.260210986E-1,1.604176597E0
1.585343875E1,-1.006116949E0,9.316485643E-1,-8.438771796E-1,1.610083556E0
1.586350675E1,-1.013225263E0,1.064528294E0,-9.616715316E-1,1.756319463E0
1.587357375E1,-1.408902545E0,1.090358369E0,-1.336644262E0,2.227219261E0
1.588364175E1,-2.132433502E0,1.099211639E0,-1.699478027E0,2.940027964E0
1.589370875E1,-2.831510964E0,1.258646498E0,-2.258152585E0,3.834175067E0
1.590377675E1,-3.221165029E0,1.667536442E0,-3.125164858E0,4.787821772E0
1.591384308E1,-3.040018873E0,2.080638134E0,-3.764368440E0,5.266995305E0
1.592391108E1,-2.498602957E0,2.484808790E0,-3.854526658E0,5.222515411E0
1.593397908E1,-1.827047315E0,2.911243889E0,-3.654361264E0,5.016751849E0
1.594404608E1,-1.365981205E0,2.559718055E0,-3.305080175E0,4.397910428E0
1.595411408E1,-1.076235882E0,1.535710965E0,-2.977509799E0,3.518843055E0
1.596418108E1,-1.156490525E0,3.081815940E-1,-2.821177472E0,3.064553566E0
1.597424908E1,-1.479174675E0,-6.907853794E-1,-3.041881796E0,3.452272733E0
1.598431608E1,-1.695313932E0,-1.431003120E0,-3.402077297E0,4.061525476E0
1.599438408E1,-2.010129485E0,-1.952677667E0,-3.629385467E0,4.585412684E0
1.600445108E1,-2.543045011E0,-2.125816061E0,-3.942955270E0,5.151025929E0
1.601451908E1,-3.246176494E0,-1.986638880E0,-4.198527710E0,5.666747816E0
1.602458608E1,-3.938031914E0,-1.663610036E0,-4.184559882E0,5.982159737E0
1.603465408E1,-4.326465958E0,-1.319329487E0,-3.730321273E0,5.862954441E0
1.604472208E1,-4.024069600E0,-6.743552881E-1,-2.436794379E0,4.752458105E0
1.605478908E1,-3.125109310E0,-3.653515756E-2,-9.143935040E-1,3.256341274E0
1.606485708E1,-2.152377039E0,1.819016165E-1,2.710862001E-1,2.176993992E0
1.607492408E1,-9.834796726E-1,7.944027185E-2,1.096100262E0,1.474780935E0
1.608499208E1,9.758045442E-2,-2.394633615E-1,1.414927955E0,1.438362181E0
1.609505908E1,9.288100335E-1,-6.516172206E-1,1.409088925E0,1.809094989E0
1.610512708E1,1.841991629E0,-1.035658252E0,1.113994058E0,2.388828988E0
1.611519408E1,2.877762440E0,-1.465389426E0,3.941374914E-1,3.253340927E0
1.612526208E1,4.195768409E0,-1.650191261E0,-3.688761310E-1,4.523679182E0
1.613533008E1,5.419262032E0,-1.983802396E0,-5.895605747E-1,5.800987380E0
1.614539708E1,6.466948591E0,-2.485750777E0,-1.241213025E0,7.038536124E0
1.615546508E1,7.149955419E0,-2.973353598E0,-1.290268825E0,7.850317685E0
1.616553208E1,7.589497637E0,-3.693577369E0,-7.101898031E-1,8.470381203E0
1.617560008E1,7.226512429E0,-4.382696292E0,1.375583795E-1,8.452776525E0
1.618566708E1,4.735975414E0,-4.648273319E0,2.138996270E-1,6.639402159E0
1.619573508E1,2.049081881E0,-4.872457321E0,1.121643312E0,5.403485969E0
1.620580208E1,-5.873868723E-1,-5.122874857E0,3.592219394E0,6.284338494E0
1.621587008E1,-3.628116913E0,-5.279652157E0,6.285941598E0,8.975022062E0
1.622593708E1,-5.389427199E0,-4.693706769E0,7.636337342E0,1.045898928E1
1.623600508E1,-5.841159691E0,-3.333683585E0,9.050533226E0,1.127584784E1
1.624607308E1,-5.669785402E0,-1.554620860E0,9.484828736E0,1.115908996E1
1.625614008E1,-4.976051856E0,-9.475412965E-2,9.131546398E0,1.039976971E1
1.626620808E1,-3.782225252E0,1.277031314E0,7.468171420E0,8.468153352E0
1.627627508E1,-2.543463380E0,2.239935000E0,4.669030642E0,5.769433413E0
1.628634308E1,-1.407096340E0,2.464387974E0,1.776232965E0,3.347854797E0
1.629641008E1,-1.854738267E-1,2.772844972E0,-7.427834988E-1,2.876594706E0
1.630647808E1,7.957192922E-1,3.166843227E0,-2.411764495E0,4.059393205E0
1.631654508E1,1.481576419E0,2.738269801E0,-3.585472292E0,4.748557860E0
1.632661308E1,2.668562220E0,2.428850352E0,-4.544715621E0,5.803014599E0
1.633668008E1,4.082524799E0,2.007097703E0,-4.433692199E0,6.352407138E0
1.634674808E1,5.491717805E0,1.722410222E0,-3.524084422E0,6.748691164E0
1.635681608E1,6.159228927E0,1.726507366E0,-1.938862743E0,6.684019554E0
1.636688308E1,6.246002192E0,1.995773985E0,-4.348632753E-2,6.557251577E0
1.637695108E1,5.377947360E0,1.962783410E0,2.469124804E0,6.234694365E0
1.638701808E1,4.112422197E0,1.475661814E0,4.084287150E0,5.980885858E0
1.639708608E1,3.314165579E0,1.326591729E0,4.442938986E0,5.699407507E0
1.640715308E1,2.988520691E0,1.537853385E0,3.802941060E0,5.075294046E0
1.641722108E1,2.831555695E0,1.811610081E0,2.949472692E0,4.472027270E0
1.642728808E1,2.540422535E0,2.020419415E0,2.529861587E0,4.115342138E0
1.643735608E1,2.026031426E0,2.226971723E0,2.062543633E0,3.649423603E0
1.644742308E1,1.194586012E0,2.322959030E0,1.262629037E0,2.901276698E0
1.645749108E1,-3.631917603E-2,2.284072123E0,2.855636868E-1,2.302140561E0
1.646755908E1,-1.681523128E0,2.283255851E0,-1.136796371E0,3.055009542E0
1.647762608E1,-3.150800221E0,1.818422087E0,-2.328119490E0,4.319067177E0
1.648769408E1,-4.315150719E0,7.733749616E-1,-2.380549427E0,4.988551907E0
1.649776108E1,-5.057767864E0,-8.895059270E-1,-3.549932331E-1,5.147645749E0
1.650782908E1,-4.905658981E0,-2.139014981E0,6.165266177E-1,5.387112418E0
1.651789608E1,-4.984322158E0,-2.603150588E0,7.812941381E-1,5.677171909E0
1.652796408E1,-5.381405404E0,-3.103840647E0,9.951423097E-1,6.291554585E0
1.653803108E1,-5.342289870E0,-3.110746209E0,-4.122836673E-1,6.195706647E0
1.654809908E1,-4.904988598E0,-3.001595065E0,-2.362613824E0,6.216947013E0
1.655816608E1,-4.706267173E0,-3.147387201E0,-3.786055763E0,6.810962864E0
1.656823408E1,-4.488468623E0,-3.308869756E0,-4.670587171E0,7.273881643E0
1.657830208E1,-3.889626324E0,-3.366434425E0,-5.181349937E0,7.301264332E0
1.658836908E1,-2.734530799E0,-3.732574205E0,-4.773542898E0,6.648043372E0
1.659843708E1,-1.532938946E0,-4.652706678E0,-3.251490444E0,5.879606394E0
1.660850408E1,-1.375534093E0,-5.784881995E0,-1.345397836E0,6.096478416E0
1.661857208E1,-1.768531012E0,-7.056968318E0,1.972359395E-1,7.277870966E0
1.662863908E1,-1.867550393E0,-7.669681674E0,1.485817405E0,8.032397825E0
1.663870708E1,-1.290881029E0,-6.145385059E0,2.976980918E0,6.949427800E0
1.664877408E1,8.385155752E-1,-3.417521548E0,5.016259650E0,6.127431989E0
1.665884208E1,3.370127526E0,-9.982226229E-1,5.893365387E0,6.861921271E0
