"Time (s)","Linear Acceleration x (m/s^2)","Linear Acceleration y (m/s^2)","Linear Acceleration z (m/s^2)","Absolute acceleration (m/s^2)"
3.156749997E-3,-4.744319683E-1,-3.908235673E0,-1.390616986E0,4.175309254E0
1.322474999E-2,-1.334719359E0,-3.588309069E0,-7.287036958E-1,3.897235792E0
2.329274999E-2,-1.824407297E0,-2.869229598E0,-3.051688161E-1,3.413805571E0
3.335975000E-2,-2.391721117E0,-2.183057671E0,-1.821758509E-1,3.243340676E0
4.342774999E-2,-2.614236324E0,-1.497108086E0,2.804324627E-2,3.012698226E0
5.349475000E-2,-2.427793175E0,-8.913722120E-1,3.519708073E-1,2.610097234E0
6.356274999E-2,-2.042218419E0,-4.710113472E-1,5.725222269E-1,2.172622715E0
7.363074999E-2,-1.637672957E0,-2.763715714E-1,6.587669036E-1,1.786708648E0
8.369775000E-2,-1.065498347E0,-2.995208444E-1,6.832775545E-1,1.300718140E0
9.376574999E-2,-3.489062816E-1,-4.724487390E-1,6.418918392E-1,8.700393885E-1
1.038337500E-1,4.090103960E-1,-6.930282252E-1,2.898871180E-1,8.553433031E-1
1.139007500E-1,8.956688923E-1,-6.958065297E-1,-1.461450157E-1,1.143559293E0
1.239687500E-1,1.275446134E0,-9.567853059E-1,-1.127293476E-1,1.598408229E0
1.340357500E-1,1.721482269E0,-1.055164563E0,1.123448932E-1,2.022249943E0
1.441037500E-1,2.226250176E0,-8.778480408E-1,5.055069959E-1,2.445883144E0
1.541717500E-1,2.843074710E0,-6.973815503E-1,9.289543135E-1,3.071216526E0
1.642387500E-1,4.138212512E0,-7.870346421E-1,1.252155504E0,4.394555691E0
1.743067500E-1,2.662699217E0,-8.682702284E-1,2.110296528E0,3.506738049E0
1.843737500E-1,4.810223651E-1,-5.638069519E-1,2.461564354E0,2.570711937E0
1.944417500E-1,-5.447336268E-1,-5.325082684E-1,2.332470696E0,2.453715413E0
2.045097500E-1,-1.131938505E0,-6.148732444E-1,1.949701434E0,2.336811838E0
2.145767500E-1,-1.491049932E0,-6.899942511E-1,1.769163973E0,2.414386698E0
2.246447500E-1,-1.811541084E0,-7.527535131E-1,1.598904748E0,2.530773665E0
2.347127500E-1,-2.001300774E0,-7.655701713E-1,1.276557105E0,2.494173313E0
2.447797500E-1,-2.257880690E0,-8.815358797E-1,1.077716689E0,2.652659793E0
2.548477500E-1,-2.697607094E0,-6.226623935E-1,1.145322196E0,2.996090023E0
2.649147500E-1,-2.889281162E0,-3.914034795E-1,9.810189450E-1,3.076286802E0
2.749827500E-1,-2.555781709E0,-5.606129835E-1,7.010378873E-1,2.708830224E0
2.850507500E-1,-2.490593441E0,-4.754968194E-1,5.806144444E-1,2.601204729E0
2.951177500E-1,-2.634043182E0,-3.835428482E-1,5.094304776E-1,2.710130627E0
3.051857500E-1,-2.703078334E0,-3.967224723E-1,4.024334478E-1,2.761516590E0
3.152527500E-1,-2.856192938E0,-3.630151013E-1,3.488366632E-1,2.900225005E0
3.253207500E-1,-2.960866869E0,-1.530053345E-1,3.842158262E-1,2.989609515E0
3.353887500E-1,-2.940602174E0,-2.293636121E-2,3.543985347E-1,2.961969875E0
3.454557500E-1,-2.773658904E0,1.227978875E-1,2.917035190E-1,2.791657927E0
3.555237500E-1,-2.442629900E0,2.629601052E-1,3.031512344E-1,2.475376641E0
3.655907500E-1,-2.101001063E0,3.740221924E-1,3.013163964E-1,2.155200603E0
3.756587500E-1,-1.777718450E0,4.568013706E-1,3.455516974E-1,1.867714206E0
3.857267500E-1,-1.642409202E0,5.600352786E-1,3.172219741E-1,1.764023039E0
3.957940000E-1,-1.533580239E0,7.093504353E-1,2.197090916E-1,1.703912696E0
4.058620000E-1,-1.353772511E0,9.208741924E-1,2.208493352E-1,1.652114923E0
4.159290000E-1,-1.071943148E0,1.049432976E0,1.273768787E-1,1.505522020E0
4.259970000E-1,-6.418775135E-1,1.082441020E0,-2.723614778E-3,1.258448538E0
4.360650000E-1,-1.890738112E-1,1.203390749E0,2.075648267E-2,1.218330428E0
4.461320000E-1,2.501924175E-1,1.277640301E0,-3.953417620E-2,1.302506789E0
4.562000000E-1,7.879409605E-1,1.296794318E0,-1.468364306E-1,1.524495785E0
4.662680000E-1,1.335400559E0,1.391123063E0,-3.234399033E-1,1.955282946E0
4.763350000E-1,1.811256325E0,1.407885276E0,-6.422032034E-1,2.382271055E0
4.864030000E-1,2.097999687E0,1.338392433E0,-7.730241287E-1,2.605851741E0
4.964700000E-1,2.065834154E0,1.387373536E0,-1.015115814E0,2.687552082E0
5.065380000E-1,2.093486806E0,1.295784650E0,-1.139185544E0,2.712837734E0
5.166060000E-1,2.036722621E0,1.229856270E0,-1.135098925E0,2.636140180E0
5.266730000E-1,2.079023718E0,1.030194906E0,-1.221504400E0,2.622158303E0
5.367410000E-1,2.263111024E0,7.712957648E-1,-1.249534782E0,2.697759410E0
5.468080000E-1,2.549272588E0,5.040517701E-1,-1.138394415E0,2.837040846E0
5.568760000E-1,3.477727404E0,1.830592190E-1,-1.018052870E0,3.628295773E0
5.669440000E-1,4.790682841E0,-1.406640550E-1,-9.677516127E-1,4.889475600E0
5.770110000E-1,5.918931168E0,-4.318374874E-1,-1.052577755E0,6.027283776E0
5.870790000E-1,6.435797549E0,-5.394151457E-1,-1.047527515E0,6.542764912E0
5.971460000E-1,6.304690111E0,-3.348406582E-1,-8.294573611E-1,6.367828136E0
6.072140000E-1,5.581802933E0,-2.469466281E-1,-4.946756136E-1,5.609118521E0
6.172820000E-1,4.107165551E0,-1.526710930E-1,-3.518714046E-1,4.125037067E0
6.273490000E-1,2.541549586E0,-1.207947046E-1,-5.025173146E-1,2.593566909E0
6.374170000E-1,1.029308760E0,3.633722931E-2,-6.792605174E-1,1.233771360E0
6.474850000E-1,-4.851961076E-1,5.188000560E-2,-6.714229095E-1,8.300093501E-1
6.575520000E-1,-1.859705769E0,-7.696587637E-2,-5.083832048E-1,1.929477332E0
6.676200000E-1,-2.962205297E0,-2.294555596E-1,-3.967411834E-1,2.997451191E0
6.776870000E-1,-3.531173878E0,-4.519911586E-1,-2.879052226E-1,3.571606695E0
6.877550000E-1,-3.411758532E0,-8.030077004E-1,-2.335003893E-1,3.512753917E0
6.978230000E-1,-2.748732224E0,-1.266864760E0,-2.291056037E-1,3.035286566E0
7.078900000E-1,-2.033153481E0,-1.792733515E0,-1.022485242E-1,2.712574661E0
7.179580000E-1,-1.325431641E0,-2.567100749E0,3.630298655E-2,2.889306699E0
7.280250000E-1,-7.654326886E-1,-3.304709754E0,8.958054978E-2,3.393378617E0
7.380930000E-1,-5.169663692E-1,-3.699876575E0,2.102629513E-1,3.741731071E0
7.481610000E-1,-3.177803832E-1,-3.919902622E0,3.408493666E-1,3.947505444E0
7.582280000E-1,-1.641500545E-1,-4.124624752E0,4.660295194E-1,4.154113395E0
7.682960000E-1,-7.479582846E-2,-4.115852174E0,5.964492891E-1,4.159517435E0
7.783630000E-1,-7.098227441E-2,-3.799587974E0,7.883450031E-1,3.881158989E0
7.884310000E-1,-1.053656566E-1,-3.519955995E0,1.015829759E0,3.665119674E0
7.984990000E-1,-2.562653357E-1,-3.181522954E0,1.006829724E0,3.346859173E0
8.085660000E-1,-5.733013684E-1,-2.785530799E0,6.057504916E-1,2.907712150E0
8.186340000E-1,-8.760532379E-1,-2.391542631E0,1.631888087E-1,2.552170844E0
8.287020000E-1,-1.176142285E0,-1.957457620E0,1.709609643E-1,2.290017175E0
8.387690000E-1,-1.557949095E0,-1.541342711E0,2.082661637E-1,2.201435334E0
8.488370000E-1,-1.924401117E0,-1.403282932E0,2.211322673E-1,2.391949441E0
8.589040000E-1,-2.194919626E0,-1.248239332E0,2.136596719E-1,2.534052889E0
8.689720000E-1,-2.390203764E0,-9.893815597E-1,1.230792848E-1,2.589806637E0
8.790400000E-1,-2.688238685E0,-8.437593582E-1,1.383205640E-1,2.820937727E0
8.891070000E-1,-2.749249703E0,-8.502658474E-1,7.377665877E-2,2.878674857E0
8.991750000E-1,-2.714017305E0,-8.488414657E-1,-5.894461155E-2,2.844274289E0
9.092420000E-1,-2.549944434E0,-7.122440761E-1,-3.414540052E-2,2.647767767E0
9.193100000E-1,-2.239111712E0,-5.036181991E-1,1.002760939E-1,2.297239179E0
9.293780000E-1,-1.924422167E0,-2.478166938E-1,2.431319046E-1,1.955486362E0
9.394450000E-1,-1.653538792E0,7.705694675E-2,3.950367200E-1,1.701817358E0
9.495130000E-1,-1.348474934E0,3.807433476E-1,4.316832671E-1,1.466185727E0
9.595800000E-1,-1.202475806E0,6.180481363E-1,2.969732125E-1,1.384241544E0
9.696480000E-1,-1.237362633E0,8.564610455E-1,2.529202898E-1,1.525962150E0
9.797160000E-1,-1.318612034E0,1.052521987E0,2.623307987E-1,1.707441852E0
9.897830000E-1,-1.368073046E0,1.155211373E0,8.067768887E-2,1.792385580E0
9.998510000E-1,-1.433388784E0,1.211794367E0,1.377137692E-1,1.882023931E0
1.009919000E0,-1.377628566E0,1.376666991E0,4.358223648E-1,1.995748883E0
1.019986000E0,-1.170196837E0,1.536828952E0,4.039724350E-1,1.973422812E0
1.030054000E0,-9.604823542E-1,1.580330190E0,3.045124662E-1,1.874219226E0
1.040121000E0,-8.273354065E-1,1.611713951E0,2.174474251E-1,1.824661371E0
1.050189000E0,-5.780171478E-1,1.608823380E0,3.839983463E-1,1.752104797E0
1.060257000E0,-8.670309842E-2,1.543637450E0,6.474282753E-1,1.676155535E0
1.070324000E0,7.082527667E-1,1.470194375E0,7.487114060E-1,1.795456001E0
1.080392000E0,1.603168538E0,1.433201088E0,7.201196909E-1,2.267771393E0
1.090459000E0,2.312573206E0,1.510751540E0,5.524671543E-1,2.817017040E0
1.100527000E0,2.736933128E0,1.539470432E0,4.257556522E-1,3.168917801E0
1.110595000E0,3.034010274E0,1.540428206E0,4.346492672E-1,3.430314474E0
1.120662000E0,3.031500649E0,1.623130639E0,1.257163425E-1,3.440981526E0
1.130730000E0,3.040142834E0,1.664536235E0,-2.907293364E-1,3.478170910E0
1.140798000E0,3.328849692E0,1.638550917E0,-7.024944288E-1,3.776186939E0
1.150865000E0,4.072283986E0,1.370467920E0,-1.416498663E0,4.524173697E0
1.160933000E0,4.754012028E0,9.563135818E-1,-2.592957721E0,5.498963154E0
1.171000000E0,5.474935126E0,4.264228195E-2,-4.288844973E0,6.954920862E0
1.181068000E0,5.649590873E0,-1.305496729E0,-6.225240483E0,8.507397829E0
1.191136000E0,4.107172567E0,-2.610990534E0,-6.077336918E0,7.785895072E0
1.201203000E0,2.030088955E0,-3.672462781E0,-4.559185726E0,6.196322985E0
1.211271000E0,1.044348384E0,-4.349155786E0,-3.933902026E0,5.956626961E0
1.221338000E0,8.941720051E-1,-4.099170360E0,-3.747938349E0,5.625813993E0
1.231406000E0,6.164772087E-1,-2.832165852E0,-3.012154552E0,4.180225186E0
1.241474000E0,3.105830455E-1,-1.199064175E0,-1.790451931E0,2.177139142E0
1.251541000E0,-3.263933319E-1,4.675872177E-2,-7.364439476E-1,8.068882655E-1
1.261609000E0,-1.025091748E0,6.268653721E-1,1.001019565E-1,1.205733672E0
1.271676000E0,-1.243798664E0,1.177974218E0,8.274242842E-1,1.902442987E0
1.281744000E0,-1.144141644E0,1.512002552E0,1.292971408E0,2.294991695E0
1.291812000E0,-7.009624583E-1,1.490424864E0,1.175844589E0,2.023690970E0
1.301879000E0,-2.226719123E-1,1.116485775E0,8.438730866E-1,1.417125631E0
1.311947000E0,1.024935043E-1,6.876635510E-1,7.873591626E-1,1.050390655E0
1.322014000E0,3.646732986E-1,2.165545188E-1,9.141232896E-1,1.007722116E0
1.332082000E0,5.261921060E-1,-3.065519750E-1,1.106183859E0,1.262733137E0
1.342150000E0,7.384717619E-1,-9.069642511E-1,1.324141161E0,1.766712911E0
1.352217000E0,8.407068193E-1,-1.569484482E0,1.430020788E0,2.283643788E0
1.362285000E0,6.937785691E-1,-2.160821587E0,1.565759221E0,2.757187077E0
1.372352000E0,4.188945293E-1,-2.624858668E0,1.760165693E0,3.188030571E0
1.382420000E0,2.642473698E-2,-2.949612148E0,1.953733090E0,3.538076183E0
1.392487625E0,-3.747182304E-1,-3.275448533E0,2.035353203E0,3.874485709E0
1.402554625E0,-7.850015652E-1,-3.270042490E0,2.215205956E0,4.026976877E0
1.412622625E0,-1.249851117E0,-3.093423833E0,2.275872572E0,4.038687260E0
1.422690625E0,-1.683053198E0,-2.835021632E0,2.415234525E0,4.086976087E0
1.432757625E0,-2.123307606E0,-2.428592489E0,2.473692648E0,4.065175517E0
1.442825625E0,-2.417279297E0,-1.920216557E0,2.196111288E0,3.788584909E0
1.452892625E0,-2.578166020E0,-1.315872613E0,1.955484331E0,3.493190480E0
1.462960625E0,-2.547652910E0,-6.612087008E-1,1.761471376E0,3.167098626E0
1.473028625E0,-2.428843335E0,-1.517311440E-1,1.548476021E0,2.884454935E0
1.483095625E0,-2.295856601E0,2.014801410E-1,1.440191435E0,2.717665018E0
1.493163625E0,-2.226570604E0,4.495430025E-1,1.236422401E0,2.586202993E0
1.503230625E0,-2.239717484E0,5.671892738E-1,1.027914199E0,2.528763666E0
1.513298625E0,-2.258940205E0,5.443953654E-1,9.477272379E-1,2.509454937E0
1.523366625E0,-2.346954249E0,5.076663727E-1,9.247120124E-1,2.573132663E0
1.533433625E0,-2.415767791E0,2.975460935E-1,8.656253135E-1,2.583365031E0
1.543501625E0,-2.329017330E0,2.413218990E-1,8.478076780E-1,2.490248149E0
1.553568625E0,-2.157879853E0,1.750434172E-1,6.544747549E-1,2.261730060E0
1.563636625E0,-1.982099687E0,1.867188451E-1,4.936178523E-1,2.051156181E0
1.573704625E0,-1.788553925E0,2.750714796E-1,4.283202044E-1,1.859582657E0
1.583771625E0,-1.601424898E0,2.092847121E-1,3.831160015E-1,1.659861339E0
1.593839625E0,-1.532501428E0,8.896684796E-2,2.320830059E-1,1.552526408E0
1.603906625E0,-1.473059803E0,1.207391560E-1,8.107398391E-2,1.480221645E0
1.613974625E0,-1.346441857E0,2.272713321E-1,4.745951056E-2,1.366312679E0
1.624042625E0,-1.126020538E0,3.136089796E-1,5.235889256E-2,1.170048844E0
1.634109625E0,-8.410991675E-1,3.122179635E-1,-8.786208965E-2,9.014696961E-1
1.644177625E0,-4.840442061E-1,3.850724798E-1,-2.040485305E-1,6.513182103E-1
1.654245625E0,-1.724700576E-1,4.724825066E-1,-3.077565014E-1,5.896606685E-1
1.664312625E0,8.307256222E-2,6.139822018E-1,-4.081274664E-1,7.419186098E-1
1.674380625E0,3.058158106E-1,7.983966592E-1,-5.148052382E-1,9.979904653E-1
1.684447625E0,5.937625301E-1,8.527153192E-1,-7.140807597E-1,1.260788915E0
1.694515625E0,1.068043640E0,8.872532871E-1,-7.995003211E-1,1.602228566E0
1.704583625E0,1.664058518E0,9.987656099E-1,-9.210909048E-1,2.148262542E0
1.714650625E0,2.215098367E0,1.060915884E0,-1.146053098E0,2.710284301E0
1.724718625E0,2.591195371E0,9.310875240E-1,-1.222815346E0,3.012722157E0
1.734785625E0,2.627259827E0,9.029269680E-1,-1.161510725E0,3.011125782E0
1.744853625E0,2.567094902E0,9.011144042E-1,-1.132524980E0,2.946963901E0
1.754921625E0,2.354357994E0,8.950140041E-1,-1.334324087E0,2.850346014E0
1.764988625E0,2.383601673E0,8.306973363E-1,-1.420744180E0,2.896571944E0
1.775056625E0,2.565686892E0,7.554381160E-1,-1.451989946E0,3.043305897E0
1.785123625E0,3.017010080E0,6.925752121E-1,-1.497902284E0,3.438854678E0
1.795191625E0,3.768052186E0,6.530670378E-1,-1.448968105E0,4.089525938E0
1.805259625E0,4.386742566E0,7.049686781E-1,-1.278370326E0,4.623280422E0
1.815326625E0,4.602830513E0,7.492885993E-1,-1.087462901E0,4.788533982E0
1.825394625E0,4.302021673E0,7.242133266E-1,-9.961725891E-1,4.474844718E0
1.835461625E0,3.589363030E0,8.030071887E-1,-8.652306265E-1,3.778487997E0
1.845529625E0,2.578817984E0,7.953733563E-1,-5.631751603E-1,2.756825572E0
1.855597625E0,1.409597633E0,6.532436237E-1,-3.431613922E-1,1.591053883E0
1.865664625E0,2.451597190E-1,6.012984216E-1,-4.057809788E-1,7.657161892E-1
1.875732625E0,-7.440254474E-1,4.337362976E-1,-3.840627388E-1,9.429767916E-1
1.885799625E0,-1.559309158E0,2.185204623E-1,-3.097265015E-1,1.604720146E0
1.895867625E0,-2.046806145E0,-1.298911449E-1,-2.190402798E-1,2.062587149E0
1.905935625E0,-2.098990790E0,-5.463965019E-1,-2.504603662E-2,2.169087084E0
1.916002625E0,-1.794753728E0,-9.530177256E-1,-4.401966669E-2,2.032565241E0
1.926070625E0,-1.256239200E0,-1.419895164E0,-1.305256408E-1,1.900335799E0
1.936138625E0,-6.352146113E-1,-1.995121728E0,-1.996204340E-1,2.103296610E0
1.946205625E0,-1.557148612E-1,-2.472990690E0,-7.938888945E-2,2.479159670E0
1.956273625E0,6.014913797E-2,-2.820075564E0,7.134772539E-2,2.821619146E0
1.966340625E0,2.828146183E-1,-3.014445491E0,1.914063386E-1,3.033727429E0
1.976408625E0,4.059879702E-1,-2.978902606E0,3.560416023E-1,3.027449849E0
1.986476625E0,5.338437724E-1,-2.851949029E0,5.595199927E-1,2.954939096E0
1.996543625E0,4.648448735E-1,-2.767835955E0,7.167470169E-1,2.896674458E0
2.006611625E0,2.292155313E-1,-2.523042564E0,7.828129524E-1,2.651618309E0
2.016678625E0,-1.087465167E-1,-2.303445995E0,5.783299738E-1,2.377426090E0
2.026746625E0,-5.487132418E-1,-2.104839760E0,2.610197067E-1,2.190791621E0
2.036814625E0,-8.633928466E-1,-1.775144506E0,3.331696701E-1,2.001895914E0
2.046881625E0,-1.177405284E0,-1.555607870E0,4.250393683E-1,1.996711675E0
2.056949625E0,-1.565669174E0,-1.435973253E0,4.746395445E-1,2.176837579E0
2.067016625E0,-1.883750689E0,-1.204317971E0,6.483638299E-1,2.327933438E0
2.077084625E0,-2.132829212E0,-1.017946451E0,7.833462185E-1,2.489740292E0
2.087152625E0,-2.383267797E0,-9.399019092E-1,6.958935070E-1,2.654740809E0
2.097219625E0,-2.480107044E0,-7.389988153E-1,7.490265709E-1,2.694084446E0
2.107287625E0,-2.295470685E0,-4.777336717E-1,8.017257714E-1,2.477938526E0
2.117354625E0,-2.005433001E0,-1.703678739E-1,9.213504481E-1,2.213520585E0
2.127422625E0,-1.787071071E0,1.497980636E-1,1.095423812E0,2.101431846E0
2.137490625E0,-1.753877597E0,4.731994118E-1,1.123508574E0,2.135948460E0
2.147557625E0,-1.796371068E0,7.255645450E-1,1.131273676E0,2.243473435E0
2.157625625E0,-1.703946469E0,9.674522352E-1,1.175167555E0,2.284823008E0
2.167692625E0,-1.626723461E0,1.122684920E0,1.111942781E0,2.267833195E0
2.177760625E0,-1.642785178E0,1.059583596E0,1.077379305E0,2.232085730E0
2.187828625E0,-1.748816832E0,8.087100513E-1,9.929420024E-1,2.167557630E0
2.197895625E0,-1.844371446E0,4.619832462E-1,7.929537785E-1,2.060075301E0
2.207963625E0,-1.951014134E0,1.839300521E-1,5.874311650E-1,2.045815678E0
2.218030625E0,-1.977209076E0,5.301502325E-2,3.441086411E-1,2.007629717E0
2.228098625E0,-1.924553145E0,-4.922332317E-3,1.989134691E-1,1.934811516E0
2.238166625E0,-1.718079189E0,-1.134894857E-1,7.498995602E-2,1.723455673E0
2.248233625E0,-1.471361772E0,-9.604928792E-2,-1.256087172E-1,1.479833936E0
2.258301625E0,-1.215903937E0,-1.514450781E-2,-2.738567205E-1,1.246454669E0
2.268368625E0,-1.000694826E0,2.123686798E-2,-3.834411432E-1,1.071852718E0
2.278436625E0,-6.707107186E-1,-1.266053020E-1,-4.157452555E-1,7.992032833E-1
2.288504625E0,-8.634232521E-2,-3.238590755E-1,-5.741211845E-1,6.647968355E-1
2.298571625E0,7.890215260E-1,-5.319292844E-1,-8.091313431E-1,1.249078565E0
2.308639625E0,1.714656814E0,-4.386077956E-1,-1.271591064E0,2.179304619E0
2.318706625E0,2.455851039E0,3.144782047E-1,-2.235476498E0,3.335784172E0
2.328774625E0,2.959142525E0,1.085806677E0,-2.725079652E0,4.166720501E0
2.338842625E0,2.859636948E0,1.478029937E0,-2.402272418E0,4.016591682E0
2.348909625E0,2.638754869E0,1.606326326E0,-1.982481510E0,3.670632706E0
2.358977625E0,2.735423961E0,1.717270811E0,-2.039004205E0,3.819568226E0
2.369045625E0,3.289980910E0,1.857022774E0,-2.842891107E0,4.728058568E0
2.379112625E0,3.975776861E0,1.983584295E0,-4.031765120E0,5.999711517E0
2.389180625E0,4.857981369E0,2.161642829E0,-5.293927549E0,7.503222748E0
2.399248292E0,5.271314027E0,2.137761046E0,-6.033877487E0,8.292433382E0
2.409316292E0,4.816187811E0,1.482781676E0,-5.200069213E0,7.241203377E0
2.419384292E0,3.885164314E0,-4.126479489E-1,-3.124005940E0,5.002418734E0
2.429451292E0,3.062342958E0,-2.660356237E0,-1.080158486E0,4.197878280E0
2.439519292E0,2.472295164E0,-4.010721283E0,-1.550273017E-1,4.714038826E0
2.449586292E0,1.447349596E0,-4.526012717E0,-2.981705761E-1,4.761146675E0
2.459654292E0,2.400007206E-1,-4.521462999E0,-3.602797373E-1,4.542139307E0
2.469722292E0,-8.817747384E-1,-4.269060626E0,-2.513566347E-1,4.366415633E0
2.479789292E0,-1.646390571E0,-3.996769242E0,-2.090788901E-2,4.322638480E0
2.489857292E0,-2.137449097E0,-3.607350819E0,2.093016325E-1,4.198270566E0
2.499924292E0,-2.362485623E0,-3.125852198E0,3.379964735E-1,3.932751187E0
2.509992292E0,-2.198830243E0,-2.518538454E0,5.190087650E-1,3.383380038E0
2.520060292E0,-1.717362320E0,-1.824083654E0,6.192411876E-1,2.580711949E0
2.530127292E0,-1.071008179E0,-1.427169685E0,7.045672667E-1,1.918407377E0
2.540195292E0,-3.735645747E-1,-1.076627060E0,9.601911628E-1,1.490182334E0
2.550262292E0,2.486820817E-1,-6.988024968E-1,1.215096509E0,1.423596584E0
2.560330292E0,7.704624635E-1,-4.839576674E-1,1.637654246E0,1.873429705E0
2.570398292E0,1.136898113E0,-2.469027740E-1,2.171050122E0,2.463119350E0
2.580465292E0,1.364789250E0,-7.573257068E-2,2.526834483E0,2.872851828E0
2.590533292E0,1.460891747E0,-2.170769675E-3,2.772629210E0,3.133956309E0
2.600600292E0,1.278044052E0,-4.290970070E-3,3.008735685E0,3.268930319E0
2.610668292E0,7.954312438E-1,1.748084505E-2,3.058503091E0,3.160293911E0
2.620736292E0,1.639635283E-1,-8.542489707E-3,2.616720221E0,2.621866077E0
2.630803292E0,-3.483765239E-1,-1.084871836E-1,2.146214658E0,2.177010112E0
2.640871292E0,-7.641895705E-1,-2.356310964E-1,1.830035827E0,1.997132655E0
2.650938292E0,-1.169217428E0,-4.550104415E-1,1.509234188E0,1.962623685E0
2.661006292E0,-1.647596852E0,-6.695798671E-1,1.165792056E0,2.126495639E0
2.671074292E0,-2.109732710E0,-9.198482984E-1,8.055698041E-1,2.438449448E0
2.681141292E0,-2.472284639E0,-1.166699325E0,5.385993129E-1,2.786300032E0
2.691209292E0,-2.885956435E0,-1.282998105E0,3.304401898E-1,3.175534507E0
2.701276292E0,-3.210310843E0,-1.411538616E0,1.537022495E-1,3.510293628E0
2.711344292E0,-3.400817807E0,-1.652712581E0,1.539096795E-2,3.781171447E0
2.721412292E0,-3.210324292E0,-1.855718260E0,1.799234303E-1,3.712444580E0
2.731479292E0,-3.008339244E0,-2.020979578E0,2.220906260E-1,3.630948596E0
2.741547292E0,-2.795032232E0,-2.134321129E0,1.965260144E-1,3.522237120E0
2.751614292E0,-2.521099534E0,-2.137876529E0,2.026626673E-1,3.311726297E0
2.761682292E0,-2.108617061E0,-2.002789182E0,2.718855145E-1,2.920847848E0
2.771750292E0,-1.737003118E0,-1.714798901E0,2.568331003E-1,2.454318305E0
2.781817292E0,-1.377974136E0,-1.304410024E0,1.091721940E-1,1.900583279E0
2.791885292E0,-9.316473949E-1,-6.988220850E-1,1.223600042E-1,1.171021411E0
2.801952292E0,-4.193395025E-1,2.000698291E-1,1.556563159E-1,4.900024934E-1
2.812020292E0,-4.595268309E-2,9.960237774E-1,3.708304167E-2,9.977726025E-1
2.822088292E0,6.370833814E-2,1.628352495E0,-8.800417699E-2,1.631972836E0
2.832155292E0,-7.387489200E-2,2.089117767E0,-2.665231061E-1,2.107345512E0
2.842223292E0,-1.610445982E-1,2.336531295E0,-5.103098989E-1,2.397025250E0
2.852290292E0,-2.991909152E-1,2.519490088E0,-8.463962332E-1,2.674646162E0
2.862358292E0,-2.653682810E-1,2.428869355E0,-1.254627122E0,2.746618991E0
2.872426292E0,-7.728498816E-2,2.208407398E0,-1.547942171E0,2.697992062E0
2.882493292E0,3.117068803E-1,2.086059673E0,-1.759982675E0,2.747061185E0
2.892561292E0,5.733803058E-1,1.920319176E0,-2.033991387E0,2.855435461E0
2.902628292E0,9.219345850E-1,1.629311439E0,-2.198662428E0,2.887686897E0
2.912696292E0,1.266801610E0,1.326887306E0,-2.152197529E0,2.827962243E0
2.922764292E0,1.396582316E0,9.092124324E-1,-2.080729205E0,2.665810090E0
2.932831292E0,1.459177929E0,4.946543444E-1,-2.075089127E0,2.584546001E0
2.942899292E0,1.666417869E0,1.680229577E-1,-1.900614059E0,2.533281277E0
2.952966292E0,1.866980290E0,-1.247577281E-1,-1.573331219E0,2.444698554E0
2.963034292E0,2.202151462E0,-4.265675381E-1,-1.326058463E0,2.605736359E0
2.973102292E0,2.909890258E0,-7.091944608E-1,-1.162513595E0,3.212764535E0
2.983169292E0,3.869942842E0,-9.758672556E-1,-1.076467724E0,4.133709867E0
2.993237292E0,4.575464959E0,-1.020783885E0,-9.580211149E-1,4.784838951E0
3.003304292E0,4.824078044E0,-9.519921970E-1,-6.662644958E-1,4.962048619E0
3.013372292E0,4.667290218E0,-7.125658923E-1,-3.156164018E-1,4.731908901E0
3.023440292E0,4.230616645E0,-5.327880576E-1,-1.340661299E-1,4.266140415E0
3.033507292E0,3.454419233E0,-5.054963247E-1,-9.352351002E-2,3.492461226E0
3.043575292E0,2.223192083E0,-4.202279869E-1,-1.967821956E-2,2.262644875E0
3.053642292E0,8.995210379E-1,-3.142588976E-1,1.008574533E-1,9.581591613E-1
3.063710292E0,-3.174985474E-1,-3.551238453E-1,1.167354944E-1,4.904543289E-1
3.073778292E0,-1.331868256E0,-6.231552406E-1,-4.179370478E-2,1.471034405E0
3.083845292E0,-1.926611364E0,-1.026316959E0,-2.155646948E-1,2.193541882E0
3.093913292E0,-2.127752075E0,-1.517477592E0,-2.745333530E-1,2.627819571E0
3.103980292E0,-1.858245134E0,-2.022370923E0,-2.447802347E-1,2.757349541E0
3.114048292E0,-1.036765714E0,-2.494105571E0,-2.261031315E-1,2.710455381E0
3.124116292E0,-1.129752231E-1,-2.875361280E0,-1.793107152E-1,2.883161152E0
3.134183292E0,4.240465111E-1,-3.128236400E0,-6.764651097E-2,3.157570976E0
3.144251292E0,5.765617758E-1,-3.161736853E0,-5.471363939E-2,3.214342389E0
3.154318292E0,4.001694059E-1,-2.995330358E0,-1.822062564E-1,3.027431028E0
3.164386292E0,3.325317389E-1,-2.792997108E0,-3.468276695E-1,2.834025342E0
3.174454292E0,2.521997666E-1,-2.590272095E0,-4.099038506E-1,2.634603465E0
3.184521292E0,-2.286436737E-2,-2.390503434E0,-4.051547785E-1,2.424702011E0
3.194589292E0,-4.028760821E-1,-2.152798623E0,-4.071766361E-1,2.227699230E0
3.204657292E0,-8.033156294E-1,-1.793254209E0,-3.528139758E-1,1.996385324E0
3.214724292E0,-1.278559776E0,-1.517625234E0,-1.997502422E-1,1.994442682E0
3.224792292E0,-1.700293128E0,-1.421845503E0,-7.343459666E-2,2.217664086E0
3.234859292E0,-2.018134323E0,-1.323073167E0,2.428578895E-2,2.413292056E0
3.244927292E0,-2.185665822E0,-9.800161475E-1,2.658541846E-1,2.410030121E0
3.254995292E0,-2.439383526E0,-8.179248246E-1,2.592029403E-1,2.585880734E0
3.265062292E0,-2.621101540E0,-7.379224160E-1,3.582425308E-1,2.746459627E0
3.275130292E0,-2.747862743E0,-3.554879075E-1,5.379596275E-1,2.822502767E0
3.285197292E0,-2.800300573E0,1.217957479E-1,2.995101732E-1,2.818904725E0
3.295265292E0,-2.924674943E0,5.178391392E-1,2.283354888E-1,2.978929001E0
3.305333292E0,-2.929383121E0,5.923095701E-1,1.866009871E-1,2.994484267E0
3.315400292E0,-3.015574588E0,6.080512248E-1,1.972557469E-1,3.082584341E0
3.325468292E0,-2.834295700E0,6.355026598E-1,1.153105645E-1,2.906955843E0
3.335535292E0,-2.474494886E0,9.427962810E-1,1.849328130E-1,2.654466032E0
3.345603292E0,-2.011956739E0,1.205946786E0,2.829332803E-1,2.362695243E0
3.355671292E0,-1.522688631E0,1.202331087E0,4.308099854E-1,1.987404829E0
3.365738292E0,-1.047325786E0,1.125813912E0,3.846508956E-1,1.585025103E0
3.375806292E0,-8.545319760E-1,9.597163689E-1,1.322488153E-1,1.291808870E0
3.385873292E0,-8.075110066E-1,4.781795219E-1,4.858330887E-2,9.397286943E-1
3.395941375E0,-7.648503059E-1,-1.186706304E-1,2.150897912E-1,8.033320156E-1
3.406009375E0,-6.239166212E-1,-5.656774031E-1,4.418138240E-1,9.510322443E-1
3.416076375E0,-5.139018434E-1,-7.026594664E-1,5.125931635E-1,1.010236201E0
3.426144375E0,-4.494245964E-1,-5.844930853E-1,3.408522537E-1,8.122775963E-1
3.436211375E0,-2.367642868E-1,-4.338874481E-1,8.222946681E-2,5.010761722E-1
3.446279375E0,1.188487512E-1,-2.974805316E-1,-2.898056225E-1,4.319803134E-1
3.456347375E0,5.492675579E-1,-1.796861064E-1,-7.757980478E-1,9.673905922E-1
3.466414375E0,1.050688519E0,-1.429417647E-2,-1.331135015E0,1.695898322E0
3.476482375E0,1.524746851E0,1.519101510E-1,-1.987622967E0,2.509696139E0
3.486549375E0,2.213875129E0,2.489268608E-1,-2.763793482E0,3.549896066E0
3.496617375E0,3.262123021E0,6.773400725E-1,-3.383890702E0,4.748784314E0
3.506684375E0,3.401349903E0,1.180632947E0,-3.501122698E0,5.022044949E0
3.516752375E0,3.026358608E0,1.534545322E0,-3.766975129E0,5.069889288E0
3.526820375E0,3.346986001E0,1.963824214E0,-4.532955701E0,5.967127301E0
3.536887375E0,4.308641306E0,2.100045628E0,-5.874578283E0,7.581902897E0
3.546955375E0,4.449280291E0,1.943284700E0,-6.701354696E0,8.275300918E0
3.557022375E0,3.213288245E0,1.393417218E0,-5.827211158E0,6.798766268E0
3.567090375E0,1.434105068E0,4.215985742E-1,-3.795348158E0,4.079101659E0
3.577158375E0,3.938561672E-1,-1.072548847E0,-1.928949666E0,2.241947931E0
3.587225375E0,1.335318698E0,-2.713819669E0,-1.142262933E0,3.233057041E0
3.597293375E0,2.332809834E0,-3.942887734E0,-7.423695159E-1,4.641064308E0
3.607360375E0,2.300575304E0,-4.709114183E0,-3.530408478E-1,5.252907857E0
3.617428375E0,1.293273125E0,-4.612112091E0,-4.556887186E-1,4.811630235E0
3.627496375E0,4.673445582E-2,-3.743499727E0,-8.120297348E-1,3.830844112E0
3.637563375E0,-5.774213165E-1,-2.716256204E0,-6.050243405E-1,2.842097393E0
3.647631375E0,-8.765256929E-1,-1.757040356E0,1.933515611E-1,1.973036475E0
3.657699375E0,-1.261568352E0,-1.092915576E0,1.029335584E0,1.961007626E0
3.667766375E0,-1.430966282E0,-8.081115156E-1,1.623396395E0,2.310005320E0
3.677834375E0,-9.972192407E-1,-7.875777753E-1,1.853989531E0,2.247665933E0
3.687901375E0,-3.614158148E-1,-7.930248222E-1,1.973554566E0,2.157412196E0
3.697969375E0,1.970014662E-1,-8.700531176E-1,2.058091271E0,2.243109824E0
3.708036375E0,6.145107901E-1,-9.799413031E-1,2.352673995E0,2.621637541E0
3.718104375E0,8.892732078E-1,-1.034964772E0,2.746051860E0,3.066391974E0
3.728172375E0,1.095280555E0,-1.130047807E0,3.083600510E0,3.461970487E0
3.738239375E0,1.201089431E0,-1.161331581E0,3.482433243E0,3.862466589E0
3.748307375E0,1.199210136E0,-1.040688319E0,3.804687915E0,4.122716005E0
3.758375375E0,1.027755740E0,-8.170843604E-1,3.820595266E0,4.039908031E0
3.768442375E0,6.466687220E-1,-5.896057079E-1,3.438200811E0,3.547821887E0
3.778510375E0,9.881794453E-2,-3.240991768E-1,3.021903614E0,3.040839805E0
3.788577375E0,-3.607474780E-1,-1.308989856E-1,2.770482112E0,2.796934826E0
3.798645375E0,-7.117879933E-1,-3.171675950E-2,2.547542982E0,2.645302128E0
3.808713375E0,-9.343400377E-1,4.523961514E-2,2.234854354E0,2.422728196E0
3.818780375E0,-1.142230189E0,1.242490203E-1,1.791854094E0,2.128583735E0
3.828848375E0,-1.122573604E0,2.664415740E-1,1.387550706E0,1.804566311E0
3.838915375E0,-1.130340461E0,4.366645101E-1,9.147156125E-1,1.518239145E0
3.848983375E0,-1.154754340E0,4.780864781E-1,5.655333424E-1,1.371806192E0
3.859050375E0,-1.096448829E0,3.948987257E-1,3.963342172E-1,1.230945105E0
3.869118375E0,-1.044216821E0,2.292835783E-1,1.665252665E-1,1.081984470E0
3.879186375E0,-1.063309734E0,5.545557797E-2,2.477348328E-2,1.065043022E0
3.889253375E0,-1.112584805E0,-6.059352636E-2,-2.560846567E-2,1.114527845E0
3.899321375E0,-1.026766976E0,-1.707518533E-1,-1.842650610E-1,1.057052615E0
3.909388375E0,-9.311076969E-1,-3.139691681E-1,-3.698691344E-1,1.049924454E0
3.919456375E0,-8.484859550E-1,-4.448289773E-1,-3.875476062E-1,1.033438136E0
3.929524375E0,-8.158766180E-1,-5.756148192E-1,-4.515038663E-1,1.095829739E0
3.939591375E0,-8.634232521E-1,-6.781930351E-1,-5.574099518E-1,1.231320981E0
3.949659375E0,-8.860549003E-1,-6.655808832E-1,-6.306123409E-1,1.275054165E0
3.959726375E0,-8.419610471E-1,-6.326555043E-1,-7.397020892E-1,1.286977301E0
3.969794375E0,-6.631859368E-1,-5.892753037E-1,-7.973731772E-1,1.192839031E0
3.979862375E0,-4.620955127E-1,-5.087391905E-1,-7.370423370E-1,1.007759512E0
3.989929375E0,-2.214545220E-1,-4.203990910E-1,-6.442986993E-1,8.005612500E-1
3.999997375E0,1.180470979E-1,-3.870450380E-1,-5.611181098E-1,6.918038103E-1
4.010064375E0,5.178995848E-1,-3.727916459E-1,-5.195495228E-1,8.228762348E-1
4.020132375E0,1.027977934E0,-3.439162678E-1,-4.904428142E-1,1.189769383E0
4.030200375E0,1.580432224E0,-2.982699788E-1,-4.768685031E-1,1.677538245E0
4.040267375E0,2.134401528E0,-3.408640943E-1,-5.156155162E-1,2.222097562E0
4.050335375E0,2.433094845E0,-2.569379847E-1,-4.909499140E-1,2.495395655E0
4.060402375E0,2.463326120E0,-5.047433496E-2,-5.165137947E-1,2.517401385E0
4.070470375E0,2.268079988E0,1.655498779E-1,-6.193136930E-1,2.356935095E0
4.080538375E0,2.098255211E0,3.835677720E-1,-6.526745434E-1,2.230646369E0
4.090605375E0,1.971053127E0,5.393778697E-1,-6.973436165E-1,2.159228343E0
4.100673375E0,1.890547493E0,6.653840514E-1,-6.928855531E-1,2.120612210E0
4.110740375E0,1.804448411E0,7.261447350E-1,-7.560194023E-1,2.086836262E0
4.120808375E0,1.806004940E0,7.090658221E-1,-7.610390908E-1,2.084132597E0
4.130876375E0,1.934718529E0,7.146727172E-1,-6.529316747E-1,2.163379914E0
4.140943375E0,2.029819399E0,7.787831245E-1,-5.298631342E-1,2.237727617E0
4.151011375E0,1.955741608E0,8.868022475E-1,-4.434576590E-1,2.192714792E0
4.161078375E0,1.734151431E0,9.809652237E-1,-3.608294852E-1,2.024789340E0
4.171146375E0,1.492807020E0,1.060161447E0,-2.957157688E-1,1.854686742E0
4.181214375E0,1.453314925E0,1.123787632E0,-2.147175063E-1,1.849628753E0
4.191281375E0,1.468577912E0,1.211342524E0,-1.486935246E-1,1.909497724E0
4.201349375E0,1.244254746E0,1.233033355E0,-1.344843520E-1,1.756879953E0
4.211416375E0,6.428358722E-1,1.116908237E0,-9.830046594E-2,1.292433731E0
4.221484375E0,-2.580978531E-1,8.511056538E-1,-1.546379502E-1,9.027226769E-1
4.231552375E0,-1.265803490E0,5.807627079E-1,-2.761710119E-1,1.419793727E0
4.241619375E0,-2.008299891E0,3.152821603E-1,-3.891731322E-1,2.069813281E0
4.251687375E0,-2.565671105E0,4.739087887E-2,-4.941933645E-1,2.613262558E0
4.261754375E0,-2.935579416E0,-2.519401503E-1,-6.424967337E-1,3.015609789E0
4.271822375E0,-2.987191619E0,-5.680862367E-1,-7.266264725E-1,3.126343194E0
4.281890375E0,-2.780234098E0,-8.806912494E-1,-7.249448133E-1,3.005139548E0
4.291957375E0,-2.435296322E0,-1.142701328E0,-5.738517375E-1,2.750589086E0
4.302025375E0,-1.885144081E0,-1.441119680E0,-3.559539306E-1,2.399436879E0
4.312092375E0,-1.183870550E0,-1.903978839E0,-3.074103463E-1,2.263003761E0
4.322160375E0,-4.344299966E-1,-2.264571074E0,-9.741885200E-2,2.307921576E0
4.332228375E0,9.136859179E-2,-2.428879880E0,8.211829662E-3,2.430611677E0
4.342295375E0,4.303579956E-1,-2.616312670E0,1.154794393E-1,2.653984833E0
4.352363375E0,5.561807209E-1,-2.619324279E0,4.306579578E-1,2.712132546E0
4.362430375E0,4.811486650E-1,-2.511337023E0,6.774734621E-1,2.645238736E0
4.372498375E0,5.095848441E-1,-2.372446063E0,9.404497933E-1,2.602426339E0
4.382566375E0,5.558895296E-1,-2.104648556E0,1.106228151E0,2.441782021E0
4.392633375E0,5.299337393E-1,-1.937629273E0,1.026117204E0,2.255693570E0
4.402701042E0,4.915017450E-1,-2.062719342E0,7.264615810E-1,2.241457445E0
4.412768042E0,3.209524977E-1,-2.213209278E0,2.790099813E-1,2.253697491E0
4.422836042E0,1.031747049E-1,-2.093564866E0,-1.936306194E-1,2.105030092E0
4.432904042E0,6.346743286E-2,-1.981616999E0,-3.650597996E-1,2.015961980E0
4.442971042E0,1.760046995E-1,-1.742716725E0,-3.505669639E-1,1.786319241E0
4.453039042E0,2.304416925E-1,-1.642342982E0,-3.549802230E-1,1.695996699E0
4.463106042E0,7.342465639E-2,-1.764426705E0,-4.438491301E-1,1.820877489E0
4.473174042E0,5.855869532E-2,-1.315259533E0,-2.949043214E-1,1.349186910E0
4.483242042E0,-5.386572003E-2,-4.058184010E-1,-2.449597442E-1,4.770695617E-1
4.493309042E0,-2.425132692E-1,-3.327051088E-2,-1.830565877E-1,3.056621124E-1
4.503377042E0,-5.246127731E-1,3.115789725E-1,-2.562642393E-1,6.617940602E-1
4.513444042E0,-8.274038190E-1,6.963699089E-1,-3.386988703E-1,1.133245364E0
4.523512042E0,-1.146000473E0,9.937116422E-1,-4.905855594E-1,1.594193873E0
4.533580042E0,-1.416354091E0,1.133815607E0,-7.043889997E-1,1.946216998E0
4.543647042E0,-1.780826830E0,1.257908726E0,-1.018128957E0,2.406296975E0
4.553715042E0,-2.173263878E0,1.421533700E0,-1.158497216E0,2.843580444E0
4.563782042E0,-2.467872330E0,1.563766198E0,-1.248485207E0,3.177180176E0
4.573850042E0,-2.642759042E0,1.700169752E0,-1.157047618E0,3.348658198E0
4.583918042E0,-2.707332768E0,1.798074069E0,-1.018441125E0,3.405868964E0
4.593985042E0,-2.669310079E0,1.850146448E0,-8.074770927E-1,3.346681555E0
4.604053042E0,-2.545363725E0,1.888864371E0,-5.998798871E-1,3.225917077E0
4.614120042E0,-2.333472909E0,1.894499187E0,-5.137440417E-1,3.049287774E0
4.624188042E0,-2.089959766E0,1.855193180E0,-6.039542270E-1,2.859096757E0
4.634256042E0,-1.932086697E0,1.764753419E0,-7.085585761E-1,2.710971946E0
4.644323042E0,-1.793012427E0,1.724435551E0,-7.598100791E-1,2.601131079E0
4.654391042E0,-1.623847800E0,1.679340947E0,-6.469890033E-1,2.423976581E0
4.664458042E0,-1.375755118E0,1.608653518E0,-4.011610937E-1,2.154390519E0
4.674526042E0,-9.837086642E-1,1.476514192E0,-1.112299023E-1,1.777680789E0
4.684594042E0,-5.091293460E-1,1.290922105E0,1.456230786E-1,1.395313103E0
4.694661042E0,-8.757374883E-3,1.096044494E0,2.369636768E-1,1.121401805E0
4.704729042E0,5.157899094E-1,9.076966149E-1,8.814853013E-2,1.047722548E0
4.714796042E0,9.434271955E-1,8.101080474E-1,-2.750196952E-1,1.273564193E0
4.724864042E0,1.060508333E0,8.685593002E-1,-7.410060183E-1,1.558256430E0
4.734931042E0,1.022616037E0,1.017885055E0,-9.558314788E-1,1.730736075E0
4.744999042E0,1.158573157E0,1.133574556E0,-1.067695146E0,1.940942028E0
4.755067042E0,1.353763155E0,1.240902538E0,-1.122724097E0,2.152445861E0
4.765134042E0,1.611559877E0,1.207357719E0,-1.102893776E0,2.295912146E0
4.775202042E0,2.045159569E0,1.002532606E0,-9.354246962E-1,2.462269004E0
4.785269042E0,2.660790685E0,6.621452786E-1,-6.725898676E-1,2.823228749E0
4.795337042E0,3.233450614E0,3.630878261E-1,-4.879863989E-1,3.290162058E0
4.805405042E0,3.069342660E0,4.235401422E-2,-3.275902569E-1,3.087065532E0
4.815472042E0,2.314945421E0,-4.100651606E-1,-5.065982325E-1,2.404946467E0
4.825540042E0,1.674998074E0,-8.656162503E-1,-4.085192299E-1,1.929196206E0
4.835607042E0,1.843551666E0,-1.361274489E0,-4.847616595E-1,2.342380167E0
4.845675042E0,2.204685645E0,-1.914645915E0,-6.868630672E-1,2.999714761E0
4.855743042E0,2.562684932E0,-2.842800475E0,-8.447932921E-1,3.919508172E0
4.865810042E0,2.277372383E0,-3.421962508E0,-1.369750174E0,4.332720614E0
4.875878042E0,1.486155812E0,-3.099751689E0,-1.854653921E0,3.906003175E0
4.885945042E0,5.814629120E-1,-1.962924035E0,-1.572311611E0,2.581343389E0
4.896013042E0,-2.811224341E-2,-7.383703128E-1,-7.062202746E-1,1.022119412E0
4.906081042E0,-4.699301970E-1,1.071610442E-1,1.856724858E-1,5.165192653E-1
4.916148042E0,-6.603471136E-1,3.807499988E-1,5.866018836E-1,9.618371182E-1
4.926216042E0,-4.052927363E-1,7.425393775E-1,4.205411053E-1,9.447125227E-1
4.936283042E0,-5.716471910E-2,8.961644438E-1,-1.145194727E-1,9.052586509E-1
4.946351042E0,2.967801082E-1,8.400897919E-1,-4.525714217E-1,9.993248635E-1
4.956419042E0,3.470398504E-1,7.170262215E-1,-3.120185369E-1,8.555225464E-1
4.966486042E0,2.766300184E-1,6.595211944E-1,5.657999754E-2,7.174215421E-1
4.976554042E0,2.072387713E-1,5.658339623E-1,2.050277929E-1,6.365158106E-1
4.986621042E0,-4.571353197E-3,4.386592877E-1,1.757491761E-1,4.725787139E-1
4.996689042E0,-2.913661712E-1,3.733236694E-1,2.857487512E-1,5.530977822E-1
5.006757042E0,-8.294000584E-1,3.529721430E-1,5.525063306E-1,1.057240292E0
5.016824042E0,-1.434412047E0,2.676058643E-1,6.899932279E-1,1.614076043E0
5.026892042E0,-1.880120738E0,8.862083897E-2,7.653404488E-1,2.031859652E0
5.036959042E0,-2.183680108E0,-8.988003686E-2,7.447956719E-1,2.308951673E0
5.047027042E0,-2.353713046E0,-2.568777584E-1,7.280151131E-1,2.477086452E0
5.057094042E0,-2.328796890E0,-4.046249843E-1,7.769043410E-1,2.488090973E0
5.067162042E0,-2.065921862E0,-5.734267911E-1,8.848965669E-1,2.319459713E0
5.077230042E0,-1.622412894E0,-7.147033419E-1,1.019611007E0,2.045148178E0
5.087297042E0,-1.108150862E0,-8.293389550E-1,1.036274548E0,1.729065173E0
5.097365042E0,-7.245156276E-1,-9.316342387E-1,1.024485392E0,1.562829347E0
5.107432042E0,-5.385759240E-1,-1.053116576E0,1.055453416E0,1.585276146E0
5.117500042E0,-4.952141422E-1,-1.140323850E0,1.184306899E0,1.717020198E0
5.127568042E0,-5.796216238E-1,-1.172648428E0,1.361042208E0,1.887723882E0
5.137635042E0,-6.355432248E-1,-1.103165964E0,1.465050726E0,1.940944091E0
5.147703042E0,-5.578957093E-1,-9.617915457E-1,1.487893020E0,1.857448852E0
5.157770042E0,-4.146126133E-1,-8.283753338E-1,1.542380299E0,1.799179341E0
5.167838042E0,-4.560734653E-1,-6.270020507E-1,1.602390712E0,1.780109707E0
5.177906042E0,-6.569522202E-1,-3.291470781E-1,1.539061419E0,1.705471803E0
5.187973042E0,-8.612469184E-1,-1.817241535E-2,1.340280792E0,1.593244831E0
5.198041042E0,-9.518945485E-1,2.342056183E-1,1.106760906E0,1.478470563E0
5.208108042E0,-1.017806118E0,4.150071542E-1,9.232184874E-1,1.435441607E0
5.218176042E0,-1.089975961E0,5.258063360E-1,7.851733272E-1,1.442573067E0
5.228244042E0,-1.031241850E0,6.552655908E-1,5.842584658E-1,1.354322968E0
5.238311042E0,-1.000144018E0,7.838365075E-1,8.144060433E-2,1.273310763E0
5.248379042E0,-1.107331667E0,9.232167332E-1,-2.641026512E-2,1.441946621E0
5.258446042E0,-1.365228961E0,1.033016041E0,-2.166848020E-1,1.725666410E0
5.268514042E0,-1.449883195E0,1.069011647E0,-4.224858892E-1,1.850254443E0
5.278582042E0,-1.462561712E0,1.172775897E0,-5.660597380E-1,1.958293567E0
5.288649042E0,-1.283159781E0,1.222551636E0,-7.065295923E-1,1.907961108E0
5.298717042E0,-8.530701721E-1,1.264500292E0,-7.861296393E-1,1.716009766E0
5.308784042E0,-2.510741776E-1,1.316412311E0,-7.886212841E-1,1.554960818E0
5.318852042E0,2.610454345E-1,1.400211975E0,-8.144604224E-1,1.640757164E0
5.328920042E0,5.016513419E-1,1.597944928E0,-8.622900617E-1,1.883779767E0
5.338987042E0,7.807459617E-1,1.704325368E0,-7.943549176E-1,2.035998269E0
5.349055042E0,1.237172599E0,1.696654260E0,-8.116135593E-1,2.251210405E0
5.359122042E0,1.704701344E0,1.562335969E0,-1.021147217E0,2.527774118E0
5.369190042E0,1.981802064E0,1.432441535E0,-1.204561069E0,2.725875188E0
5.379258042E0,2.439552510E0,1.314421042E0,-1.350628463E0,3.082744941E0
5.389325042E0,3.547819732E0,1.081300155E0,-1.282753984E0,3.924499033E0
5.399392750E0,4.762811503E0,8.337381808E-1,-9.727780254E-1,4.932118191E0
5.409459750E0,5.453923742E0,7.261549676E-1,-8.018802841E-1,5.560179602E0
5.419527750E0,5.235248401E0,7.308721358E-1,-8.501360393E-1,5.353945385E0
5.429595750E0,4.340611542E0,6.321939397E-1,-1.011804535E0,4.501591514E0
5.439662750E0,2.859279099E0,4.445253606E-1,-1.117095201E0,3.101770696E0
5.449730750E0,1.305549354E0,1.234049016E-1,-1.189102054E0,1.770212298E0
5.459797750E0,3.913775325E-2,-2.896807113E-1,-1.144659122E0,1.181393747E0
5.469865750E0,-9.068715727E-1,-6.361582057E-1,-8.969215120E-1,1.425335578E0
5.479932750E0,-1.523190907E0,-9.034834036E-1,-6.545443368E-1,1.888073380E0
5.490000750E0,-1.989502262E0,-1.160840414E0,-4.000869602E-1,2.337892062E0
5.500068750E0,-2.224963204E0,-1.505888118E0,-2.816231020E-1,2.701383323E0
5.510135750E0,-2.218793807E0,-1.787670996E0,-2.475564927E-1,2.860087020E0
5.520203750E0,-1.766639146E0,-2.071020049E0,-7.802641511E-2,2.723274874E0
5.530270750E0,-1.050364584E0,-2.441005251E0,1.306162727E-1,2.660607638E0
5.540338750E0,-2.378232175E-1,-2.728268431E0,4.238336724E-1,2.771216970E0
5.550406750E0,2.523284054E-1,-3.028758598E0,3.971101427E-1,3.065084784E0
5.560473750E0,5.502563220E-1,-3.191682491E0,2.085695245E-1,3.245476913E0
5.570541750E0,6.722725099E-1,-3.287001462E0,1.839870259E-2,3.355095744E0
5.580608750E0,6.249977714E-1,-3.307483673E0,-2.415362725E-1,3.374671871E0
5.590676750E0,5.404376775E-1,-3.353641009E0,-5.700141368E-1,3.444400821E0
5.600744750E0,2.474740469E-1,-3.184864930E0,-7.090006256E-1,3.272199553E0
5.610811750E0,-1.651107520E-1,-2.813379040E0,-4.503028482E-1,2.853968437E0
5.620879750E0,-4.156575108E-1,-2.411886702E0,-2.396148044E-1,2.459142916E0
5.630946750E0,-5.133948898E-1,-2.096299317E0,4.583171882E-2,2.158737058E0
5.641014750E0,-5.614812219E-1,-1.750213440E0,3.331515437E-1,1.868019860E0
5.651082750E0,-7.095911944E-1,-1.434427103E0,4.523486793E-1,1.663045431E0
5.661149750E0,-9.174333984E-1,-1.229105488E0,4.793266726E-1,1.606903357E0
5.671217750E0,-1.199493726E0,-9.982579254E-1,4.920548550E-1,1.636283003E0
5.681284750E0,-1.624798558E0,-7.218539020E-1,5.103157095E-1,1.849720393E0
5.691352750E0,-1.970964249E0,-4.590805422E-1,3.625974640E-1,2.055950373E0
5.701420750E0,-2.179710433E0,-1.218353628E-1,1.922417595E-1,2.191560704E0
5.711487750E0,-2.325303764E0,2.175966022E-1,1.238773201E-1,2.338745703E0
5.721555750E0,-2.278841203E0,6.858399506E-1,2.970168839E-1,2.398272857E0
5.731622750E0,-2.191850422E0,1.051948156E0,3.182388415E-1,2.451954150E0
5.741690750E0,-2.048709998E0,1.139855927E0,2.698063177E-1,2.359932126E0
5.751757750E0,-2.011017677E0,1.260449487E0,3.056198923E-1,2.392974827E0
5.761825750E0,-1.983815260E0,1.432673669E0,4.067662346E-1,2.480632097E0
5.771893750E0,-1.912086296E0,1.544230358E0,4.990984476E-1,2.507951487E0
5.781960750E0,-1.917029532E0,1.607130465E0,6.220940441E-1,2.577764838E0
5.792028750E0,-1.863778939E0,1.633183611E0,7.434284467E-1,2.587208244E0
5.802095750E0,-1.775685958E0,1.611828118E0,8.306080931E-1,2.537904708E0
5.812163750E0,-1.643173433E0,1.570904917E0,8.411570549E-1,2.423903129E0
5.822231750E0,-1.371155698E0,1.453452335E0,7.139625728E-1,2.121870447E0
5.832298750E0,-1.179169974E0,1.296684829E0,5.137341014E-1,1.826405240E0
5.842366750E0,-1.110286850E0,1.134212341E0,3.743368823E-1,1.630736835E0
5.852433750E0,-9.349124801E-1,9.314120445E-1,3.821950650E-1,1.373922418E0
5.862501750E0,-5.526443249E-1,6.593590073E-1,3.146830400E-1,9.160761245E-1
5.872569750E0,-2.317193091E-2,4.290232225E-1,2.497531454E-1,4.969652880E-1
5.882636750E0,7.376052046E-1,1.960539249E-1,4.374553460E-1,8.796964016E-1
5.892704750E0,1.577357758E0,5.994982101E-2,5.849448558E-1,1.683392991E0
5.902771750E0,2.300285282E0,-7.785056010E-2,2.926892500E-1,2.320137945E0
5.912839750E0,2.931417367E0,-1.789438024E-1,-5.029348058E-1,2.979626165E0
5.922907750E0,3.327159846E0,-3.907219134E-2,-1.365786785E0,3.596789238E0
5.932974750E0,3.089730147E0,1.454016153E-1,-2.356036144E0,3.888249005E0
5.943042750E0,2.893767731E0,3.999641687E-1,-3.185941402E0,4.322509183E0
5.953109750E0,3.740538113E0,8.545791192E-1,-4.505745683E0,5.918080348E0
5.963177750E0,5.236263478E0,1.399216194E0,-5.910150989E0,8.019111290E0
5.973245750E0,5.687665603E0,1.458281550E0,-6.366503366E0,8.660744206E0
5.983312750E0,4.533884824E0,7.001537152E-1,-5.354303559E0,7.050878911E0
5.993380750E0,3.037128595E0,-9.531390553E-1,-3.613284574E0,4.815438668E0
6.003447750E0,2.223825921E0,-2.596451725E0,-1.678786485E0,3.808580752E0
6.013515750E0,1.385762628E0,-3.523719848E0,6.831006031E-2,3.787031277E0
6.023583750E0,3.831563473E-1,-3.670443738E0,1.117872443E0,3.855982990E0
6.033650750E0,-7.028733283E-1,-3.388857619E0,1.137979190E0,3.643265502E0
6.043718750E0,-1.243388189E0,-2.625479058E0,8.251351724E-1,3.019934192E0
6.053785750E0,-1.677780179E0,-1.483491528E0,7.394804066E-1,2.358500523E0
6.063853750E0,-1.851527853E0,-6.652201831E-1,6.200095117E-1,2.062785756E0
6.073920750E0,-1.408825800E0,-1.754123034E-1,4.328377267E-1,1.484219697E0
6.083988750E0,-7.525319767E-1,1.304304043E-1,3.634383301E-1,8.458155154E-1
6.094056750E0,-2.450170469E-1,4.434010872E-1,4.950007188E-1,7.082821395E-1
6.104123750E0,2.196184963E-1,6.260038579E-1,9.526984676E-1,1.160925271E0
6.114191750E0,7.655993342E-1,5.545885972E-1,1.498980510E0,1.772188879E0
6.124258750E0,1.180576229E0,4.060202030E-1,1.946053941E0,2.312085332E0
6.134326750E0,1.406626663E0,2.805152739E-1,2.387888852E0,2.785552110E0
6.144394750E0,1.529153312E0,1.360393459E-1,2.794145209E0,3.188112923E0
6.154461750E0,1.556819998E0,6.602040030E-2,3.166649099E0,3.529265322E0
6.164529750E0,1.273142915E0,1.238092366E-1,3.279301556E0,3.519948906E0
6.174596750E0,6.017147434E-1,2.117198581E-1,3.065789891E0,3.131445926E0
6.184664750E0,-2.341535050E-1,2.246068291E-1,2.722174171E0,2.741442742E0
6.194732750E0,-1.021555352E0,1.874997407E-1,2.453167752E0,2.663975133E0
6.204799750E0,-1.605701551E0,1.455775434E-1,2.220740930E0,2.744296006E0
6.214867750E0,-2.029255142E0,1.025972924E-1,2.009513773E0,2.857717313E0
6.224934750E0,-2.280087830E0,6.487346895E-2,1.790501633E0,2.899811231E0
6.235002750E0,-2.442631069E0,7.177983463E-2,1.512278248E0,2.873775284E0
6.245070750E0,-2.524768077E0,9.816371419E-2,1.195463240E0,2.795214181E0
6.255137750E0,-2.576229422E0,8.501800396E-2,9.351205679E-1,2.742013234E0
6.265205750E0,-2.619907538E0,2.270919688E-2,7.630288251E-1,2.728854009E0
6.275272750E0,-2.615957744E0,-4.093789168E-2,6.854492835E-1,2.704579736E0
6.285340750E0,-2.591070825E0,-5.920583591E-2,5.949154548E-1,2.659149817E0
6.295408750E0,-2.595871389E0,-1.006030995E-1,4.763270509E-1,2.641127924E0
6.305475750E0,-2.594987290E0,-1.271085280E-1,3.240059137E-1,2.618223719E0
6.315543750E0,-2.518062490E0,-1.303280780E-1,2.358393303E-1,2.532438410E0
6.325610750E0,-2.373139835E0,-9.981979184E-2,1.662912317E-1,2.381052171E0
6.335678750E0,-2.155179024E0,-6.055369221E-2,1.074460229E-1,2.158705173E0
6.345745750E0,-1.935580409E0,-2.391277313E-2,4.015516877E-2,1.936144565E0
6.355813750E0,-1.744961178E0,5.230743706E-2,-1.045792061E-1,1.748874607E0
6.365881750E0,-1.608691818E0,1.208539807E-1,-2.179537209E-1,1.627881713E0
6.375948750E0,-1.484477077E0,1.918706075E-1,-3.737856726E-1,1.542790410E0
6.386016750E0,-1.378809119E0,2.896994224E-1,-6.525071669E-1,1.552677025E0
6.396083750E0,-1.111688427E0,2.348755630E-1,-7.478319117E-1,1.360246396E0
6.406152500E0,-5.944484085E-1,2.161884465E-1,-7.210013779E-1,9.591398968E-1
6.416220500E0,8.253520310E-2,1.089916612E-1,-7.025229339E-1,7.157022528E-1
6.426287500E0,9.779129040E-1,-9.899263009E-3,-5.451693175E-1,1.119652280E0
6.436355500E0,1.881735154E0,-3.407055616E-2,-5.159863758E-1,1.951494282E0
6.446422500E0,2.758025204E0,7.432863593E-2,-5.265289056E-1,2.808818339E0
6.456490500E0,3.535537071E0,2.483398734E-1,-5.809351277E-1,3.591542940E0
6.466558500E0,3.854894448E0,4.246057972E-1,-6.582105410E-1,3.933667805E0
6.476625500E0,3.603104571E0,6.191602036E-1,-8.143043017E-1,3.745505761E0
6.486693500E0,2.896881373E0,8.576424024E-1,-1.017757001E0,3.187993333E0
6.496760500E0,2.343014980E0,1.012770495E0,-1.329856229E0,2.878183605E0
6.506828500E0,2.149407822E0,1.123199329E0,-1.521765940E0,2.863093135E0
6.516896500E0,2.276585932E0,1.205001291E0,-1.499681007E0,2.980589663E0
6.526963500E0,2.700259391E0,1.251930679E0,-1.304723142E0,3.249774405E0
6.537031500E0,3.252353493E0,1.320952089E0,-1.036140793E0,3.660096366E0
6.547098500E0,3.577020142E0,1.514887276E0,-8.620362926E-1,3.979078175E0
6.557166500E0,3.411012427E0,1.720138578E0,-7.152601431E-1,3.886576846E0
6.567233500E0,2.563090729E0,1.795086434E0,-5.819219184E-1,3.182829325E0
6.577301500E0,1.128716104E0,1.721339304E0,-4.979114628E-1,2.117764120E0
6.587369500E0,-1.272816056E-1,1.372304091E0,-3.738336197E-1,1.427995344E0
6.597436500E0,-1.140902871E0,8.889533651E-1,-1.993046844E-1,1.460006782E0
6.607504500E0,-1.649804760E0,3.118907753E-1,-1.718479139E-1,1.687798361E0
6.617571500E0,-1.481417229E0,-3.168307223E-1,-2.771405534E-1,1.540060258E0
6.627639500E0,-7.876316428E-1,-9.319461876E-1,-2.980103624E-1,1.256064281E0
6.637707500E0,1.949707282E-1,-1.584907098E0,-2.369853115E-1,1.614343871E0
6.647774500E0,1.135129915E0,-2.206804676E0,-1.608107096E-1,2.486838733E0
6.657842500E0,2.048048678E0,-2.781834774E0,8.433329500E-2,3.455462371E0
6.667909500E0,2.760185165E0,-3.542455496E0,2.779204258E-1,4.499428058E0
6.677977500E0,3.005827864E0,-4.256746975E0,2.086425416E-1,5.215211182E0
6.688045500E0,2.319188161E0,-4.381846692E0,2.121697283E-1,4.962280741E0
6.698112500E0,6.416143888E-1,-3.928266479E0,-1.243002200E-1,3.982260301E0
6.708180500E0,-7.907020158E-1,-3.523594133E0,-4.684380607E-1,3.641477654E0
6.718247500E0,-1.602786714E0,-3.224004730E0,-5.604708596E-1,3.643797378E0
6.728315500E0,-2.088773950E0,-3.089168229E0,-4.615078676E-1,3.757515998E0
6.738383500E0,-2.326111849E0,-3.066935946E0,-1.364500397E-1,3.851689375E0
6.748450500E0,-2.239146211E0,-3.058268618E0,3.505813261E-2,3.790516029E0
6.758518500E0,-1.216492167E0,-2.594513665E0,3.449348527E-1,2.886231869E0
6.768585500E0,-6.556792814E-1,-8.113920960E-1,9.930536842E-1,1.440287497E0
6.778653500E0,-8.657083440E-1,9.270848125E-1,1.542448711E0,1.997019082E0
6.788720500E0,-7.023628664E-1,1.646364551E0,1.164468319E0,2.135372637E0
6.798788500E0,7.183368748E-1,2.765851702E0,-3.027390788E-1,2.873603044E0
6.808856500E0,2.212378827E0,3.842521155E0,-3.982760775E-1,4.451765125E0
6.818923500E0,3.615129955E0,3.988862929E0,5.637848787E-1,5.412766894E0
6.828991500E0,3.045320544E0,2.628817526E0,1.576294150E0,4.320805717E0
6.839058500E0,1.049895637E0,8.166371946E-1,1.501355942E0,2.005803285E0
6.849126500E0,-6.413775766E-1,-5.961762607E-2,7.265095282E-1,9.709456996E-1
6.859194500E0,-2.326285511E0,-6.275508119E-1,2.835083905E-1,2.426067045E0
6.869261500E0,-4.001996945E0,-9.801477098E-1,2.072007644E-1,4.125481940E0
6.879329500E0,-5.542786801E0,-8.408379431E-1,-1.589749762E-1,5.608454958E0
6.889396500E0,-7.168892797E0,-9.668610817E-1,-7.989167690E-2,7.234239902E0
6.899464500E0,-7.408820427E0,-1.252993118E0,-4.180034137E-1,7.525645403E0
6.909532500E0,-6.406330506E0,-1.508153330E0,-2.087784309E0,6.904668011E0
6.919599500E0,-5.092294503E0,-1.664278081E0,-3.506105111E0,6.402660220E0
6.929667500E0,-3.464435513E0,-1.640570837E0,-4.330449666E0,5.783301860E0
6.939734500E0,-4.914660770E-1,-5.282922797E-1,-4.383931809E0,4.442914555E0
6.949802500E0,3.394015156E0,1.271646321E0,-3.715804975E0,5.190725369E0
6.959869500E0,6.046120972E0,2.625698913E0,-2.886852229E0,7.196095426E0
6.969937500E0,5.543358074E0,3.062064046E0,-1.692825065E0,6.555204929E0
6.980005500E0,3.108065261E0,3.270220245E0,-6.326745808E-2,4.512029797E0
6.990072500E0,2.554964268E-1,3.083135657E0,1.011056677E0,3.254725719E0
7.000140500E0,-2.899921925E0,1.512636098E0,6.595928228E-1,3.336566772E0
7.010207500E0,-3.844585807E0,5.860112417E-1,-9.308679610E-1,3.998845379E0
7.020275500E0,-2.970004313E0,1.497994085E0,-1.626966705E0,3.702962673E0
7.030343500E0,-3.077200148E0,1.975372465E0,-2.656309964E0,4.519650402E0
7.040410500E0,-2.828513389E0,1.917709856E0,-3.552490488E0,4.929329340E0
7.050478500E0,-1.374657011E0,2.007818080E0,-2.977926121E0,3.845654603E0
7.060545500E0,8.078419590E-1,1.644454266E0,-2.347098091E0,2.977533864E0
7.070613500E0,2.860228102E0,1.047814759E0,-1.577102235E0,3.430170844E0
7.080681500E0,4.125595974E0,-7.285045981E-2,-2.644607931E-1,4.134705412E0
7.090748500E0,5.672962779E0,-2.068933763E0,1.398752217E0,6.198346664E0
7.100816500E0,7.992129890E0,-4.620883499E0,3.358507354E0,9.823760794E0
7.110883500E0,1.047746434E1,-7.046901752E0,5.359875956E0,1.371730125E1
7.120951500E0,8.667113169E0,-7.555022453E0,4.736166911E0,1.243497052E1
7.131018500E0,5.207380571E0,-4.312814756E0,2.309397583E0,7.144963312E0
7.141086500E0,2.363936902E0,-1.101334324E0,3.763653910E-1,2.634916674E0
7.151154500E0,-1.558035049E0,1.051857524E0,-2.070388550E0,2.796495345E0
7.161221500E0,-3.311341959E0,2.515877970E0,-2.733504320E0,4.976612643E0
7.171289500E0,-2.454786846E0,2.505359414E0,-1.490110284E0,3.810935963E0
7.181356500E0,-2.072713403E0,1.498420055E0,-9.018774658E-1,2.711970958E0
7.191424500E0,-1.614562422E0,3.941596377E-1,-1.232990670E-1,1.666546217E0
7.201492500E0,-4.879852295E-2,-5.486709957E-1,6.526562709E-1,8.540382692E-1
7.211559500E0,1.754975120E0,-1.522465706E0,1.614141423E0,2.829009019E0
7.221627500E0,2.746143662E0,-2.343784181E0,1.970038635E0,4.112867798E0
7.231694500E0,1.716396360E0,-2.748681646E0,7.046666694E-1,3.316296484E0
7.241762500E0,-4.496976614E-1,-2.979207246E0,-1.893328428E-2,3.013015478E0
7.251830500E0,-2.098531784E0,-2.950344220E0,1.658878469E-1,3.624346209E0
7.261897500E0,-2.904634781E0,-3.019747161E0,5.406434995E-1,4.224697802E0
7.271965500E0,-2.356113328E0,-3.186830764E0,9.972683573E-1,4.086771893E0
7.282032500E0,-5.213020796E-1,-3.030874997E0,1.885454275E0,3.607339315E0
7.292100500E0,4.525066638E-1,-2.316389976E0,2.549869589E0,3.474515754E0
7.302167500E0,-5.117015362E-2,-1.541740029E0,2.284796885E0,2.756787534E0
7.312235500E0,-5.209453994E-1,-8.509050212E-1,2.149645512E0,2.369894363E0
7.322303500E0,-2.658120847E-1,-5.166178020E-1,2.388271552E0,2.457924129E0
7.332370500E0,1.042652106E-1,-4.535033217E-1,2.495391666E0,2.538408175E0
7.342438500E0,8.861455321E-2,-5.610357372E-1,2.604437852E0,2.665653797E0
7.352505500E0,-7.676575541E-2,-7.997935590E-1,2.796890477E0,2.910010147E0
7.362573500E0,-3.490565550E-1,-8.406226194E-1,2.824546053E0,2.967582732E0
7.372641500E0,-5.746134835E-1,-6.875468990E-1,2.581613538E0,2.732696444E0
7.382708500E0,-6.199451923E-1,-4.534492350E-1,2.349166251E0,2.471544117E0
7.392776500E0,-6.491584665E-1,-1.622464569E-1,2.188383900E0,2.288395666E0
7.402843167E0,-8.835283184E-1,2.968926671E-1,1.864614506E0,2.084599435E0
7.412911167E0,-8.954537147E-1,7.431378400E-1,1.750421308E0,2.101919590E0
7.422979167E0,-8.053720951E-1,8.921596858E-1,1.743379799E0,2.117533055E0
7.433046167E0,-7.037609357E-1,8.922948296E-1,1.648215195E0,2.002019692E0
7.443114167E0,-5.298431075E-1,9.030642314E-1,1.549153421E0,1.869795456E0
7.453181167E0,-5.474970210E-1,9.071335280E-1,1.465887024E0,1.808720264E0
7.463249167E0,-6.768076104E-1,8.983700135E-1,1.432709337E0,1.821481065E0
7.473317167E0,-7.667272621E-1,9.487651918E-1,1.327045180E0,1.802519069E0
7.483384167E0,-8.847410309E-1,1.013676595E0,1.017102405E0,1.686654746E0
7.493452167E0,-8.675776988E-1,1.083152334E0,6.838830337E-1,1.547128322E0
7.503519167E0,-8.547646952E-1,1.105395069E0,3.847134608E-1,1.449318940E0
7.513587167E0,-9.233823556E-1,1.097139458E0,8.475392908E-2,1.436500329E0
7.523654167E0,-9.112873900E-1,1.036386815E0,-1.388245940E-1,1.387016440E0
7.533722167E0,-8.546980369E-1,9.740721604E-1,-3.134265465E-1,1.333252230E0
7.543790167E0,-8.139832896E-1,8.747569102E-1,-4.943101627E-1,1.293101305E0
7.553857167E0,-6.933868057E-1,7.502639148E-1,-7.182991603E-1,1.248853429E0
7.563925167E0,-4.767129672E-1,6.389732015E-1,-8.756614745E-1,1.184198051E0
7.573992167E0,-3.356880659E-1,5.974682030E-1,-8.935492766E-1,1.126092821E0
7.584060167E0,-3.175079030E-1,6.034297317E-1,-8.907414436E-1,1.121766031E0
7.594128167E0,-2.904417264E-1,6.281619921E-1,-9.116756451E-1,1.144594411E0
7.604195167E0,-3.172816157E-1,6.436731935E-1,-9.690344918E-1,1.205823640E0
7.614263167E0,-4.016481668E-1,6.594823835E-1,-1.050286523E0,1.303587375E0
7.624330167E0,-4.878905046E-1,6.571065867E-1,-1.153887198E0,1.414666702E0
7.634398167E0,-6.423107922E-1,6.453243010E-1,-1.362171744E0,1.638450020E0
7.644466167E0,-7.939285094E-1,6.305228785E-1,-1.584519720E0,1.881112523E0
7.654533167E0,-9.554221737E-1,6.021279953E-1,-1.746456604E0,2.079783720E0
7.664601167E0,-1.098531023E0,5.491111448E-1,-1.856485122E0,2.225944848E0
7.674668167E0,-1.102833404E0,4.915366090E-1,-1.936191735E0,2.281816861E0
7.684736167E0,-8.164952534E-1,4.534229956E-1,-1.929087953E0,2.143277220E0
7.694804167E0,-2.219673228E-1,4.579428202E-1,-1.746553375E0,1.819183831E0
7.704871167E0,6.177267587E-1,4.746377903E-1,-1.422860287E0,1.622158678E0
7.714939167E0,1.285477617E0,4.802569646E-1,-1.231186804E0,1.843616121E0
7.725006167E0,1.934653040E0,4.912055835E-1,-9.971753865E-1,2.231260644E0
7.735074167E0,2.598419021E0,5.174943727E-1,-6.937241900E-1,2.738765248E0
7.745141167E0,3.100600120E0,5.853703138E-1,-5.741188091E-1,3.207178186E0
7.755209167E0,3.555994724E0,6.686446050E-1,-5.073336661E-1,3.653706547E0
7.765277167E0,4.047021090E0,6.841408959E-1,-4.225811988E-1,4.126136612E0
7.775344167E0,4.538847941E0,7.270522229E-1,-5.470166722E-1,4.629143852E0
7.785412167E0,4.664487648E0,8.005057499E-1,-6.423680949E-1,4.776074878E0
7.795479167E0,4.253809041E0,8.937642349E-1,-7.965723279E-1,4.419076073E0
7.805547167E0,3.598605139E0,9.796373210E-1,-1.044001351E0,3.872930034E0
7.815615167E0,2.614189546E0,1.039398715E0,-1.378945359E0,3.133022020E0
7.825682167E0,1.410370635E0,9.338550112E-1,-1.641611642E0,2.357142187E0
7.835750167E0,4.851955229E-1,6.891181190E-1,-1.670134652E0,1.870734677E0
7.845817167E0,-3.912699437E-1,4.380830446E-1,-1.797735808E0,1.891259622E0
7.855885167E0,-1.197057776E0,1.551213688E-1,-1.905846148E0,2.255938717E0
7.865953167E0,-1.903918321E0,-1.082921880E-1,-1.974140457E0,2.744788282E0
7.876020167E0,-2.399434179E0,-3.179979727E-1,-2.022894833E0,3.154442993E0
7.886088167E0,-2.527356055E0,-5.766669526E-1,-2.002393326E0,3.275614818E0
7.896155167E0,-2.379464183E0,-8.517240699E-1,-1.860157466E0,3.138067796E0
7.906223167E0,-2.004612052E0,-1.191137031E0,-1.689719608E0,2.879657838E0
7.916290167E0,-1.313477594E0,-1.595543476E0,-1.435760122E0,2.516423951E0
7.926358167E0,-4.635134625E-1,-1.981432812E0,-1.040590670E0,2.285552376E0
7.936426167E0,3.418714964E-1,-2.296438107E0,-5.880381060E-1,2.395055931E0
7.946493167E0,9.523038536E-1,-2.525153409E0,-3.366592884E-2,2.698965684E0
7.956561167E0,1.422077930E0,-2.702673999E0,5.118792915E-1,3.096574364E0
7.966628167E0,1.623768863E0,-2.846907560E0,1.003430153E0,3.427590997E0
7.976696167E0,1.516440881E0,-3.060788476E0,1.319859683E0,3.661973323E0
7.986764167E0,1.120535849E0,-3.199832633E0,1.395958856E0,3.666501138E0
7.996831167E0,5.922744137E-1,-3.234834650E0,1.469514490E0,3.602001809E0
8.006899167E0,1.053738427E-1,-3.296704624E0,1.529177871E0,3.635622365E0
8.016966167E0,-3.952372795E-1,-3.323889791E0,1.580561886E0,3.701706597E0
8.027034167E0,-7.299728340E-1,-3.140821947E0,1.688923218E0,3.640066549E0
8.037102167E0,-9.386447579E-1,-2.979530889E0,1.694333646E0,3.553790203E0
8.047169167E0,-1.152247639E0,-2.722045532E0,1.673188360E0,3.396581485E0
8.057237167E0,-1.427968415E0,-2.282272057E0,1.560090053E0,3.111549536E0
8.067304167E0,-1.632004666E0,-2.022965292E0,1.392369397E0,2.948647205E0
8.077372167E0,-1.714614714E0,-1.821077308E0,1.296704271E0,2.817386758E0
8.087439167E0,-1.749609715E0,-1.736630943E0,1.301715042E0,2.787738014E0
8.097507167E0,-1.600860057E0,-1.751732546E0,1.532468684E0,2.824850457E0
8.107575167E0,-1.483345056E0,-1.661845347E0,1.735223518E0,2.823657764E0
8.117642167E0,-1.563757135E0,-1.478678685E0,1.796714738E0,2.803571094E0
8.127710167E0,-1.717869859E0,-1.254518949E0,1.798065445E0,2.785306803E0
8.137777167E0,-1.747919285E0,-9.693335769E-1,1.724608190E0,2.639905835E0
8.147845167E0,-1.686239930E0,-6.697155225E-1,1.541032370E0,2.380484142E0
8.157913167E0,-1.626466768E0,-3.928483630E-1,1.339391138E0,2.143290136E0
8.167980167E0,-1.686196661E0,-1.224784103E-1,1.208350503E0,2.078069075E0
8.178048167E0,-1.762893419E0,1.018026558E-1,1.125525863E0,2.094030911E0
8.188115167E0,-1.788711800E0,3.022925708E-1,1.001395322E0,2.072115656E0
8.198183167E0,-1.859393528E0,4.525174081E-1,8.449040969E-1,2.091884133E0
8.208250167E0,-2.086965407E0,5.887081238E-1,6.368759514E-1,2.260002841E0
8.218318167E0,-2.316530601E0,6.972383666E-1,4.230378664E-1,2.455894217E0
8.228386167E0,-2.420672436E0,7.626739722E-1,2.289488983E-1,2.548282603E0
8.238453167E0,-2.306470467E0,8.225754806E-1,7.646637797E-2,2.449955825E0
8.248521167E0,-2.114046786E0,8.870875186E-1,-3.282626867E-3,2.292624883E0
8.258588167E0,-1.876885473E0,9.255185627E-1,-8.189902604E-3,2.092689839E0
8.268656167E0,-1.610278167E0,9.613746393E-1,1.683632657E-2,1.875505381E0
8.278724167E0,-1.223833346E0,9.915738270E-1,4.999515563E-2,1.575908065E0
8.288791167E0,-7.189157492E-1,1.053790760E0,1.010317004E-1,1.279657073E0
8.298859167E0,-1.086026752E-1,1.124906643E0,1.346315557E-1,1.138127916E0
8.308926167E0,5.185427785E-1,1.142942453E0,9.519486353E-2,1.258676339E0
8.318994167E0,1.063293362E0,1.184420262E0,3.300446257E-2,1.592021804E0
8.329062167E0,1.521493460E0,1.246605912E0,-1.912755802E-2,1.967062407E0
8.339129167E0,1.785587048E0,1.326082729E0,-1.655815990E-1,2.230299033E0
8.349197167E0,1.839596609E0,1.348885116E0,-3.294473326E-1,2.304808514E0
8.359264167E0,1.945401977E0,1.551922663E0,-7.964833041E-1,2.612936749E0
8.369332167E0,2.449160070E0,1.930355921E0,-1.619567639E0,3.513923501E0
8.379399167E0,3.153810368E0,2.305068597E0,-2.760276382E0,4.783198384E0
8.389467167E0,5.110665286E0,2.673667716E0,-4.529175476E0,7.333541383E0
8.399535375E0,7.029658313E0,1.737751561E0,-6.691629022E0,9.859704633E0
8.409602375E0,5.630483342E0,-1.772112359E-1,-5.978208486E0,8.214178181E0
8.419670375E0,2.744488900E0,-1.945386189E0,-4.507742507E0,5.624632367E0
8.429737375E0,1.156877464E0,-3.344136652E0,-3.316780454E0,4.850015257E0
8.439805375E0,-2.030328691E-1,-3.956695350E0,-2.434962300E0,4.650344271E0
8.449873375E0,-1.606040105E0,-3.993755879E0,-1.762877778E0,4.651579184E0
8.459940375E0,-2.540500011E0,-3.922140644E0,-1.167303780E0,4.816630114E0
8.470008375E0,-2.470097780E0,-3.784561507E0,3.272540420E-2,4.519442421E0
8.480075375E0,-1.903355818E0,-2.566660454E0,8.418001024E-1,3.304411698E0
8.490143375E0,-9.543386847E-1,-8.923909432E-1,1.093440875E0,1.703742019E0
8.500211375E0,9.205979115E-1,3.945020287E-1,1.296981867E0,1.638686770E0
8.510278375E0,3.314528691E0,7.122905615E-1,1.473688817E0,3.696649431E0
8.520346375E0,4.275198156E0,8.681648324E-1,1.322335833E0,4.558464819E0
8.530413375E0,3.470539421E0,1.237929229E0,1.253288695E0,3.892023279E0
8.540481375E0,2.897749100E0,1.165819903E0,1.612260958E0,3.515035034E0
8.550548375E0,2.561016136E0,1.008602308E0,2.054675912E0,3.434788985E0
8.560616375E0,2.098682057E0,8.346116817E-1,2.368502554E0,3.272743098E0
8.570684375E0,1.555826556E0,7.316010643E-1,2.351232949E0,2.912753469E0
8.580751375E0,1.041863902E0,6.220183226E-1,2.151735599E0,2.470294167E0
8.590819375E0,7.057811487E-1,4.454320810E-1,2.060197584E0,2.222824972E0
8.600886375E0,3.911798966E-1,2.745794364E-1,1.934079867E0,1.992255132E0
8.610954375E0,-3.761338413E-2,1.739687538E-1,1.698869624E0,1.708167993E0
8.621022375E0,-4.905229211E-1,9.018632133E-2,1.521414376E0,1.601077142E0
8.631089375E0,-7.739567596E-1,-2.227321386E-2,1.424872899E0,1.621655925E0
8.641157375E0,-1.049910255E0,-1.409298657E-1,1.355544217E0,1.720369988E0
8.651224375E0,-1.341256546E0,-2.395981398E-1,1.314594412E0,1.893286787E0
8.661292375E0,-1.541235414E0,-3.656927606E-1,1.315885916E0,2.059294428E0
8.671359375E0,-1.751130576E0,-5.234646723E-1,1.306128667E0,2.246429534E0
8.681427375E0,-2.001296681E0,-6.404048923E-1,1.264187174E0,2.452238985E0
8.691495375E0,-2.305490474E0,-7.451665315E-1,1.167150876E0,2.689386668E0
8.701562375E0,-2.639891567E0,-8.330487210E-1,1.046119359E0,2.959284267E0
8.711630375E0,-2.911792942E0,-9.244240370E-1,9.680544984E-1,3.204719559E0
8.721697375E0,-3.050529243E0,-9.718949497E-1,9.115608935E-1,3.328851412E0
8.731765375E0,-3.185116360E0,-9.951715457E-1,7.850717318E-1,3.428070924E0
8.741833375E0,-3.236740258E0,-9.857057807E-1,6.652616984E-1,3.448286025E0
8.751900375E0,-3.248491407E0,-9.511314869E-1,5.456532477E-1,3.428568943E0
8.761968375E0,-3.228241330E0,-9.051343650E-1,4.472067475E-1,3.382425783E0
8.772035375E0,-3.097616286E0,-8.506175575E-1,3.615158021E-1,3.232564085E0
8.782103375E0,-2.913523718E0,-7.868066007E-1,2.511053140E-1,3.028322797E0
8.792170375E0,-2.694451936E0,-6.776186192E-1,1.250777900E-1,2.781165706E0
8.802238375E0,-2.485755454E0,-5.881956884E-1,3.584167778E-2,2.554650460E0
8.812306375E0,-2.324203318E0,-4.676883745E-1,-1.638536006E-3,2.370792307E0
8.822373375E0,-2.275387253E0,-3.411964354E-1,-8.680425525E-2,2.302463276E0
8.832441375E0,-2.225871862E0,-2.362830244E-1,-1.903281851E-1,2.246454992E0
8.842508375E0,-2.060361160E0,-1.392628063E-1,-2.315001847E-1,2.077997732E0
8.852576375E0,-1.696099505E0,-5.654692423E-2,-2.420748742E-1,1.714220328E0
8.862644375E0,-1.211963498E0,2.007765748E-2,-2.017947212E-1,1.228812330E0
8.872711375E0,-5.327725625E-1,7.720195770E-2,-9.391914725E-2,5.464682533E-1
8.882779375E0,3.733710319E-1,1.723230367E-1,4.020998642E-2,4.131803473E-1
8.892846375E0,1.397393324E0,4.467641499E-1,2.173326735E-1,1.483084556E0
8.902914375E0,2.320076353E0,7.221463358E-1,3.948905396E-1,2.461744941E0
8.912982375E0,3.015261762E0,1.029924691E0,5.142791350E-1,3.227542624E0
8.923049375E0,3.289193875E0,1.281417603E0,5.087181406E-1,3.566457846E0
8.933117375E0,3.012843354E0,1.465795223E0,3.122109103E-1,3.365004660E0
8.943184375E0,2.592456615E0,1.552728994E0,4.166828200E-2,3.022173866E0
8.953252375E0,2.408856967E0,1.538147792E0,-2.697583705E-1,2.870759498E0
8.963319375E0,2.869656152E0,1.395883573E0,-5.604990359E-1,3.239996381E0
8.973387375E0,3.754018868E0,1.203084209E0,-6.902721401E-1,4.002067579E0
8.983455375E0,4.572030305E0,1.171251601E0,-8.676693539E-1,4.798764584E0
8.993522375E0,5.020726923E0,1.249083962E0,-9.943831949E-1,5.268463487E0
9.003590375E0,4.988010582E0,1.412239990E0,-1.005087108E0,5.280612791E0
9.013657375E0,4.625120684E0,1.764999879E0,-1.061547822E0,5.062988218E0
9.023725375E0,3.411387818E0,2.032570513E0,-1.460330561E0,4.231013482E0
9.033792375E0,1.813591118E0,1.851516743E0,-2.089634660E0,3.329234147E0
9.043860375E0,4.975278854E-1,1.351416375E0,-2.492560444E0,2.878665973E0
9.053928375E0,-4.882308125E-1,6.983341348E-1,-2.089445211E0,2.256506410E0
9.063995375E0,-1.344170798E0,1.826764456E-1,-1.319400969E0,1.892349000E0
9.074063375E0,-1.950073902E0,-2.257302619E-1,-9.412755664E-1,2.177094868E0
9.084130375E0,-2.323654264E0,-5.773698610E-1,-9.946564060E-1,2.592694826E0
9.094198375E0,-2.177119532E0,-1.074017156E0,-1.037480829E0,2.640024389E0
9.104266375E0,-1.468857409E0,-1.595318651E0,-8.533977623E-1,2.330423015E0
9.114333375E0,-3.654047853E-1,-2.100580648E0,-5.812424719E-1,2.209932698E0
9.124401375E0,9.595467997E-1,-2.648358628E0,-2.786642647E-1,2.830580727E0
9.134468375E0,1.874637219E0,-3.166562560E0,-5.593300313E-3,3.679866089E0
9.144536375E0,2.079061140E0,-3.571669647E0,2.822393985E-1,4.142339722E0
9.154604375E0,1.973431190E0,-3.796747981E0,6.631156240E-1,4.330063305E0
9.164671375E0,1.685824193E0,-3.878328919E0,9.855036132E-1,4.342194812E0
9.174739375E0,1.254827097E0,-3.883030373E0,1.059397216E0,4.216021629E0
9.184806375E0,4.522137183E-1,-3.704264033E0,7.966192518E-1,3.815844796E0
9.194874375E0,-4.327711415E-1,-3.553214665E0,1.643932986E-1,3.583245802E0
9.204941375E0,-1.078578569E0,-3.496025973E0,-4.279653150E-1,3.683569416E0
9.215009375E0,-1.436487224E0,-3.383952683E0,-8.285984051E-1,3.768448835E0
9.225077375E0,-1.662790841E0,-3.127096193E0,-7.350986494E-1,3.617177630E0
9.235144375E0,-1.864649590E0,-2.609556505E0,-4.902359690E-1,3.244539189E0
9.245212375E0,-1.879844164E0,-1.908769755E0,-3.118982305E-1,2.697127466E0
9.255279375E0,-1.589400684E0,-1.344179569E0,-4.690534070E-2,2.082117518E0
9.265347375E0,-1.473184934E0,-6.332604718E-1,2.041537803E-1,1.616468818E0
9.275415375E0,-1.456995748E0,3.037429726E-1,3.168500912E-1,1.521673547E0
9.285482375E0,-1.341424361E0,1.150937278E0,5.784211904E-1,1.859743801E0
9.295550375E0,-1.440799545E0,1.643914568E0,5.804400878E-1,2.261696074E0
9.305617375E0,-1.257580551E0,1.848697801E0,6.878078310E-1,2.339288783E0
9.315685375E0,-9.806844842E-1,1.710916350E0,8.940831274E-1,2.165262444E0
9.325752375E0,-1.146211558E0,1.060400452E0,1.072491032E0,1.894330243E0
9.335820375E0,-1.781005754E0,3.477730912E-1,8.259999025E-1,1.993791228E0
9.345888375E0,-2.312939826E0,-3.651910695E-1,5.697386599E-1,2.409908151E0
9.355955375E0,-2.645834677E0,-8.284580719E-1,9.671464258E-1,2.936350818E0
9.366023375E0,-2.874470165E0,-8.774200246E-1,1.058490459E0,3.186353195E0
9.376090375E0,-2.604832832E0,-8.392684042E-1,9.871047270E-1,2.909278481E0
9.386158375E0,-2.004667600E0,-1.184674835E0,9.080363381E-1,2.499335240E0
9.396226375E0,-1.236033561E0,-9.808042060E-1,7.113251862E-1,1.730820434E0
9.406293042E0,-6.866525674E-1,-2.597602165E-1,6.719713783E-1,9.952450209E-1
9.416361042E0,5.632195991E-1,6.935076237E-1,6.841356334E-1,1.125260284E0
9.426428042E0,2.188824488E0,1.734251272E0,5.965899512E-1,2.855608461E0
9.436496042E0,3.444194791E0,2.712884991E0,3.446518475E-1,4.397841247E0
9.446563042E0,4.069819969E0,3.242603553E0,-1.295801461E-1,5.205257284E0
9.456631042E0,3.830148447E0,2.996449808E0,-4.213953835E-1,4.881221429E0
9.466699042E0,2.962242719E0,2.017749284E0,-3.505832630E-1,3.601264045E0
9.476766042E0,1.616760975E0,8.774469218E-1,-2.433926904E-1,1.855550903E0
9.486834042E0,7.560344589E-1,-1.325886116E-1,-3.125725606E-1,8.287758736E-1
9.496901042E0,1.037507726E0,-8.073548859E-1,-3.764607006E-1,1.367467313E0
9.506969042E0,1.687802306E0,-1.454764450E0,-1.471229625E-1,2.233083383E0
9.517037042E0,2.256874384E0,-1.511551147E0,6.700780499E-1,2.797726478E0
9.527104042E0,2.123775968E0,-8.089152154E-1,1.607358068E0,2.783589076E0
9.537172042E0,2.532520316E0,-4.246210000E-1,1.856816952E0,3.168869094E0
9.547239042E0,3.401151098E0,8.153006673E-2,1.160072967E0,3.594474264E0
9.557307042E0,3.971529443E0,3.644411641E-1,1.099858925E0,4.137094770E0
9.567375042E0,3.100986621E0,7.043477038E-1,6.559628713E-1,3.246923313E0
9.577442042E0,1.817818070E0,5.341066048E-1,1.441946769E-1,1.900138023E0
9.587510042E0,8.158163917E-1,-4.482592463E-2,-6.143201709E-1,1.022230415E0
9.597577042E0,-1.932077926E-1,-8.300031987E-1,-1.439224305E0,1.672603109E0
9.607645042E0,-6.590361679E-1,-1.595617151E0,-1.439694129E0,2.247897228E0
9.617712042E0,-1.209035797E0,-2.288709257E0,-1.278055161E0,2.886759882E0
9.627780042E0,-2.221505161E0,-2.706355698E0,-1.482593250E0,3.802305760E0
9.637848042E0,-3.283253104E0,-2.618122968E0,-1.899735953E0,4.609047137E0
9.647915042E0,-3.980027202E0,-2.079455535E0,-2.285647509E0,5.038743532E0
9.657983042E0,-4.375991290E0,-1.489935745E0,-2.260869201E0,5.145943824E0
9.668050042E0,-4.572571757E0,-9.162531379E-1,-1.990708542E0,5.070587026E0
9.678118042E0,-4.519162120E0,-5.163518268E-1,-1.725127423E0,4.864720968E0
9.688186042E0,-3.796838613E0,-4.104616749E-1,-1.462097443E0,4.089277586E0
9.698253042E0,-2.977410981E0,-4.390256158E-1,-1.090481892E0,3.201073320E0
9.708321042E0,-2.286195831E0,-5.087641874E-1,-6.804831702E-1,2.438973088E0
9.718388042E0,-1.775067907E0,-6.361051422E-1,-2.927667256E-1,1.908195006E0
9.728456042E0,-1.220864130E0,-7.065980047E-1,1.194305491E-1,1.415646008E0
9.738523042E0,-6.905818963E-1,-7.553149590E-1,5.349860260E-1,1.154822104E0
9.748591042E0,-3.454774743E-1,-7.554930067E-1,9.115445213E-1,1.233303605E0
9.758659042E0,-1.417745143E-1,-7.244542319E-1,1.176895992E0,1.389250921E0
9.768726042E0,-9.986342669E-2,-6.297407404E-1,1.395602322E0,1.534357177E0
9.778794042E0,-1.122016364E-1,-4.710207027E-1,1.537721822E0,1.612153253E0
9.788861042E0,-1.057784700E-1,-3.687885690E-1,1.593391993E0,1.638930181E0
9.798929042E0,-1.075226945E-1,-2.967777693E-1,1.667032412E0,1.696654130E0
9.808996042E0,-1.486520094E-1,-1.670274327E-1,1.767696176E0,1.781781511E0
9.819064042E0,-1.174191070E-1,5.794470113E-2,1.834951728E0,1.839617536E0
9.829132042E0,6.357619107E-2,2.784987885E-1,1.889642344E0,1.911112685E0
9.839199042E0,2.822217107E-1,3.924686229E-1,1.888017402E0,1.948920323E0
9.849267042E0,4.682210559E-1,4.116124070E-1,1.916547722E0,2.015393485E0
9.859334042E0,5.513649541E-1,3.773939162E-1,1.946759115E0,2.058227522E0
9.869402042E0,5.865084743E-1,2.972288820E-1,1.951041031E0,2.058858496E0
9.879470042E0,5.762425178E-1,1.925909845E-1,1.916232411E0,2.010247094E0
9.889537042E0,4.892242545E-1,5.709923029E-2,1.814296877E0,1.879966449E0
9.899605042E0,3.488940024E-1,-1.088625474E-1,1.591504366E0,1.632931176E0
9.909672042E0,1.441362047E-1,-1.694175918E-1,1.306905469E0,1.325699616E0
9.919740042E0,2.726644367E-1,-1.073238526E-1,1.142321844E0,1.179306364E0
9.929807042E0,4.669346684E-1,5.625025112E-2,9.821204142E-1,1.088922671E0
9.939875042E0,5.383630854E-1,2.006384708E-1,7.184332077E-1,9.199113444E-1
9.949943042E0,5.586768973E-1,2.579475065E-1,5.360945119E-1,8.161213864E-1
9.960010042E0,4.788197190E-1,2.402618719E-1,4.973517381E-1,7.309944197E-1
9.970078042E0,3.002790821E-1,2.319211111E-1,4.613287966E-1,5.973099593E-1
9.980145042E0,2.235647821E-1,2.256519458E-1,4.793693572E-1,5.750608603E-1
9.990213042E0,2.841811126E-1,2.027352458E-1,4.687683553E-1,5.844692084E-1
1.000028104E1,3.826926631E-1,1.787786917E-1,4.395198517E-1,6.095844445E-1
1.001034804E1,3.810782468E-1,1.834081516E-1,3.571531945E-1,5.535499839E-1
1.002041604E1,3.071115535E-1,2.909247795E-1,2.721281008E-1,5.029994403E-1
1.003048304E1,5.550422680E-1,4.517923533E-1,2.322669008E-1,7.524202038E-1
1.004055104E1,5.926351869E-1,6.747134301E-1,1.258513767E-1,9.068038633E-1
1.005061804E1,6.290206558E-1,8.415849980E-1,4.422541559E-3,1.050691131E0
1.006068604E1,5.955377448E-1,9.567590665E-1,-1.339027002E-1,1.134893409E0
1.007075404E1,4.216076374E-1,1.046729077E0,-2.951428878E-1,1.166406484E0
1.008082104E1,2.054495233E-1,1.120862124E0,-4.697670597E-1,1.232567442E0
1.009088904E1,3.437402666E-2,1.151404324E0,-6.907880107E-1,1.343168480E0
1.010095604E1,6.750142694E-2,1.131403850E0,-8.505193242E-1,1.417044189E0
1.011102404E1,2.043625259E-1,1.039482915E0,-9.798857546E-1,1.443074796E0
1.012109104E1,4.454256856E-1,9.214486083E-1,-1.081390787E0,1.488918270E0
1.013115904E1,7.548568296E-1,8.196518728E-1,-1.160438418E0,1.608805566E0
1.014122704E1,1.068246539E0,7.697572893E-1,-1.218005426E0,1.793659435E0
1.015129404E1,1.337252957E0,7.649486122E-1,-1.225525676E0,1.968579446E0
1.016136204E1,1.572384117E0,7.673180502E-1,-1.170710514E0,2.105167905E0
1.017142904E1,1.942705826E0,7.724660119E-1,-1.059515476E0,2.343796644E0
1.018149704E1,2.488283790E0,7.954175028E-1,-9.251558161E-1,2.771309890E0
1.019156504E1,2.876300928E0,9.239428112E-1,-9.192173839E-1,3.157805875E0
1.020163204E1,2.780379109E0,9.761525998E-1,-1.110397947E0,3.149026118E0
1.021170004E1,2.442707668E0,9.090142849E-1,-1.344169044E0,2.932561703E0
1.022176704E1,2.098573299E0,8.077861181E-1,-1.482341820E0,2.693300127E0
1.023183504E1,1.892974672E0,6.251495066E-1,-1.661798715E0,2.595330419E0
1.024190204E1,1.802122389E0,4.384756120E-1,-1.753054017E0,2.552078438E0
1.025197004E1,1.544481788E0,3.423567422E-1,-1.788149590E0,2.387490542E0
1.026203804E1,1.021709134E0,3.046928528E-1,-1.765931633E0,2.062823749E0
1.027210504E1,2.736590481E-1,2.460420638E-1,-1.738120521E0,1.776651040E0
1.028217304E1,-5.848689151E-1,9.693272911E-2,-1.705229056E0,1.805345877E0
1.029224004E1,-1.418219352E0,-1.245825309E-1,-1.712828974E0,2.227251677E0
1.030230804E1,-2.086691172E0,-3.767404899E-1,-1.685684445E0,2.708827328E0
1.031237504E1,-2.454659961E0,-6.466125888E-1,-1.630812127E0,3.017119746E0
1.032244304E1,-2.575089215E0,-9.861060226E-1,-1.494065925E0,3.136195552E0
1.033251104E1,-2.407666474E0,-1.376316451E0,-1.307719256E0,3.066143257E0
1.034257804E1,-2.032061221E0,-1.771272772E0,-1.099527388E0,2.911295333E0
1.035264604E1,-1.563211589E0,-2.126246124E0,-8.932278259E-1,2.786110013E0
1.036271304E1,-1.032772651E0,-2.470511763E0,-6.312756345E-1,2.751100988E0
1.037278104E1,-4.591730744E-1,-2.727782528E0,-3.126202154E-1,2.783768817E0
1.038284904E1,4.036917686E-2,-2.873526132E0,-2.222175837E-2,2.873895598E0
1.039291604E1,4.058663481E-1,-3.009923547E0,2.795226359E-1,3.050000025E0
1.040298437E1,6.310911548E-1,-3.179424973E0,5.895028335E-1,3.294621798E0
1.041305137E1,7.579535151E-1,-3.287270434E0,8.627473140E-1,3.482093244E0
1.042311937E1,7.139654964E-1,-3.329166903E0,1.026002744E0,3.556090639E0
1.043318637E1,2.681170571E-1,-3.451144499E0,1.061290837E0,3.620583289E0
1.044325437E1,-3.589862967E-1,-3.520818167E0,9.866188234E-1,3.674023466E0
1.045332237E1,-9.324642509E-1,-3.628811855E0,6.568506248E-1,3.803842505E0
1.046338937E1,-1.334660302E0,-3.673993290E0,3.332246339E-1,3.923083414E0
1.047345737E1,-1.570435824E0,-3.644430060E0,4.340358943E-1,3.992057903E0
1.048352437E1,-1.699015512E0,-3.389960112E0,6.803901994E-1,3.852455593E0
1.049359237E1,-1.762352552E0,-2.882734327E0,7.316264266E-1,3.457068259E0
1.050366037E1,-1.762085334E0,-2.327380695E0,6.888686621E-1,2.999364209E0
1.051372737E1,-1.701189507E0,-1.847955789E0,5.554287690E-1,2.572447755E0
1.052379537E1,-1.633401566E0,-1.487212404E0,5.291747707E-1,2.271525335E0
1.053386237E1,-1.555445318E0,-1.184204426E0,6.407962172E-1,2.057272479E0
1.054393037E1,-1.482099599E0,-1.063279329E0,9.119374542E-1,2.039316570E0
1.055399737E1,-1.537931737E0,-1.001411110E0,1.111793531E0,2.145726705E0
1.056406537E1,-1.695846906E0,-9.311310858E-1,1.400578157E0,2.388413909E0
1.057413337E1,-1.921267594E0,-7.396540689E-1,1.506567126E0,2.551098159E0
1.058420038E1,-2.090990045E0,-5.454709607E-1,1.440082676E0,2.596847329E0
1.059426837E1,-2.084409589E0,-3.785040101E-1,1.242792796E0,2.456127552E0
1.060433537E1,-2.025988888E0,-1.955867141E-1,1.112178863E0,2.319445399E0
1.061440337E1,-1.996577978E0,-9.599955004E-2,9.635555045E-1,2.219003998E0
1.062447037E1,-1.996178028E0,-4.630580010E-2,8.763230869E-1,2.180553393E0
1.063453837E1,-1.947895229E0,5.106930742E-2,7.581907658E-1,2.090874730E0
1.064460637E1,-1.813124510E0,1.373651290E-1,6.525422502E-1,1.931864658E0
1.065467338E1,-1.600287030E0,2.193521556E-1,5.519204396E-1,1.706941744E0
1.066474137E1,-1.271861206E0,3.035000573E-1,4.333095239E-1,1.377497860E0
1.067480837E1,-9.668388623E-1,3.985292985E-1,3.205143951E-1,1.093769841E0
1.068487637E1,-7.171165609E-1,4.385444264E-1,2.257187502E-1,8.703598854E-1
1.069494337E1,-5.166576362E-1,4.321682936E-1,1.321523362E-1,6.864173563E-1
1.070501137E1,-2.764399838E-1,4.274726871E-1,2.923256993E-2,5.099083310E-1
1.071507937E1,6.779729605E-2,3.915924177E-1,-4.767761171E-2,4.002677224E-1
1.072514637E1,6.276050448E-1,3.610336627E-1,-1.423748772E-1,7.379051454E-1
1.073521437E1,1.289568329E0,3.399249218E-1,-2.132536559E-1,1.350560087E0
1.074528137E1,1.918525835E0,3.378950974E-1,-3.296075463E-1,1.975741787E0
1.075534937E1,2.474079149E0,3.810031101E-1,-4.589578968E-1,2.544970208E0
1.076541737E1,2.939566047E0,6.373541075E-1,-8.408307803E-1,3.123181904E0
1.077548437E1,2.875560670E0,8.244275862E-1,-1.578060740E0,3.382130351E0
1.078555237E1,3.138826877E0,1.159762480E0,-1.796382177E0,3.797929976E0
1.079561937E1,3.692057678E0,1.722145343E0,-3.000620919E0,5.059723350E0
1.080568737E1,4.808055503E0,2.050792192E0,-4.545727190E0,6.927249239E0
1.081575437E1,6.696487473E0,2.145398094E0,-6.649092282E0,9.677608467E0
1.082582237E1,6.063214722E0,1.289583824E0,-7.178275824E0,9.484368350E0
1.083589037E1,3.524173007E0,4.932360291E-1,-7.135951338E0,7.974012708E0
1.084595737E1,2.170173039E0,-5.941159943E-1,-6.461360407E0,6.841915166E0
1.085602537E1,2.088710800E0,-2.069593621E0,-4.981219625E0,5.784330516E0
1.086609237E1,5.971106458E-1,-2.280488656E0,-2.894610314E0,3.733086994E0
1.087616037E1,-3.936515146E-1,-2.221172162E0,-1.387068896E0,2.648117711E0
1.088622737E1,-1.064408426E0,-2.187550087E0,-8.812853265E-1,2.587470678E0
1.089629537E1,-1.933498800E0,-2.006387267E0,-6.026082710E-1,2.850814656E0
1.090636337E1,-2.315141303E0,-1.817164936E0,1.180108452E-1,2.945487093E0
1.091643038E1,-2.264221995E0,-1.724502648E0,1.165428432E0,3.075521753E0
1.092649837E1,-2.355147368E0,-1.574232422E0,6.985726281E-1,2.917692677E0
1.093656537E1,-1.931087993E0,-1.509138586E0,2.951030537E-1,2.468539228E0
1.094663337E1,-1.026243065E0,-1.672588144E0,2.673580885E-1,1.980456077E0
1.095670137E1,2.481657726E-1,-1.830112426E0,5.002906217E-1,1.913423227E0
1.096676837E1,1.386496453E0,-1.781677015E0,9.011050487E-1,2.430789112E0
1.097683637E1,2.036495165E0,-1.643973040E0,1.344521631E0,2.942396698E0
1.098690338E1,2.395759789E0,-1.576829462E0,1.811244630E0,3.392147289E0
1.099697137E1,2.538095051E0,-1.662716582E0,2.324386336E0,3.822214640E0
1.100703837E1,2.438132222E0,-1.732280614E0,2.778798022E0,4.082524134E0
1.101710637E1,1.790066015E0,-1.717771918E0,2.791636169E0,3.734743525E0
1.102717437E1,8.267015684E-1,-1.697425069E0,2.458339614E0,3.099696922E0
1.103724137E1,3.725904286E-2,-1.755480027E0,2.140294937E0,2.768385952E0
1.104730937E1,-5.796344876E-1,-1.869701584E0,1.925839240E0,2.746018377E0
1.105737637E1,-1.143747541E0,-2.005846984E0,1.767305143E0,2.907739333E0
1.106744437E1,-1.678030440E0,-2.173324981E0,1.599288325E0,3.177554213E0
1.107751137E1,-2.063898141E0,-2.331407380E0,1.460255570E0,3.439110675E0
1.108757937E1,-2.254967607E0,-2.453360125E0,1.333066936E0,3.589000176E0
1.109764737E1,-2.576210711E0,-2.493042839E0,1.172429230E0,3.771831720E0
1.110771437E1,-2.829956481E0,-2.392108787E0,1.073386387E0,3.857848685E0
1.111778237E1,-2.904900829E0,-2.218636225E0,9.766363838E-1,3.783465891E0
1.112784937E1,-2.935947790E0,-2.092738363E0,9.205376852E-1,3.721119846E0
1.113791737E1,-2.986408092E0,-1.993143908E0,1.002425017E0,3.727748897E0
1.114798537E1,-2.972685261E0,-1.931515132E0,1.036974460E0,3.693632954E0
1.115805237E1,-2.891320671E0,-1.854233360E0,1.137097941E0,3.618136026E0
1.116812037E1,-2.730969552E0,-1.667442009E0,1.143566862E0,3.397985097E0
1.117818737E1,-2.510095074E0,-1.465261079E0,1.111724680E0,3.111832109E0
1.118825537E1,-2.267866564E0,-1.247915688E0,1.072771699E0,2.802026309E0
1.119832237E1,-2.027061852E0,-9.684544480E-1,1.079849607E0,2.492580779E0
1.120839037E1,-1.795153093E0,-6.854003862E-1,1.080584675E0,2.204543390E0
1.121845837E1,-1.582634870E0,-4.187173587E-1,1.040983311E0,1.940026704E0
1.122852537E1,-1.332193946E0,-2.185566419E-1,1.017279722E0,1.690374440E0
1.123859337E1,-1.084895316E0,-3.127500008E-2,9.689975812E-1,1.454968139E0
1.124866038E1,-9.138215733E-1,1.545717305E-1,8.737693155E-1,1.273748446E0
1.125872837E1,-8.623333311E-1,3.232402208E-1,7.191275646E-1,1.168438046E0
1.126879537E1,-8.305274016E-1,4.421927601E-1,5.067300873E-1,1.068684043E0
1.127886337E1,-7.393184388E-1,5.141234529E-1,3.295641308E-1,9.589198063E-1
1.128893137E1,-4.826543230E-1,5.417398524E-1,2.250270977E-1,7.596541699E-1
1.129899837E1,-6.776805997E-2,5.576179665E-1,9.518857777E-2,5.697290337E-1
1.130906637E1,4.085326785E-1,6.398757192E-1,-3.323849738E-2,7.598978110E-1
1.131913338E1,9.657390010E-1,9.308931041E-1,-3.067135043E-1,1.375967646E0
1.132920137E1,1.471091630E0,1.006846389E0,-5.290479592E-1,1.859500465E0
1.133926837E1,1.799746665E0,1.020483558E0,-5.686898156E-1,2.145666064E0
1.134933637E1,1.897271791E0,1.006095606E0,-7.604128540E-1,2.278178291E0
1.135940437E1,1.838104400E0,9.446808386E-1,-1.184416242E0,2.381993179E0
1.136947137E1,1.848843981E0,7.923740271E-1,-1.596590274E0,2.568108480E0
1.137953937E1,1.845915695E0,6.584011602E-1,-1.665761227E0,2.572092010E0
1.138960637E1,2.048520548E0,5.481636035E-1,-1.755108436E0,2.752694207E0
1.139967437E1,2.369937315E0,4.275589335E-1,-1.936950996E0,3.090499746E0
1.140974192E1,2.735514008E0,3.058889190E-1,-2.183501329E0,3.513443179E0
1.141980892E1,3.276964424E0,1.536411461E-1,-2.363803001E0,4.043472031E0
1.142987692E1,3.980089767E0,-4.274957836E-2,-2.597094626E0,4.752666891E0
1.143994392E1,4.452419661E0,-2.082561868E-1,-2.685888689E0,5.203980162E0
1.145001192E1,4.391968807E0,-3.627045411E-1,-2.963007535E0,5.310400949E0
1.146007892E1,4.011472943E0,-5.700400838E-1,-3.200512079E0,5.163345663E0
1.147014692E1,3.599711432E0,-9.001361650E-1,-3.117474015E0,4.846319402E0
1.148021492E1,2.843601544E0,-1.275620965E0,-2.742559319E0,4.151494936E0
1.149028192E1,1.431378511E0,-1.401196938E0,-2.265471545E0,3.023997127E0
1.150034992E1,-1.685027218E-1,-1.328253508E0,-1.716335403E0,2.176799891E0
1.151041692E1,-1.445866742E0,-1.238302866E0,-1.301467267E0,2.306022912E0
1.152048492E1,-2.328955935E0,-1.285748051E0,-1.119420054E0,2.886223320E0
1.153055192E1,-2.880402165E0,-1.446755227E0,-1.116974895E0,3.411370727E0
1.154061992E1,-2.770935856E0,-1.773599379E0,-1.039464789E0,3.450250328E0
1.155068792E1,-2.067256781E0,-2.179493794E0,-8.631181736E-1,3.125494645E0
1.156075492E1,-7.833386171E-1,-2.688392759E0,-6.963801415E-1,2.885484417E0
1.157082292E1,7.545083356E-1,-3.281990690E0,-4.972513121E-1,3.404115830E0
1.158088992E1,2.005091524E0,-3.810289548E0,-2.932173997E-1,4.315631460E0
1.159095792E1,2.688032863E0,-4.195068790E0,-9.332682431E-2,4.983255234E0
1.160102492E1,2.719873291E0,-4.496295998E0,7.686647370E-2,5.255501582E0
1.161109292E1,2.242197288E0,-4.474651652E0,3.856237261E-1,5.019826864E0
1.162116092E1,1.581175405E0,-4.252552182E0,6.350719392E-1,4.581226047E0
1.163122792E1,8.511382520E-1,-4.037490129E0,6.952180074E-1,4.184386567E0
1.164129592E1,1.731085736E-1,-3.942505911E0,6.046580856E-1,3.992359057E0
1.165136292E1,-3.885012871E-1,-3.807409794E0,4.547531641E-1,3.854102105E0
1.166143092E1,-8.823904502E-1,-3.582368590E0,1.922691683E-1,3.694447869E0
1.167149892E1,-1.184349437E0,-3.444774250E0,-1.862075792E-1,3.647441088E0
1.168156592E1,-1.270646154E0,-3.282394148E0,-4.261907581E-1,3.545460697E0
1.169163392E1,-1.386256717E0,-2.940263912E0,-4.346504366E-1,3.279600671E0
1.170170092E1,-1.539240344E0,-2.602369400E0,-4.509338359E-1,3.056947604E0
1.171176892E1,-1.975847844E0,-2.236063997E0,-4.832524931E-1,3.022828125E0
1.172183592E1,-2.255210851E0,-2.004074254E0,-4.461519098E-1,3.049810015E0
1.173190392E1,-2.434233883E0,-1.859445714E0,-3.797609422E-1,3.086624586E0
1.174197192E1,-2.785637510E0,-1.615173748E0,-3.670624709E-1,3.240879114E0
1.175203892E1,-2.762060367E0,-1.358880931E0,-2.431227683E-1,3.087821811E0
1.176210692E1,-2.620291116E0,-1.393685605E0,-1.978932396E-1,2.974465806E0
1.177217392E1,-2.602375832E0,-1.350962631E0,-2.281045604E-1,2.941001818E0
1.178224192E1,-2.483604264E0,-1.263663263E0,-2.078405229E-1,2.794339397E0
1.179230892E1,-2.299461409E0,-1.094608272E0,-3.407932699E-2,2.546929807E0
1.180237692E1,-2.175568850E0,-9.156673931E-1,1.467007204E-1,2.364966743E0
1.181244492E1,-2.033032444E0,-6.861014673E-1,3.760753691E-1,2.178391338E0
1.182251192E1,-1.941786059E0,-5.398905974E-1,5.838082302E-1,2.098296215E0
1.183257992E1,-1.902554165E0,-3.629331672E-1,7.257312638E-1,2.068361357E0
1.184264692E1,-1.828403285E0,-1.842187949E-1,8.568110745E-1,2.027589789E0
1.185271492E1,-1.852851663E0,-5.461335051E-2,8.604986210E-1,2.043648644E0
1.186278192E1,-1.866400831E0,7.096151680E-2,8.448951799E-1,2.049959869E0
1.187284992E1,-1.645555004E0,1.917710587E-1,9.191868322E-1,1.894605986E0
1.188291792E1,-1.315376185E0,3.261002402E-1,1.091099723E0,1.739843234E0
1.189298492E1,-1.134922923E0,4.267025357E-1,1.213237533E0,1.715246457E0
1.190305292E1,-9.004723799E-1,5.057636156E-1,1.388564613E0,1.730537208E0
1.191311992E1,-5.549645001E-1,7.413491037E-1,1.427726340E0,1.701759852E0
1.192318792E1,-5.232322454E-2,9.515973638E-1,1.445884869E0,1.731721200E0
1.193325492E1,6.699418098E-1,1.005617597E0,1.368858327E0,1.825886606E0
1.194332292E1,1.421763350E0,1.013987009E0,1.272667537E0,2.160847828E0
1.195339092E1,1.998315185E0,1.000876820E0,1.136168380E0,2.507169037E0
1.196345792E1,2.338501514E0,1.000697969E0,9.499783429E-1,2.715224596E0
1.197352592E1,2.536316328E0,9.668087491E-1,7.734362112E-1,2.822379005E0
1.198359292E1,2.631312532E0,8.552111301E-1,4.731375410E-1,2.806964705E0
1.199366092E1,2.773777603E0,6.771759850E-1,6.737688124E-2,2.856037316E0
1.200372792E1,3.438544627E0,3.674238288E-1,-3.584058143E-1,3.476642655E0
1.201379592E1,4.503074090E0,8.463700304E-2,-8.261061756E-1,4.579005471E0
1.202386392E1,5.319557065E0,1.207450032E-3,-1.666214386E0,5.574402139E0
1.203393092E1,5.527808574E0,-1.593239271E-1,-1.953053789E0,5.864850454E0
1.204399892E1,5.629370617E0,-1.551631764E-1,-1.665295789E0,5.872571772E0
1.205406592E1,5.421029060E0,-6.772338724E-1,-1.966241015E0,5.806229889E0
1.206413392E1,4.260559067E0,-1.632077318E0,-2.658521381E0,5.280509054E0
1.207420192E1,2.531891740E0,-2.759755687E0,-3.069067256E0,4.842096763E0
1.208426892E1,8.538993073E-1,-3.517104893E0,-3.430098324E0,4.986456193E0
1.209433692E1,-2.872052926E-1,-4.072738607E0,-4.027198445E0,5.734807229E0
1.210440392E1,-8.303321046E-1,-3.990544296E0,-4.300022510E0,5.924870359E0
1.211447192E1,-1.312781775E0,-3.341930498E0,-3.890448443E0,5.294099029E0
1.212453892E1,-1.547059241E0,-2.236550778E0,-3.091155698E0,4.117134346E0
1.213460692E1,-1.497081335E0,-1.326401841E0,-1.923840954E0,2.775204205E0
1.214467492E1,-1.101917730E0,-1.002515795E0,-6.017102118E-1,1.606647373E0
1.215474192E1,-6.370705175E-1,-8.265078793E-1,-1.666089548E-1,1.056755725E0
1.216480992E1,-5.869727433E-2,-7.058618402E-1,-5.552124220E-1,8.999706335E-1
1.217487692E1,3.897204316E-1,-5.751547895E-1,-6.143219250E-1,9.274030808E-1
1.218494492E1,6.741816258E-1,-5.304753742E-1,-1.957204874E-1,8.799042541E-1
1.219501192E1,9.662757754E-1,-5.429619205E-1,1.920633464E-1,1.124893262E0
1.220507992E1,1.233679472E0,-5.717138859E-1,4.802670510E-1,1.442039614E0
1.221514792E1,1.354823840E0,-6.624621246E-1,6.614311874E-1,1.646783204E0
1.222521492E1,1.208334131E0,-7.447754990E-1,6.977019046E-1,1.581628864E0
1.223528292E1,7.643801898E-1,-7.939730944E-1,6.365243876E-1,1.272726854E0
1.224534992E1,1.545565277E-1,-8.748772167E-1,5.139782958E-1,1.026387623E0
1.225541792E1,-3.732651973E-1,-9.719730831E-1,4.559511124E-1,1.136639784E0
1.226548492E1,-8.281680501E-1,-1.059742129E0,4.180683178E-1,1.408437722E0
1.227555292E1,-1.180502554E0,-1.149209572E0,3.146702492E-1,1.677285392E0
1.228562092E1,-1.524649787E0,-1.256279107E0,2.147647226E-1,1.987188480E0
1.229568792E1,-1.840253252E0,-1.347470528E0,1.593791650E-1,2.286396854E0
1.230575592E1,-2.157547731E0,-1.388639458E0,1.579960062E-1,2.570660323E0
1.231582292E1,-2.430631998E0,-1.396977880E0,1.454616223E-1,2.807254565E0
1.232589092E1,-2.623702966E0,-1.394956936E0,1.911769085E-1,2.977628371E0
1.233595792E1,-2.755637786E0,-1.411999669E0,2.466835034E-1,3.106144785E0
1.234602592E1,-2.722437880E0,-1.451030418E0,3.123407185E-1,3.100760231E0
1.235609392E1,-2.648901542E0,-1.448901593E0,4.272309047E-1,3.049347709E0
1.236616092E1,-2.549404151E0,-1.433643869E0,5.453499234E-1,2.975265166E0
1.237622892E1,-2.412824888E0,-1.383950576E0,6.802451885E-1,2.863525214E0
1.238629592E1,-2.204678044E0,-1.308167299E0,8.363360256E-1,2.696546848E0
1.239636392E1,-2.080608314E0,-1.232399663E0,9.588088810E-1,2.601356253E0
1.240643137E1,-1.995185755E0,-1.152876361E0,1.186712297E0,2.591944478E0
1.241649937E1,-1.912741184E0,-9.644602881E-1,1.454323862E0,2.589173687E0
1.242656737E1,-1.886907016E0,-7.342149159E-1,1.589317507E0,2.573989077E0
1.243663437E1,-1.790361884E0,-5.135090567E-1,1.663886610E0,2.497519945E0
1.244670237E1,-1.620913083E0,-3.412132461E-1,1.721016684E0,2.388657390E0
1.245676937E1,-1.488522180E0,-1.236974634E-1,1.733301684E0,2.288085241E0
1.246683737E1,-1.471037251E0,8.209161870E-2,1.642895105E0,2.206760965E0
1.247690437E1,-1.524649202E0,2.787059809E-1,1.477053013E0,2.141008598E0
1.248697237E1,-1.522179338E0,3.742029445E-1,1.177486999E0,1.960493156E0
1.249704037E1,-1.403501911E0,4.104477147E-1,9.213333450E-1,1.728334479E0
1.250710737E1,-1.149160309E0,5.041243487E-1,6.912660205E-1,1.432675639E0
1.251717537E1,-8.090353757E-1,5.350078800E-1,3.339461803E-1,1.025812713E0
1.252724237E1,-4.335225087E-1,6.469334547E-1,1.925055420E-1,8.021988807E-1
1.253731037E1,9.393961251E-2,6.484272721E-1,3.695849597E-2,6.562381492E-1
1.254737737E1,7.167341530E-1,6.506494334E-1,-8.036471665E-2,9.713449536E-1
1.255744537E1,1.301676743E0,6.930124377E-1,-6.895226732E-2,1.476273348E0
1.256751337E1,1.799433839E0,8.708369368E-1,-1.028683108E-1,2.001724507E0
1.257758038E1,2.269252355E0,1.018676329E0,-3.587828135E-1,2.513151969E0
1.258764837E1,2.631354632E0,1.036959988E0,-5.560949130E-1,2.882456378E0
1.259771537E1,2.856446123E0,1.058533802E0,-6.206034426E-1,3.108846554E0
1.260778337E1,3.283193462E0,9.891367076E-1,-7.610461074E-1,3.512398314E0
1.261785037E1,3.728592251E0,1.002054084E0,-1.039324894E0,3.998338254E0
1.262791837E1,4.309590894E0,1.033472636E0,-1.278329396E0,4.612457632E0
1.263798637E1,5.259013240E0,9.948476100E-1,-1.361886838E0,5.522832406E0
1.264805338E1,6.203495273E0,1.015306287E0,-1.536979226E0,6.471205884E0
1.265812137E1,6.539533587E0,1.074083156E0,-1.847429101E0,6.879836368E0
1.266818837E1,6.155877888E0,1.034022932E0,-2.268413571E0,6.641516101E0
1.267825637E1,5.441407192E0,8.838253570E-1,-2.945094590E0,6.250091330E0
1.268832337E1,4.506694686E0,7.541421537E-1,-3.767260765E0,5.922101068E0
1.269839137E1,2.926254861E0,3.879891076E-1,-4.145721506E0,5.089254352E0
1.270845937E1,1.354234441E0,-2.031149859E-1,-4.542902400E0,4.744804404E0
1.271852637E1,-2.128287095E-1,-6.103411041E-1,-4.115683774E0,4.166133130E0
1.272859437E1,-1.308924952E0,-8.571933362E-1,-3.224621319E0,3.584166234E0
1.273866137E1,-2.221699873E0,-9.916357344E-1,-2.480534475E0,3.474527743E0
1.274872937E1,-2.663082794E0,-1.231200691E0,-1.931609711E0,3.512688598E0
1.275879737E1,-2.436892027E0,-1.563358355E0,-1.565867980E0,3.291576313E0
1.276886437E1,-1.781386408E0,-1.932441477E0,-1.364142694E0,2.961174241E0
1.277893237E1,-8.590723389E-1,-2.441990945E0,-1.272699258E0,2.884629692E0
1.278899937E1,4.511009932E-2,-2.937090044E0,-1.080756510E0,3.129946881E0
1.279906737E1,6.929716533E-1,-3.384191834E0,-7.445385405E-1,3.533737641E0
1.280913437E1,9.476810449E-1,-3.682237572E0,-4.295886482E-1,3.826423827E0
1.281920237E1,7.785684586E-1,-3.860028011E0,-2.632708848E-1,3.946555036E0
1.282927037E1,4.019498831E-1,-3.696171194E0,-1.381828621E-2,3.717988186E0
1.283933737E1,8.097224236E-2,-3.365944428E0,1.921243036E-1,3.372395312E0
1.284940537E1,-2.018675190E-1,-3.118702223E0,2.507147200E-1,3.135269035E0
1.285947237E1,-1.859180689E-1,-3.141728266E0,3.666389863E-1,3.168508509E0
1.286954037E1,-3.687119704E-1,-3.162730587E0,3.964306232E-1,3.208733477E0
1.287960737E1,-6.835307389E-1,-3.113808981E0,2.144513118E-1,3.195154144E0
1.288967537E1,-9.101074219E-1,-3.005395755E0,-6.246682808E-2,3.140796279E0
1.289974337E1,-1.182156147E0,-2.733607231E0,-2.499030534E-1,2.988737725E0
1.290981038E1,-1.663414155E0,-2.238000595E0,-3.045896494E-1,2.805061170E0
1.291987837E1,-2.044363178E0,-1.882617937E0,-4.557436824E-1,2.816269413E0
1.292994537E1,-2.134233713E0,-1.770814058E0,-5.449113822E-1,2.826245634E0
1.294001337E1,-2.382597122E0,-1.580363812E0,-5.333865932E-1,2.908405075E0
1.295008037E1,-2.550064301E0,-1.293974352E0,-3.954929490E-1,2.886799653E0
1.296014837E1,-2.511829358E0,-1.048540106E0,-9.385723986E-2,2.723514689E0
1.297021637E1,-2.626297376E0,-9.077134256E-1,1.329287734E-1,2.781915101E0
1.298028337E1,-2.576753333E0,-8.422247565E-1,4.524276533E-1,2.748397908E0
1.299035137E1,-2.481819693E0,-7.043436107E-1,7.342236867E-1,2.682277639E0
1.300041837E1,-2.514618480E0,-5.359920394E-1,9.361251196E-1,2.736224371E0
1.301048637E1,-2.568778900E0,-3.859983864E-1,1.153943258E0,2.842394208E0
1.302055337E1,-2.562090855E0,-2.419592455E-1,1.391700475E0,2.925693770E0
1.303062137E1,-2.507978382E0,-6.613286784E-2,1.635497208E0,2.994858968E0
1.304068937E1,-2.475350334E0,1.015617322E-1,1.723341683E0,3.017876840E0
1.305075637E1,-2.490232667E0,2.483508187E-1,1.745045378E0,3.050921211E0
1.306082437E1,-2.479222945E0,4.106941018E-1,1.710128145E0,3.039696421E0
1.307089137E1,-2.322802910E0,5.162360519E-1,1.631620504E0,2.885151380E0
1.308095937E1,-2.095598820E0,4.844681658E-1,1.621899947E0,2.693845441E0
1.309102637E1,-1.892970579E0,4.526057741E-1,1.625442921E0,2.535794607E0
1.310109437E1,-1.618586476E0,4.462986749E-1,1.707786920E0,2.394898923E0
1.311116237E1,-1.186707035E0,4.487585986E-1,1.796333646E0,2.199198134E0
1.312122937E1,-4.792418879E-1,4.287707689E-1,1.855833743E0,1.964086566E0
1.313129737E1,3.482139713E-1,4.448808713E-1,1.898118467E0,1.980410482E0
1.314136437E1,1.133935913E0,3.764827739E-1,1.832547791E0,2.187642873E0
1.315143237E1,2.168086753E0,2.775607489E-1,1.890203092E0,2.889724531E0
1.316149937E1,2.901649193E0,3.027015835E-1,1.664898763E0,3.359030243E0
1.317156737E1,3.376857671E0,3.184984213E-1,1.261366038E0,3.618791685E0
1.318163537E1,3.565347930E0,2.492146169E-1,6.808907211E-1,3.638327358E0
1.319170237E1,3.293558822E0,6.980742261E-2,-1.812812269E-2,3.294348406E0
1.320177037E1,3.123027116E0,-2.042588658E-1,-7.803390685E-1,3.225515325E0
1.321183737E1,3.510315691E0,-3.870548321E-1,-1.623138533E0,3.886734669E0
1.322190537E1,4.714545661E0,-1.934929540E-2,-2.822881351E0,5.495086378E0
1.323197237E1,6.263303518E0,1.829790829E0,-5.866989766E0,8.774888852E0
1.324204038E1,7.306404691E0,2.394575289E0,-9.338213897E0,1.209627129E1
1.325210737E1,5.523646526E0,4.147438102E-1,-9.171378801E0,1.071433024E1
1.326217537E1,2.380055922E0,-4.528144466E-1,-7.542304759E0,7.921872770E0
1.327224337E1,1.281914324E-1,-1.839108513E0,-7.319987773E0,7.548574313E0
1.328231037E1,9.459216177E-2,-2.955132797E0,-6.178405455E0,6.849412493E0
1.329237837E1,2.863270408E-1,-3.595799645E0,-3.236487658E0,4.846298651E0
1.330244537E1,1.464785993E-1,-3.517344044E0,-1.623783481E-1,3.524135615E0
1.331251337E1,-1.119024344E0,-2.890774541E0,1.049723729E0,3.272722542E0
1.332258137E1,-1.542767969E0,-2.294118224E0,1.515325817E0,3.152669308E0
1.333264837E1,-1.671948751E0,-1.279021852E0,1.750888501E0,2.738050413E0
1.334271637E1,-1.515304767E0,-2.562378538E-1,1.934577026E0,2.470707317E0
1.335278337E1,-8.074928802E-1,4.312648988E-1,1.914809929E0,2.122388096E0
1.336285137E1,3.761806190E-2,8.345176877E-1,1.417941610E0,1.645719690E0
1.337291837E1,9.144004476E-1,9.285385765E-1,1.058253574E0,1.678753315E0
1.338298637E1,1.571577786E0,9.178409493E-1,1.285290506E0,2.228062034E0
1.339305437E1,1.777265291E0,9.815190281E-1,1.721533139E0,2.661903053E0
1.340312100E1,1.911578758E0,9.738514280E-1,2.113560882E0,3.011587547E0
1.341318900E1,1.843102600E0,8.862966827E-1,2.363596594E0,3.125562008E0
1.342325600E1,1.503932517E0,7.494173111E-1,2.457808687E0,2.977291196E0
1.343332400E1,1.122223356E0,5.744059074E-1,2.398521429E0,2.709655412E0
1.344339100E1,5.383554840E-1,3.685027863E-1,2.193388824E0,2.288356499E0
1.345345900E1,-1.265454412E-1,1.074845414E-1,1.942194779E0,1.949278645E0
1.346352700E1,-6.833851433E-1,-2.028954595E-1,1.813657191E0,1.948726310E0
1.347359400E1,-1.125452188E0,-4.638078699E-1,1.654533404E0,2.054079149E0
1.348366200E1,-1.603549191E0,-6.217715701E-1,1.406704431E0,2.221888217E0
1.349372900E1,-1.936027136E0,-7.288370124E-1,1.266235600E0,2.425439559E0
1.350379700E1,-2.163798990E0,-7.519440392E-1,1.076087655E0,2.530891255E0
1.351386400E1,-2.355542639E0,-7.939556989E-1,8.284802914E-1,2.620176782E0
1.352393200E1,-2.597727880E0,-8.543299547E-1,6.152405226E-1,2.802961061E0
1.353399900E1,-2.884923817E0,-8.535230389E-1,4.714738985E-1,3.045254447E0
1.354406700E1,-3.209498665E0,-8.102878493E-1,3.757034497E-1,3.331456312E0
1.355413500E1,-3.458460828E0,-7.809748802E-1,3.338550003E-1,3.561226225E0
1.356420200E1,-3.564108905E0,-7.584142756E-1,3.054702401E-1,3.656689291E0
1.357427000E1,-3.573056899E0,-7.756197077E-1,3.243812684E-1,3.670632744E0
1.358433700E1,-3.460443619E0,-7.694403702E-1,3.867435410E-1,3.565989216E0
1.359440500E1,-3.230343989E0,-7.409638453E-1,4.531965987E-1,3.345076511E0
1.360447200E1,-2.895370452E0,-6.683694935E-1,5.326158571E-1,3.018868577E0
1.361454000E1,-2.506988449E0,-5.693246770E-1,6.498051685E-1,2.651672760E0
1.362460800E1,-2.073678194E0,-4.760194874E-1,7.698192698E-1,2.262599724E0
1.363467500E1,-1.691534584E0,-3.503825574E-1,9.222713846E-1,1.958224117E0
1.364474300E1,-1.460894086E0,-1.159334756E-1,1.008583889E0,1.779014773E0
1.365481000E1,-1.275738494E0,1.500727366E-1,1.008599092E0,1.633187883E0
1.366487800E1,-9.936173558E-1,4.669358379E-1,1.017470487E0,1.496846926E0
1.367494500E1,-6.964448994E-1,7.583328532E-1,9.435423857E-1,1.396558788E0
1.368501300E1,-4.364168805E-1,9.464771763E-1,6.904860751E-1,1.250219884E0
1.369508100E1,-1.889293849E-1,1.151894613E0,4.544771755E-1,1.252639220E0
1.370514800E1,1.150556624E-2,1.285133216E0,1.674958313E-1,1.296053476E0
1.371521600E1,1.357998294E-1,1.415347785E0,-2.176982707E-1,1.438417006E0
1.372528300E1,4.727450466E-1,1.364366204E0,-4.612727364E-1,1.515834936E0
1.373535100E1,1.052813982E0,1.375529708E0,-5.209073925E-1,1.808823864E0
1.374541800E1,1.746911225E0,1.426166011E0,-6.261174401E-1,2.340442558E0
1.375548600E1,2.289063306E0,1.549442127E0,-8.241130060E-1,2.884396639E0
1.376555400E1,2.785660899E0,1.619661048E0,-1.010459091E0,3.377015862E0
1.377562100E1,3.139229751E0,1.632478291E0,-1.225280459E0,3.744470724E0
1.378568900E1,3.215145321E0,1.663385503E0,-1.445595431E0,3.897916997E0
1.379575600E1,3.148156695E0,1.657721159E0,-1.695073319E0,3.941091673E0
1.380582400E1,3.172250732E0,1.623499891E0,-1.842012679E0,4.011475702E0
1.381589100E1,3.580357148E0,1.534764008E0,-1.989110498E0,4.373901970E0
1.382595900E1,4.156362854E0,1.451260799E0,-2.273956439E0,4.955036626E0
1.383602700E1,4.662532339E0,1.441399177E0,-2.644709673E0,5.550795317E0
1.384609400E1,4.750372721E0,1.621415797E0,-3.098218549E0,5.898642925E0
1.385616200E1,4.368509778E0,1.748043246E0,-3.697764561E0,5.984396011E0
1.386622900E1,3.675137590E0,1.712853679E0,-4.020171846E0,5.709841127E0
1.387629700E1,2.652612185E0,1.384580321E0,-3.897977902E0,4.914025417E0
1.388636400E1,1.737704199E0,7.727053823E-1,-3.331743479E0,3.836300835E0
1.389643200E1,1.079712929E0,4.160632344E-1,-2.385588703E0,2.651400023E0
1.390650000E1,3.278703386E-1,2.267525379E-1,-1.560038890E0,1.610166765E0
1.391656700E1,-5.985513997E-1,-1.825712688E-2,-9.598819182E-1,1.131357767E0
1.392663500E1,-1.299507426E0,-3.013022717E-1,-5.800198191E-1,1.454622150E0
1.393670200E1,-1.547560932E0,-6.702416258E-1,-4.005799536E-1,1.733387716E0
1.394677000E1,-1.372934421E0,-1.160664121E0,-3.331971520E-1,1.828417477E0
1.395683700E1,-1.000829896E0,-1.742776951E0,-2.312609970E-1,2.022971485E0
1.396690500E1,-5.666641939E-1,-2.363258041E0,-1.518989682E-1,2.434988742E0
1.397697300E1,6.373932838E-2,-3.067386766E0,-4.992937446E-2,3.068455184E0
1.398704000E1,6.064790547E-1,-3.743692978E0,2.455631769E-1,3.800441452E0
1.399710800E1,1.076850132E0,-4.419088193E0,4.941288990E-1,4.575162296E0
1.400717500E1,1.566148061E0,-4.740879474E0,8.256198335E-1,5.060672489E0
1.401724300E1,1.505738137E0,-4.626205927E0,1.059689723E0,4.979153636E0
1.402731000E1,1.239298062E0,-4.216744711E0,1.220590480E0,4.561429245E0
1.403737800E1,1.005642740E0,-3.952334204E0,1.437302325E0,4.324130080E0
1.404744600E1,8.298865467E-1,-3.864806356E0,1.594269660E0,4.262292294E0
1.405751300E1,2.395592558E-1,-3.511234873E0,1.347461611E0,3.768529125E0
1.406758100E1,-5.041995585E-1,-3.079221823E0,8.229002935E-1,3.226916349E0
1.407764800E1,-1.207689768E0,-2.565507967E0,3.479596174E-1,2.856820191E0
1.408771600E1,-1.796928892E0,-2.157090479E0,6.065026263E-2,2.808143734E0
1.409778300E1,-2.265258706E0,-1.826509664E0,-4.452361902E-2,2.910243445E0
1.410785100E1,-2.707546776E0,-1.606981215E0,-1.976627862E-1,3.154721659E0
1.411791900E1,-3.031556198E0,-1.436399808E0,-2.237495542E-1,3.362088823E0
1.412798600E1,-3.378787252E0,-1.182433305E0,1.484724998E-2,3.579744720E0
1.413805400E1,-3.639304683E0,-9.977592310E-1,2.192659275E-1,3.779965556E0
1.414812100E1,-3.762033647E0,-9.112599081E-1,3.283071256E-1,3.884723587E0
1.415818900E1,-3.877327291E0,-8.471115670E-1,4.261205184E-1,3.991596626E0
1.416825600E1,-3.864056450E0,-8.514230114E-1,4.536223125E-1,3.982665765E0
1.417832400E1,-3.667121642E0,-8.921398053E-1,4.033269024E-1,3.795572047E0
1.418839100E1,-3.397242234E0,-8.136906365E-1,4.134543164E-1,3.517711148E0
1.419845900E1,-3.121858842E0,-7.088866049E-1,3.714046133E-1,3.222803785E0
1.420852700E1,-2.746565831E0,-5.693851957E-1,4.204546030E-1,2.836301366E0
1.421859400E1,-2.388493454E0,-2.460213062E-1,5.098210716E-1,2.454657815E0
1.422866200E1,-2.037728927E0,-3.691084117E-2,7.008460987E-1,2.155199955E0
1.423872900E1,-1.649876681E0,6.707692822E-2,1.040067637E0,1.951495085E0
1.424879700E1,-1.308490503E0,1.011349129E-1,1.474466643E0,1.973937069E0
1.425886400E1,-1.100783955E0,1.700262321E-1,1.725528542E0,2.053797211E0
1.426893200E1,-8.940299177E-1,3.021946299E-1,1.731704371E0,1.972158999E0
1.427900000E1,-7.305183792E-1,4.876314729E-1,1.654725192E0,1.873381172E0
1.428906700E1,-5.839099717E-1,5.875612655E-1,1.435389701E0,1.657263615E0
1.429913500E1,-1.176319456E-1,5.149604818E-1,1.514492004E0,1.603966210E0
1.430920200E1,5.197391188E-1,5.685709709E-1,1.776010478E0,1.935875750E0
1.431927000E1,7.985770458E-1,8.012644261E-1,1.517909117E0,1.893092197E0
1.432933700E1,1.243728497E0,9.125930732E-1,1.278580241E0,2.003610273E0
1.433940500E1,1.805143645E0,9.735233992E-1,8.079010159E-1,2.204312918E0
1.434947300E1,2.246775073E0,1.127903341E0,5.107314831E-1,2.565348090E0
1.435954000E1,2.564188251E0,1.195765103E0,2.259060073E-1,2.838300388E0
1.436960800E1,2.895354080E0,1.206070820E0,-8.966241080E-2,3.137789257E0
1.437967500E1,3.238691474E0,1.288525624E0,-8.386990316E-1,3.585085328E0
1.438974300E1,3.574038062E0,1.089752305E0,-2.245523184E0,4.359321338E0
1.439981000E1,3.759667279E0,7.283476004E-1,-3.318907086E0,5.067616059E0
1.440987862E1,6.715695577E0,-1.219596599E0,-6.700261266E0,9.564595338E0
1.441994662E1,8.385411860E0,-1.942601014E0,-1.009015881E1,1.326273485E1
1.443001362E1,4.664174822E0,-7.372838270E-1,-1.150059377E1,1.243228745E1
1.444008162E1,2.258081834E0,-2.953468277E-1,-1.270005416E1,1.290261753E1
1.445014862E1,8.688015211E-1,-1.095071371E0,-9.402769496E0,9.506107068E0
1.446021662E1,-5.344004273E-2,-1.887453877E0,-4.982261599E0,5.328064247E0
1.447028362E1,-2.591123450E-1,-2.438659056E0,-1.585591807E0,2.920325081E0
1.448035162E1,-4.415910816E-1,-2.604772021E0,5.326848543E-1,2.695105400E0
1.449041962E1,-1.257151365E-1,-2.440695933E0,1.559523751E0,2.899123189E0
1.450048662E1,-2.282811463E-2,-1.959250376E0,1.834245822E0,2.683959928E0
1.451055462E1,-3.974966437E-1,-9.820806532E-1,2.218025483E0,2.458073033E0
1.452062162E1,-6.521703672E-1,-1.605771133E-1,2.822528179E0,2.901340469E0
1.453068962E1,-6.320384037E-1,2.937053499E-1,2.843996816E0,2.928148436E0
1.454075662E1,-2.535621679E-1,5.777081224E-1,2.021508751E0,2.117672798E0
1.455082462E1,4.978389573E-1,6.489742792E-1,1.515045151E0,1.721735476E0
1.456089162E1,1.085691122E0,5.744430372E-1,1.691033478E0,2.090048860E0
1.457095962E1,1.348764955E0,5.189354190E-1,2.114472463E0,2.561143235E0
1.458102762E1,1.496335815E0,4.316768351E-1,2.519318472E0,2.961812169E0
1.459109462E1,1.505659200E0,3.842372051E-1,2.906498873E0,3.295813034E0
1.460116262E1,1.318646532E0,2.737789160E-1,3.073922199E0,3.356006743E0
1.461122962E1,1.015939686E0,8.505359888E-2,3.162903957E0,3.323150464E0
1.462129762E1,5.078394502E-1,4.852721214E-2,3.218102843E0,3.258288155E0
1.463136462E1,-2.655220628E-2,5.467789829E-2,3.188231757E0,3.188811131E0
1.464143262E1,-5.329304373E-1,6.124549091E-2,3.083580630E0,3.129893826E0
1.465150062E1,-1.040250070E0,2.404492021E-2,2.866245471E0,3.049272285E0
1.466156762E1,-1.481049439E0,-4.028965473E-2,2.591455572E0,2.985091737E0
1.467163562E1,-1.904080873E0,-8.943404049E-2,2.319149569E0,3.001995527E0
1.468170262E1,-2.220028154E0,-1.338360420E-1,2.104442149E0,3.061880770E0
1.469177062E1,-2.472027361E0,-1.685266954E-1,1.869370047E0,3.103846790E0
1.470183762E1,-2.652447293E0,-2.015301347E-1,1.598946848E0,3.103662685E0
1.471190562E1,-2.726020469E0,-2.352776322E-1,1.362477261E0,3.056613722E0
1.472197362E1,-2.766284396E0,-2.551461786E-1,1.155296377E0,3.008677226E0
1.473204062E1,-2.740639678E0,-2.825754855E-1,1.013446434E0,2.935647871E0
1.474210862E1,-2.753396548E0,-2.925256741E-1,9.661646783E-1,2.932616239E0
1.475217562E1,-2.790145714E0,-2.853207533E-1,9.413257062E-1,2.958448093E0
1.476224362E1,-2.763736179E0,-3.172959414E-1,9.352410936E-1,2.934891870E0
1.477231062E1,-2.632091966E0,-3.886609161E-1,9.031679463E-1,2.809746922E0
1.478237862E1,-2.458797451E0,-4.277872307E-1,8.591033292E-1,2.639459291E0
1.479244662E1,-2.368807633E0,-3.671666975E-1,8.217489767E-1,2.534034800E0
1.480251362E1,-2.239376591E0,-2.979016042E-1,7.541493165E-1,2.381657841E0
1.481258162E1,-1.977102072E0,-2.397382537E-1,6.372126049E-1,2.091039678E0
1.482264862E1,-1.711162518E0,-1.350914392E-1,5.362645197E-1,1.798306563E0
1.483271662E1,-1.471344815E0,-1.053273574E-2,4.356111342E-1,1.534510855E0
1.484278362E1,-1.246890671E0,1.463382661E-1,3.454798132E-1,1.302116560E0
1.485285162E1,-1.155266556E0,2.999109267E-1,2.529166353E-1,1.220063197E0
1.486291862E1,-1.170078138E0,4.414665359E-1,1.744323832E-1,1.262696404E0
1.487298662E1,-1.102071512E0,5.624923517E-1,7.014027536E-2,1.239305822E0
1.488305462E1,-8.925844860E-1,6.868694991E-1,-7.274053216E-2,1.128622150E0
1.489312162E1,-4.338756806E-1,7.041315030E-1,-1.971523243E-1,8.502460342E-1
1.490318962E1,1.314781523E-1,6.871171287E-1,-2.404913020E-1,7.397651785E-1
1.491325662E1,8.161958760E-1,7.441657075E-1,-2.322473127E-1,1.128670511E0
1.492332462E1,1.632695222E0,8.435998754E-1,-2.064347792E-1,1.849316024E0
1.493339162E1,2.403458818E0,9.631725850E-1,-2.214516350E-1,2.598722098E0
1.494345962E1,2.985360855E0,1.111397967E0,-2.663892414E-1,3.196646384E0
1.495352762E1,3.243966832E0,1.317043518E0,-3.317564346E-1,3.516814861E0
1.496359462E1,3.145426630E0,1.406335471E0,-4.875782633E-1,3.479830557E0
1.497366262E1,2.880710898E0,1.418163804E0,-6.167245460E-1,3.269561594E0
1.498372962E1,2.814811023E0,1.402807846E0,-8.632992911E-1,3.261336630E0
1.499379762E1,3.277246844E0,1.389182372E0,-1.252778233E0,3.773543141E0
1.500386462E1,3.872689864E0,1.291764251E0,-1.790554258E0,4.457854440E0
1.501393262E1,4.095832477E0,1.364687216E0,-2.337507488E0,4.909394681E0
1.502400062E1,4.255505903E0,1.452778736E0,-2.945524945E0,5.375501256E0
1.503406762E1,4.014204762E0,1.646393348E0,-3.690602891E0,5.696051319E0
1.504413562E1,3.172430826E0,1.750312842E0,-4.391724393E0,5.693430911E0
1.505420262E1,2.038408374E0,1.644630559E0,-4.234978083E0,4.979453558E0
1.506427062E1,1.080604044E0,1.349423060E0,-3.175490089E0,3.615575335E0
1.507433762E1,4.533597726E-1,1.085571985E0,-1.916964628E0,2.249167624E0
1.508440562E1,-1.911443102E-1,7.532654368E-1,-1.199525886E0,1.429268105E0
1.509447362E1,-8.210899955E-1,3.331730323E-1,-6.336124742E-1,1.089338248E0
1.510454062E1,-1.343103096E0,-6.107694492E-2,-3.238223112E-1,1.382937891E0
1.511460862E1,-1.674482349E0,-4.228364298E-1,-2.415624388E-1,1.743856128E0
1.512467562E1,-1.739114547E0,-9.139848568E-1,-3.348846585E-1,1.992996604E0
1.513474362E1,-1.312740260E0,-1.441583072E0,-3.012449690E-1,1.972865245E0
1.514481062E1,-6.348591006E-1,-2.019930295E0,-2.821532983E-1,2.136065298E0
1.515487862E1,8.667093873E-2,-2.649898200E0,-2.290214038E-1,2.661188292E0
1.516494562E1,7.015237910E-1,-3.144942773E0,2.853265822E-2,3.222361678E0
1.517501362E1,1.105841796E0,-3.475527389E0,2.686456454E-1,3.657095458E0
1.518508162E1,1.430281574E0,-3.735692233E0,5.321608707E-1,4.035380655E0
1.519514862E1,1.705548606E0,-3.907176450E0,7.518028289E-1,4.328987335E0
1.520521662E1,1.646261348E0,-3.913909518E0,8.883101714E-1,4.337967163E0
1.521528362E1,1.515490708E0,-3.964090616E0,1.298443233E0,4.438094335E0
1.522535162E1,1.335700521E0,-4.055023005E0,1.639225978E0,4.573223071E0
1.523541862E1,4.213766724E-1,-3.779563307E0,1.465159045E0,4.075456799E0
1.524548662E1,-4.331827855E-1,-3.396234174E0,8.867156357E-1,3.536710125E0
1.525555462E1,-1.016488740E0,-2.835860415E0,3.788574743E-1,3.036261951E0
1.526562162E1,-1.485734228E0,-2.336331905E0,1.147059806E-1,2.771102746E0
1.527568962E1,-1.744535501E0,-1.941929315E0,-1.597401073E-2,2.610507374E0
1.528575662E1,-2.012770672E0,-1.639001445E0,-8.094299714E-2,2.596944990E0
1.529582462E1,-2.301478699E0,-1.483287461E0,-1.392198658E-1,2.741592250E0
1.530589162E1,-2.558039319E0,-1.424666492E0,-1.533303483E-1,2.932021481E0
1.531595962E1,-2.752903628E0,-1.265954056E0,-3.328936815E-2,3.030218843E0
1.532602762E1,-2.939484771E0,-1.093708239E0,1.191533546E-1,3.138624851E0
1.533609462E1,-3.005709166E0,-9.557537109E-1,8.397540886E-2,3.155123550E0
1.534616262E1,-3.081540536E0,-8.508996856E-1,1.616942604E-1,3.200947889E0
1.535622962E1,-3.072983721E0,-8.497129932E-1,2.152056392E-1,3.195552313E0
1.536629762E1,-2.970833448E0,-7.024537906E-1,4.393912860E-1,3.084210986E0
1.537636462E1,-2.713089352E0,-5.161603670E-1,3.998898359E-1,2.790553213E0
1.538643262E1,-2.409384386E0,-1.517408010E-1,5.856582892E-1,2.484180755E0
1.539649962E1,-2.409227096E0,2.374109888E-1,5.101578712E-1,2.474065527E0
1.540656725E1,-2.151226891E0,2.853113794E-1,5.605433285E-1,2.241291713E0
1.541663525E1,-2.026302298E0,3.009237010E-1,5.973000590E-1,2.133828353E0
1.542670225E1,-2.086891732E0,2.048437883E-1,6.065925272E-1,2.182895456E0
1.543677025E1,-2.153984438E0,4.189734668E-2,8.008732474E-1,2.298434751E0
1.544683725E1,-2.194933074E0,-7.276823334E-3,9.390137172E-1,2.387369036E0
1.545690525E1,-1.894444662E0,6.174575675E-2,1.145708697E0,2.214809593E0
1.546697225E1,-1.277292100E0,1.916787823E-1,1.142578098E0,1.724442105E0
1.547704025E1,-7.881882977E-1,4.419802138E-1,1.532697895E0,1.779255501E0
1.548710825E1,-8.295684582E-1,7.038898668E-1,1.370169858E0,1.749574294E0
1.549717525E1,-4.441094774E-1,8.461368361E-1,1.081099303E0,1.442898637E0
1.550724325E1,1.162420624E-1,8.943582389E-1,7.926883149E-1,1.200726297E0
1.551731025E1,8.400688881E-1,9.040254405E-1,4.229168290E-1,1.304544510E0
1.552737825E1,1.704103174E0,9.001955143E-1,1.505634642E-1,1.933129315E0
1.553744525E1,2.429158500E0,9.078603369E-1,1.470516264E-1,2.597430575E0
1.554751325E1,2.907767719E0,9.456968654E-1,2.104143211E-1,3.064919225E0
1.555758125E1,3.289065236E0,1.069134000E0,1.627302774E-1,3.462293861E0
1.556764825E1,3.918977593E0,1.637492571E0,-5.160957918E-1,4.278565432E0
1.557771625E1,4.439782659E0,2.552924467E0,-1.930359430E0,5.473150913E0
1.558778325E1,4.678697551E0,3.299967955E0,-3.546438035E0,6.734777058E0
1.559785125E1,6.727190618E0,4.120480830E0,-6.056448909E0,9.945553241E0
1.560791825E1,7.508211399E0,4.145295829E0,-8.849598337E0,1.232364015E1
1.561798625E1,5.208332498E0,3.234674144E0,-8.783264015E0,1.071146913E1
1.562805425E1,3.271863313E0,1.299545433E0,-8.692700000E0,9.378536195E0
1.563812125E1,2.703471267E0,-8.057435395E-1,-5.995491686E0,6.626001818E0
1.564818925E1,2.200863905E0,-2.148220107E0,-2.264616097E0,3.819311145E0
1.565825625E1,1.372736201E0,-2.581832224E0,-1.603651518E-1,2.928477299E0
1.566832425E1,5.427373874E-1,-2.496537428E0,5.313996363E-1,2.609530336E0
1.567839125E1,7.676809430E-3,-2.419333716E0,7.706969368E-1,2.539135351E0
1.568845925E1,-5.365165347E-1,-2.351581151E0,8.186540455E-1,2.547151026E0
1.569852625E1,-1.295339531E0,-1.996282401E0,8.649458671E-1,2.532030663E0
1.570859425E1,-1.728658556E0,-1.456992093E0,5.741269952E-1,2.332532566E0
1.571866225E1,-1.366294323E0,-1.212537695E0,3.762759286E-1,1.865098231E0
1.572872925E1,-9.592059070E-1,-1.075878909E0,4.189827858E-1,1.501045627E0
1.573879725E1,-5.638136762E-1,-1.121398314E0,7.005133921E-1,1.437407059E0
1.574886425E1,-3.997448981E-2,-1.080192985E0,9.594380414E-1,1.445315260E0
1.575893225E1,2.943143374E-1,-9.688579059E-1,1.037772020E0,1.449923217E0
1.576899925E1,4.351521277E-1,-9.896587908E-1,1.211727855E0,1.623904644E0
1.577906725E1,5.074792618E-1,-1.043295008E0,1.458900771E0,1.863971870E0
1.578913525E1,5.500861681E-1,-1.113505450E0,1.728985416E0,2.128821210E0
1.579920225E1,5.887064427E-1,-1.235961056E0,1.961913929E0,2.392338035E0
1.580927025E1,4.241207707E-1,-1.368142043E0,2.081155613E0,2.526440137E0
1.581933725E1,5.158355176E-2,-1.381303249E0,2.144890264E0,2.551708011E0
1.582940525E1,-5.329427165E-1,-1.331338791E0,2.003439100E0,2.463789590E0
1.583947225E1,-1.054637729E0,-1.242868079E0,1.856754094E0,2.470732193E0
1.584954025E1,-1.446038066E0,-1.145989949E0,1.620614290E0,2.455750339E0
1.585960725E1,-1.724293025E0,-1.044448079E0,1.402089808E0,2.455588332E0
1.586967525E1,-1.913391979E0,-9.893842641E-1,1.131376587E0,2.433097423E0
1.587974325E1,-2.048060957E0,-9.471913406E-1,9.503947377E-1,2.448463861E0
1.588981025E1,-2.177963870E0,-9.244614592E-1,8.656796926E-1,2.519435837E0
1.589987825E1,-2.264189835E0,-9.454646578E-1,7.580564260E-1,2.568094347E0
1.590994525E1,-2.299877146E0,-9.358875033E-1,7.230795515E-1,2.586148554E0
1.592001325E1,-2.383303465E0,-8.649335879E-1,7.464292377E-1,2.642991132E0
1.593008025E1,-2.455249361E0,-8.220471847E-1,7.341495001E-1,2.691279712E0
1.594014825E1,-2.499334443E0,-8.504172903E-1,7.442160666E-1,2.742943634E0
1.595021625E1,-2.496398556E0,-8.486990860E-1,7.886484736E-1,2.752137770E0
1.596028325E1,-2.583458920E0,-7.537935135E-1,8.574134839E-1,2.824468540E0
1.597035125E1,-2.576863845E0,-6.522683081E-1,8.640249306E-1,2.795034938E0
1.598041825E1,-2.444547202E0,-5.117915833E-1,8.229383004E-1,2.629632882E0
1.599048625E1,-2.276583593E0,-3.375319853E-1,7.503784472E-1,2.420708267E0
1.600055325E1,-2.137163168E0,-1.778953601E-1,6.767941618E-1,2.248813799E0
1.601062125E1,-2.030165554E0,-4.213182002E-2,5.951173300E-1,2.116013209E0
1.602068925E1,-2.060522543E0,9.284731608E-2,5.726833542E-1,2.140640091E0
1.603075625E1,-2.112228886E0,2.066455347E-1,5.535325535E-1,2.193310633E0
1.604082425E1,-2.034604175E0,3.237410349E-1,5.566034746E-1,2.134064159E0
1.605089125E1,-1.658937526E0,5.005651120E-1,5.193953025E-1,1.808980549E0
1.606095925E1,-1.239778118E0,6.374513175E-1,3.533326238E-1,1.438136957E0
1.607102625E1,-7.492961276E-1,7.875593566E-1,2.965936186E-1,1.126792883E0
1.608109425E1,-2.512788302E-1,9.651194885E-1,2.535604137E-1,1.029023596E0
1.609116125E1,3.501318580E-1,1.214789969E0,1.770782848E-1,1.276582824E0
1.610122925E1,8.573234367E-1,1.395822178E0,-1.213215752E-1,1.642571749E0
1.611129725E1,1.431346352E0,1.270850807E0,-2.178871723E-1,1.926470600E0
1.612136425E1,2.092742456E0,1.277980755E0,-2.691566920E-1,2.466830177E0
1.613143225E1,2.999121108E0,1.194827429E0,-5.333940484E-1,3.272132212E0
1.614149925E1,3.715854676E0,1.093075790E0,-7.216416480E-1,3.939943823E0
1.615156725E1,4.053973430E0,1.033060480E0,-8.591752499E-1,4.270842614E0
1.616163425E1,3.981113614E0,8.571660005E-1,-1.213959153E0,4.249434785E0
1.617170225E1,3.749557443E0,6.475600570E-1,-1.461152533E0,4.075963907E0
1.618177025E1,3.409383393E0,4.957107170E-1,-1.596551975E0,3.797183488E0
1.619183725E1,3.673779282E0,3.421479966E-1,-1.778087409E0,4.095767852E0
1.620190525E1,4.149907528E0,2.394218463E-1,-2.016160303E0,4.619952129E0
1.621197225E1,4.382455387E0,1.544460884E-1,-2.125286304E0,4.873049424E0
1.622204025E1,4.189553989E0,1.720408720E-1,-2.340108329E0,4.801881681E0
1.623210725E1,3.668662384E0,2.039147023E-1,-2.629437330E0,4.518252490E0
1.624217525E1,2.848492155E0,1.966452245E-1,-2.860259677E0,4.041492586E0
1.625224325E1,1.697161360E0,1.225991553E-1,-2.810247856E0,3.285251931E0
1.626231025E1,5.227615446E-1,-9.795628421E-2,-2.191627643E0,2.255239852E0
1.627237825E1,-4.964490741E-1,-2.785332870E-1,-1.642916155E0,1.738739765E0
1.628244525E1,-1.328555224E0,-3.261443136E-1,-1.301762112E0,1.888389180E0
1.629251325E1,-2.019317799E0,-4.073038861E-1,-1.018239396E0,2.297901716E0
1.630258025E1,-2.300898655E0,-6.319906028E-1,-8.602178816E-1,2.536438753E0
1.631264825E1,-1.990055993E0,-1.004255853E0,-7.302845637E-1,2.345670100E0
1.632271525E1,-1.280381768E0,-1.506684217E0,-6.563546348E-1,2.083332957E0
1.633278325E1,-4.017931777E-1,-2.014294602E0,-6.221911079E-1,2.146145912E0
1.634285125E1,4.339721596E-1,-2.490203139E0,-5.674244050E-1,2.590639682E0
1.635291825E1,1.024871893E0,-2.937753703E0,-4.325051663E-1,3.141308634E0
1.636298625E1,1.357123550E0,-3.340957229E0,-2.859879023E-1,3.617398045E0
1.637305325E1,1.362966088E0,-3.555773115E0,-1.166052476E-1,3.809828839E0
1.638312125E1,1.262805623E0,-3.517937829E0,1.519842645E-1,3.740810584E0
1.639318825E1,1.074731686E0,-3.436524414E0,4.536310103E-1,3.629122392E0
1.640325625E1,6.611014044E-1,-3.381254485E0,5.417117492E-1,3.487604992E0
1.641332450E1,1.572614497E-1,-3.259183918E0,4.310689440E-1,3.291326694E0
1.642339150E1,-3.252028388E-1,-3.082164142E0,3.496397417E-2,3.099470142E0
1.643345950E1,-7.656250620E-1,-2.815377911E0,-2.869106112E-1,2.931697839E0
1.644352650E1,-1.233481252E0,-2.376850186E0,-4.477534622E-1,2.715027802E0
1.645359450E1,-1.507793434E0,-1.932122365E0,-4.817696393E-1,2.497726938E0
1.646366150E1,-1.745267572E0,-1.575466476E0,-3.978656030E-1,2.384607002E0
1.647372950E1,-1.989775327E0,-1.286283948E0,-3.043615898E-1,2.388800583E0
1.648379750E1,-2.224135239E0,-1.214526917E0,-2.827292125E-1,2.549860584E0
1.649386450E1,-2.306406732E0,-1.346566402E0,-1.865893658E-1,2.677231533E0
