Time (s),Linear Acceleration x (m/s^2),Linear Acceleration y (m/s^2),Linear Acceleration z (m/s^2),Absolute acceleration (m/s^2)
0.01057404167,8.484766579,-4.409834974,6.699675375,11.67576801
0.02054104167,7.127409725,-1.802282603,7.290376303,10.35363601
0.03050804167,5.970594242,-0.1755240583,7.726369261,9.766042507
0.04047404167,5.351185239,0.7553784013,7.893165765,9.565973332
0.05044104167,5.168839234,1.413942699,7.960848455,9.59641814
0.06040704167,5.052032331,1.849757316,7.427468952,9.171255521
0.07037404167,5.226420275,1.784870179,6.097430874,8.226779061
0.08034104167,5.769504402,0.7596778589,4.193756382,7.17299687
0.09030804167,6.324962992,-0.6941831964,2.320714577,6.772943474
0.1002740417,6.459744821,-1.779536349,1.011375423,6.776277224
0.1102410417,5.823338547,-2.546773489,-0.644133954,6.388445475
0.1202070417,4.448314916,-3.379626912,-2.547347685,6.139899339
0.1301740417,2.776996495,-3.878859846,-3.845793257,6.127592432
0.1401410417,1.139490768,-3.909181167,-4.285831903,5.911724935
0.1501080417,-0.5263148975,-3.159361714,-4.263741707,5.332735429
0.1600740417,-2.017958906,-2.008504543,-4.011648359,4.919305968
0.1700410417,-2.985415819,-1.031025503,-3.562351817,4.760889798
0.1800080417,-3.451942352,-0.2928221279,-2.618176762,4.342407208
0.1899740417,-3.57236225,0.157903474,-1.375501495,3.831280454
0.1999410417,-3.495381902,0.257138325,-0.4305989009,3.531179714
0.2099070417,-3.355287877,0.2736859453,0.222395339,3.373769468
0.2198740417,-3.000531456,0.426432175,0.6023170797,3.089954577
0.2298414167,-2.577708768,0.8524579686,0.6882066842,2.800874063
0.2398074167,-2.383302881,1.458009655,0.5709103688,2.851642233
0.2497744167,-2.129751822,1.829830005,0.1850947809,2.813961754
0.2597414167,-1.939954126,1.871739923,-0.1341309609,2.699041212
0.2697074167,-1.990361218,1.835812292,-0.3266862043,2.727355573
0.2796744167,-2.007621614,1.750332431,-0.7046795332,2.755137275
0.2896414167,-2.061786126,1.599067593,-1.03006539,2.80517627
0.2996074167,-2.180714985,1.482047851,-1.170474579,2.884786719
0.3095744167,-2.150597731,1.352489632,-1.180379178,2.801355709
0.3195414167,-1.87520206,1.074206021,-1.232126452,2.487656916
0.3295074167,-1.510412402,0.648777228,-1.248392236,2.064156169
0.3394744167,-1.23367421,0.1998873594,-1.136215743,1.689050984
0.3494414167,-1.029347937,-0.2340388995,-1.002319182,1.455669991
0.3594074167,-0.9348639482,-0.5759820244,-0.7679931843,1.339977397
0.3693744167,-0.9613904268,-0.7627675277,-0.5825768065,1.358485035
0.3793414167,-0.9806944245,-0.866085197,-0.3839656019,1.363559572
0.3893074167,-0.8977352983,-1.105261168,-0.1281709488,1.429670839
0.3992744167,-0.6324564797,-1.379354664,0.115907017,1.521859036
0.4092414167,-0.3051749557,-1.517831349,0.3751269507,1.593004704
0.4192074167,-0.1936609519,-1.648711623,0.5925474787,1.762630731
0.4291744167,-0.1451951355,-1.888483718,0.7112646675,2.023202859
0.4391414167,-0.05408148229,-2.098308128,0.7956095839,2.244730811
0.4491074167,0.05430250704,-2.353229773,0.781005578,2.480042105
0.4590744167,0.1306273824,-2.692414182,0.7629464525,2.801471922
0.4690414167,0.1675776923,-2.912837255,0.6146435219,2.981692442
0.4790074167,0.2339704871,-3.035945995,0.2462291747,3.054887736
0.4889744167,0.4206527871,-3.141091504,-0.1508886059,3.172723117
0.4989414167,0.5638721484,-3.023508967,-0.4963169636,3.115427548
0.5089074167,0.6881634879,-2.729863844,-0.8076145023,2.928816617
0.5188744167,0.9704881096,-2.477764065,-0.9373063302,2.821294931
0.5288414167,1.300985017,-2.385186561,-0.9349656167,2.873297348
0.5388074167,1.723104286,-2.386912659,-0.9285484437,3.086849954
0.5487744167,2.118518736,-2.396542585,-0.9752582681,3.344049444
0.5587414167,2.142554301,-2.301304159,-0.9493458203,3.284478232
0.5687074167,1.804943671,-2.171529301,-0.7543013442,2.922726754
0.5786744167,1.366229419,-2.071683416,-0.4248072338,2.517720435
0.5886414167,0.8668812954,-1.908505754,-0.03558388866,2.096459779
0.5986074167,0.3940193045,-1.860076044,0.368725346,1.93677373
0.6085744167,0.1547822303,-2.030355734,0.6025905832,2.123538876
0.6185414167,0.002616044283,-2.328807415,0.6922810972,2.429527514
0.6285074167,-0.1337082803,-2.753422568,0.6790447551,2.839069482
0.6384744167,-0.2849815965,-3.278444354,0.5682033272,3.339500998
0.6484414167,-0.4456110424,-3.837314794,0.4492811935,3.889139702
0.6584074167,-0.6584005755,-4.419144326,0.401342869,4.485911724
0.6683744167,-0.9489224088,-4.842228386,0.4276361167,4.95282769
0.6783414167,-1.266930833,-4.983272583,0.5376251668,5.169831737
0.6883074167,-1.540069479,-4.914721581,0.6398513802,5.189962621
0.6982744167,-1.714749784,-4.746713533,0.7089526054,5.096495854
0.7082414167,-1.826728642,-4.514062763,0.7861762708,4.932724733
0.7182074167,-1.753130323,-4.266434934,0.8858355566,4.696875303
0.7281744167,-1.50638367,-3.928713499,1.023948033,4.330410037
0.7381414167,-1.394185542,-3.4015873,1.037679634,3.81985975
0.7481074167,-1.334828702,-2.87469119,0.9996790912,3.323398168
0.7580744167,-1.204684299,-2.3599836,0.8793294328,2.791774902
0.7680414167,-1.110349415,-1.770132857,0.7226502927,2.210988376
0.7780074167,-1.094833828,-1.162692228,0.5746959293,1.697288938
0.7879744167,-1.128600914,-0.6345509523,0.4030123222,1.356028711
0.7979414167,-1.356092686,-0.148911041,0.2703892851,1.390781161
0.8079074167,-1.755798408,0.290167492,0.1852291207,1.789227501
0.8178744167,-2.165073098,0.5697219953,0.07252995931,2.239952068
0.8278414167,-2.593898538,0.7139093632,-0.03665385604,2.690598393
0.8378074167,-3.00184708,0.7980858797,-0.130435009,3.108864786
0.8477744167,-3.383591325,0.8406600416,-0.2395522392,3.494679504
0.8577414167,-3.764854928,0.8229602274,-0.397953969,3.874243607
0.8677074167,-4.113707415,0.8076177183,-0.5914342419,4.233748876
0.8776744167,-4.418015814,0.698719174,-0.8187715014,4.547247408
0.8876414167,-4.707541282,0.6074970549,-1.09657988,4.871599842
0.8976074167,-4.963535306,0.5791848367,-1.385797711,5.185804963
0.9075744167,-5.227948737,0.5353962082,-1.67464958,5.515663905
0.9175414167,-5.455155165,0.419519012,-1.925232006,5.800106237
0.9275074167,-5.635485635,0.2688412347,-2.120980414,6.027398433
0.9374744167,-5.777223896,0.06886002749,-2.262995395,6.20501457
0.9474414167,-5.799421096,-0.2717177725,-2.374031682,6.272411181
0.9574074167,-5.734381932,-0.7629572698,-2.435601108,6.276734238
0.9673744167,-5.579975093,-1.268742593,-2.479608861,6.236528675
0.9773414167,-5.302402503,-1.752793816,-2.469168658,6.106107789
0.9873074167,-4.82893591,-2.394401773,-2.494670119,5.939289594
0.9972744167,-4.310881959,-3.044691091,-2.562474432,5.866866482
1.007241417,-3.754909984,-3.525375487,-2.559177187,5.75126153
1.017207417,-3.019851242,-4.156454947,-2.487169896,5.708032353
1.027174417,-2.293190855,-5.050666421,-2.305056756,6.006766372
1.037141417,-1.572359558,-5.684115758,-2.101467086,6.2608027
1.047107417,-0.7845647782,-6.100659707,-1.806221287,6.41061823
1.057074417,-0.246075393,-6.119302969,-1.511873767,6.308104645
1.067041417,0.1876289642,-6.028779885,-1.27374474,6.16472361
1.077007417,0.9241284603,-6.316010905,-0.992298224,6.459927471
1.086974417,2.002816957,-6.830159501,-0.560752805,7.139803798
1.096941417,2.930464856,-7.070457845,-0.1189675958,7.654616365
1.106907417,3.733305691,-7.154944264,0.2682795366,8.074823386
1.116874417,4.451889904,-7.316826183,0.5456679388,8.582133919
1.126841417,5.066067402,-7.501936752,0.8831377244,9.095274938
1.136807417,5.264009101,-6.914506171,1.360448277,8.796079065
1.146774417,4.962371126,-5.123417478,2.06260883,7.424883099
1.156741417,4.619958762,-2.92114264,2.795471942,6.139361259
1.166707417,4.669356624,-1.489036735,3.545447516,6.048993286
1.176674417,5.054957108,-0.545701341,4.060360343,6.506681753
1.186641417,5.677935836,0.11244605,4.263070446,7.101082248
1.196607417,6.505190551,0.2405983061,4.263068107,7.781332876
1.206574417,7.250704114,0.2195430672,4.047440336,8.306785334
1.216541417,7.694928197,-0.6462331045,3.689497182,8.558149721
1.226507,7.53866019,-1.78911058,3.115656116,8.351025515
1.236474,6.840474574,-2.33776418,2.708102846,7.719524259
1.246441,5.685938335,-1.773187442,2.377594829,6.413037161
1.256407,4.362068485,-0.8220682347,2.022491083,4.877899941
1.266374,3.215683265,-0.3092364317,1.701881232,3.651389565
1.27634,2.140577942,0.2259311503,1.525006467,2.637946841
1.286307,1.199084421,0.8474194229,1.480471734,2.085118625
1.296274,0.4963122493,1.44411667,1.582167678,2.198875478
1.306241,0.03848520398,1.949734764,1.756015924,2.624221539
1.316207,-0.2427670383,2.494115219,2.118193631,3.281202648
1.326174,-0.3617110991,3.151634034,2.574380533,4.085470246
1.33614,-0.4065522265,3.807895698,2.917985144,4.814560381
1.346107,-0.4554887438,4.296919978,3.077034087,5.304632887
1.356074,-0.474829579,4.629736476,3.11340026,5.599391409
1.36604,-0.4627299356,4.924903922,3.090826499,5.832838596
1.376007,-0.4818322045,5.15080759,2.958977634,5.959742423
1.385974,-0.5695714295,5.238697089,2.778343109,5.957142707
1.39594,-0.5930070698,5.181933489,2.499382975,5.78368458
1.405907,-0.5903237826,5.13699062,2.219421798,5.626987464
1.415874,-0.5804735631,5.060062312,1.90783537,5.438843255
1.42584,-0.670810706,4.886048005,1.611860424,5.188597704
1.435807,-0.791468001,4.740972152,1.333773864,4.988205215
1.445774,-0.825114634,4.526848869,1.065285509,4.723135406
1.45574,-0.881926766,4.238206331,0.8537993199,4.412387223
1.465707,-0.9112254095,4.096759846,0.670189147,4.250050173
1.475674,-0.9171310973,4.09472326,0.5555989595,4.23279792
1.48564,-0.9080901325,4.03673116,0.5074371618,4.168611114
1.495607,-0.8317611641,3.960346643,0.5352758286,4.081996127
1.505574,-0.6710831863,3.943537652,0.591399049,4.043710511
1.51554,-0.4572937793,3.871125734,0.6531574503,3.952384939
1.525507,-0.1611907786,3.624846858,0.764587839,3.708111618
1.535474,0.1368213379,3.305540936,0.9169632822,3.433095195
1.54544,0.543399877,2.826611874,1.013692674,3.051653806
1.555407,1.071214585,2.135545244,1.026020871,2.60014865
1.565374,1.721127343,1.399635732,1.001635131,2.434036246
1.57534,2.368479604,0.6877764022,0.9846618334,2.655614984
1.585307,3.047193407,0.0355925864,0.9597825155,3.194970574
1.595274,3.695057884,-0.4597490251,0.8639395612,3.822461707
1.60524,4.139133448,-0.6199299896,0.8035384083,4.261738245
1.615207,4.70506557,-0.6313168573,0.6658885199,4.793705302
1.625174,5.539337529,-1.018710682,0.4261146712,5.648327666
1.63514,6.335672168,-1.378540147,0.268805786,6.48948159
1.645107,6.93501645,-1.392552415,0.1139487114,7.074364968
1.655074,7.346325971,-1.373540778,-0.07037825704,7.473959636
1.66504,7.532168026,-1.261716287,-0.1554032046,7.638693168
1.675007,7.711674623,-1.16398417,-0.1178916351,7.799915581
1.684974,7.918770137,-1.008128976,0.001850570664,7.982684257
1.69494,8.103953211,-0.6712287819,0.1203730472,8.132594629
1.704907,8.312084852,-0.5212026769,0.1198200468,8.329271497
1.714874,8.490755882,-0.6623258114,0.03892498769,8.516638192
1.72484,8.539647961,-1.162075054,-0.01256508172,8.618362002
1.734807,8.363639168,-2.035133348,-0.07755286373,8.608033592
1.744774,7.863782337,-2.953111707,-0.1939007608,8.402234161
1.75474,7.056773021,-3.72166447,-0.3257512345,7.984669421
1.764707,5.843274044,-4.560480884,-0.945774341,7.472370879
1.774674,4.330804008,-4.427024619,1.172657857,6.303137059
1.78464,3.957856899,-3.86867575,0.9313619777,5.612371908
1.794607,3.075522582,-4.398306019,-0.4148949607,5.382942766
1.804574,2.122949756,-3.663791068,0.3059110836,4.245451949
1.81454,1.92016364,-3.030841668,0.4474991814,3.615699813
1.824507,1.665249596,-2.995180085,0.6556880522,3.4891384
1.834474,1.317992229,-2.368533399,0.8635530603,2.844780811
1.84444,0.9966415358,-1.67748314,1.002234982,2.193563082
1.854407,0.677936123,-1.200780113,1.100525508,1.764263773
1.864374,0.4271297479,-0.8535642618,1.174337835,1.513301398
1.87434,0.1033238089,-0.5270943314,1.277484473,1.385810529
1.884307,-0.2550146163,-0.3287854278,1.269849764,1.33628243
1.894274,-0.5826902425,-0.279455393,1.236013681,1.394759138
1.90424,-0.8844580257,-0.3413581109,1.156241141,1.495220698
1.914207,-1.188330222,-0.5455563301,0.9971204958,1.644387335
1.924173,-1.624217929,-0.8780635107,0.8207631361,2.02057703
1.93414,-2.185282245,-1.214556738,0.6575918325,2.585156393
1.944107,-2.713723775,-1.524918759,0.5005216599,3.152807618
1.954073,-3.193991849,-1.842319073,0.3826663506,3.707041547
1.96404,-3.668572336,-2.151754895,0.2859270912,4.262654855
1.974007,-4.127681091,-2.408655823,0.2615553117,4.786207815
1.983973,-4.556249839,-2.680700747,0.2666674592,5.293078558
1.99394,-4.970711594,-2.994063851,0.2838729278,5.809731142
2.003907,-5.367194331,-3.307689788,0.3410493779,6.313786613
2.013873,-5.754261296,-3.600857778,0.4103084779,6.800445048
2.02384,-6.084683944,-3.906163419,0.4583001216,7.245103889
2.033807,-6.393425117,-4.241236066,0.4624621332,7.686210985
2.043773,-6.709467123,-4.526928391,0.4783092205,8.107947301
2.05374,-6.965075231,-4.749779521,0.4611394564,8.443063903
2.063707,-7.125669594,-5.011930372,0.3719822816,8.719689446
2.073673,-7.187130262,-5.376700734,0.2668043206,8.979695804
2.08364,-7.214037395,-5.68982381,0.1764327522,9.1895353
2.093607,-7.168474721,-5.880015024,0.07794689298,9.271875874
2.103573,-7.014208215,-6.184649112,-0.05966970284,9.351607455
2.11354,-6.818032376,-6.496087021,-0.2132456525,9.419670151
2.123507,-6.71652939,-6.583619839,-0.2944290159,9.409702741
2.133473,-6.648852546,-6.64242938,-0.391918473,9.406524775
2.14344,-6.707660918,-6.500013426,-0.4482230667,9.351138617
2.153407,-6.758212436,-6.19257092,-0.4236354518,9.176101401
2.163373,-6.51671015,-6.069013406,-0.3667303491,8.912627337
2.17334,-5.961063865,-6.210894924,-0.3404231411,8.615415607
2.183307,-5.137625628,-6.426382363,-0.370846058,8.235964677
2.193273,-4.239444187,-6.604777404,-0.461519562,7.861868218
2.20324,-3.375598181,-6.967005397,-0.6054373001,7.765332035
2.213207,-2.856760118,-7.191009305,-0.7237287386,7.771452662
2.223173,-2.758188341,-7.034196922,-0.8277714626,7.600837773
2.2331395,-2.723704972,-6.784984497,-0.9325374142,7.370495874
2.2431065,-2.333841868,-6.66580187,-0.8669129435,7.115565367
2.2530725,-1.652165281,-6.625655472,-0.5688960761,6.852196969
2.2630395,-0.8708421993,-6.653816832,-0.2119843715,6.713909587
2.2730055,0.4331231439,-7.171532815,0.02136280239,7.184631858
2.2829725,1.905874214,-7.97310305,0.1047908753,8.198396788
2.2929395,3.121837208,-8.573538423,0.1800440291,9.125998273
2.3029055,3.989269311,-8.75015708,0.1626495858,9.61800257
2.3128725,4.375101929,-8.415813289,0.03142582398,9.485168305
2.3228395,4.214633866,-7.340106872,-0.03309293825,8.464124448
2.3328055,3.696931332,-5.68111906,0.1241901827,6.779221065
2.3427725,3.250006421,-4.201643107,0.3261857557,5.321911656
2.3527395,2.979633508,-2.949178285,0.5027564657,4.222396531
2.3627055,2.882089671,-1.888758829,0.6020258152,3.49804029
2.3726725,2.959253622,-1.05438396,0.6593028009,3.209920204
2.3826395,3.184237524,-0.3779651892,0.6853819674,3.279020392
2.3926055,3.406474403,0.2870731455,0.6485649741,3.479528039
2.4025725,3.577232981,0.9998651057,0.5271989965,3.751568313
2.4125395,3.567128407,1.808723896,0.4734069514,4.02740628
2.4225055,3.4412782,2.568209381,0.478181203,4.320503714
2.4324725,3.25566828,3.217657285,0.5064986837,4.60534855
2.4424395,3.009455477,3.757147129,0.5064179921,4.840396264
2.4524055,2.730619889,4.143482022,0.4247376885,4.980474912
2.4623725,2.423260413,4.462066398,0.3092218137,5.087027197
2.4723395,2.096598694,4.595893376,0.2076726713,5.055797657
2.4823055,1.808888202,4.511315156,0.1657819758,4.863283318
2.4922725,1.562900518,4.400559536,0.1274645869,4.671598172
2.5022395,1.375676181,4.368677593,0.1185943608,4.581691117
2.5122055,1.247318687,4.305764476,0.08704399109,4.48363561
2.5221725,1.043271326,4.233485874,0.1174769579,4.36172197
2.5321395,0.8506383151,4.128662839,0.180900025,4.219261452
2.5421055,0.7588364446,3.99673679,0.2841255641,4.07804672
2.5520725,0.6815298218,3.895586976,0.511089954,3.987642628
2.5620395,0.7189794838,3.818872676,0.8594722885,3.979875956
2.5720055,1.02391178,3.615814664,1.215135028,3.949565059
2.5819725,1.280589345,3.390150731,1.622027562,3.970390971
2.5919385,1.548668395,3.122047123,2.04420121,4.040335459
2.6019055,1.957225047,2.700582157,2.414054557,4.117223977
2.6118725,2.34835875,2.293886089,2.864184912,4.356633726
2.6218385,2.879129811,1.937166173,3.289416654,4.781449903
2.6318055,3.642417741,1.479192363,3.655485098,5.368220222
2.6417725,4.47673063,1.057673603,3.994248215,6.092110421
2.6517385,5.345484788,0.696315676,4.298022763,6.894350064
2.6617055,6.335124283,0.4354661232,4.537648677,7.804722029
2.6716725,7.463170881,0.1616065156,4.676484965,8.808776754
2.6816385,8.688021643,-0.1806660998,4.697386422,9.878248807
2.6916055,9.680504054,-0.2303136384,4.739947135,10.78110857
2.7015725,10.54003774,-0.06475089669,4.858824538,11.60623815
2.7115385,11.25412427,0.2765358782,4.987159227,12.31273903
2.7215055,11.67078049,0.320891102,5.067408754,12.72747892
2.7314725,11.87910743,0.005757168531,5.053885313,12.90949198
2.7414385,11.99779889,-0.2814995795,4.810526537,12.92933044
2.7514055,11.83486505,-0.7321257788,4.174512026,12.57086272
2.7613725,11.38168947,-1.369255353,3.520144275,11.99204449
2.7713385,10.62564682,-2.075147014,3.235849142,11.29961615
2.7813055,9.593761779,-2.67982922,3.052606759,10.41826078
2.7912725,8.490932468,-3.052112669,2.808588417,9.449840994
2.8012385,7.4154921,-3.291889442,2.650613022,8.535327092
2.8112055,6.406767293,-3.403772405,2.777201732,7.768216217
2.8211725,5.489682389,-3.422220955,2.898247283,7.088585635
2.8311385,4.738232732,-3.413774067,2.876487454,6.509906518
2.8411055,4.19879025,-3.411202462,2.825354723,6.103177133
2.8510725,3.823786676,-3.347673633,2.743188479,5.775235608
2.8610385,3.510691667,-3.060564235,2.620214517,5.343924918
2.8710055,3.161926303,-2.524242997,2.428094891,4.718604185
2.8809725,2.822713535,-1.976922562,2.155060326,4.064507292
2.8909385,2.438783602,-1.511315796,1.880979109,3.430717607
2.9009055,2.030260279,-1.133552336,1.619283464,2.833544888
2.9108715,1.673972472,-0.9509373593,1.327498047,2.338528761
2.9208385,1.268019585,-0.9055769992,1.085977051,1.899286583
2.9308055,0.7869937116,-0.9734315979,0.8331627417,1.503691568
2.9407715,0.2925525713,-1.260028195,0.5836409998,1.41911764
2.9507385,-0.2053705859,-1.686895403,0.4234647496,1.751318239
2.9607055,-0.7505199498,-2.081329275,0.3752345395,2.244106216
2.9706715,-1.349091815,-2.524528049,0.2773510166,2.875798008
2.9806385,-1.955845689,-2.991223274,0.1897175896,3.578930259
2.9906055,-2.50751996,-3.462068268,0.1370270868,4.27695563
3.0005715,-3.036994109,-3.920043832,0.1130020837,4.960125637
3.0105385,-3.571447161,-4.333036475,0.1404781135,5.616954158
3.0205055,-4.038684715,-4.665426711,0.1965027352,6.173798988
3.0304715,-4.443828347,-4.997561424,0.2579534086,6.692516009
3.0404385,-4.820958554,-5.310143632,0.3495640934,7.180631019
3.0504055,-5.164187774,-5.590500666,0.4971501553,7.626905751
3.0603715,-5.450388515,-5.848091565,0.6411746782,8.019851301
3.0703385,-5.722576404,-6.057111399,0.7560011297,8.367079353
3.0803055,-6.002881982,-6.19735979,0.8721543145,8.671938284
3.0902715,-6.209527261,-6.345923506,0.9361263621,8.927782844
3.1002385,-6.318856745,-6.586451061,0.9759365451,9.179419387
3.1102055,-6.425658478,-6.804797203,0.962572149,9.408554458
3.1201715,-6.557683344,-6.976034667,0.8670321536,9.613532924
3.1301385,-6.683951628,-7.119182693,0.7432992232,9.793388857
3.1401045,-6.751003988,-7.267616601,0.6152779448,9.938454249
3.1500715,-6.740640968,-7.445317578,0.4951773047,10.05555543
3.1600385,-6.587102441,-7.615862732,0.350404923,10.07541897
3.1700045,-6.388837391,-7.8382914,0.2087140238,10.1143273
3.1799715,-6.281635124,-7.954367402,0.102216328,10.13614072
3.1899385,-6.203564855,-7.948783895,0.02049158553,10.08304529
3.1999045,-6.023599836,-7.965757193,-0.06339786926,9.987044705
3.2098715,-5.729469101,-7.961754774,-0.09376127243,9.809441699
3.2198385,-5.367266251,-7.991774379,-0.107001671,9.627432373
3.229809,-4.982279141,-8.239912085,-0.1963699669,9.631086012
3.239776,-4.485240667,-8.790919189,-0.3862003347,9.876578089
3.249743,-4.068754022,-9.201123587,-0.5314299687,10.07461425
3.259709,-4.064992508,-8.861674007,-0.5056531763,9.762638754
3.269676,-4.357909945,-8.002195871,-0.3175822357,9.117421584
3.279643,-4.54194638,-7.150241348,-0.1241573652,8.471755621
3.289609,-4.372043835,-6.24219507,0.185136954,7.623256671
3.299576,-3.87195253,-5.464508956,0.448352948,6.712219819
3.309543,-3.051962981,-5.217846503,0.529913274,6.068048141
3.319509,-1.856913139,-5.361203858,0.5119354248,5.696728104
3.329476,-0.478063674,-5.768774085,0.3571315598,5.799555351
3.339443,0.840667643,-6.354666263,0.07758845866,6.410501179
3.349409,1.799244974,-6.90949043,-0.1974481934,7.142641407
3.359376,2.378770119,-7.183119072,-0.4838553411,7.582206992
3.369343,2.406432127,-7.022403088,-0.6859848154,7.454906832
3.379309,2.108104845,-6.444892309,-0.8330112988,6.83188486
3.389276,1.677712351,-5.581260896,-0.8630969775,5.891530218
3.399242,1.295658789,-4.572362134,-0.8125513065,4.821355287
3.409209,1.135380176,-3.625967184,-0.7486926949,3.872630491
3.419176,1.211751829,-2.92781022,-0.6670386672,3.238109906
3.429142,1.436791279,-2.34290973,-0.580339004,2.808983542
3.439109,1.688266575,-1.803364338,-0.4925864035,2.518929997
3.449076,1.994123316,-1.347235909,-0.3248994048,2.428401124
3.459042,2.312659745,-0.811136865,-0.09628379781,2.452673781
3.469009,2.588961149,-0.2305948895,0.09951025486,2.601114401
3.478976,2.742992013,0.4289149028,0.3087084281,2.793434099
3.488942,2.832781856,1.165132563,0.5530015898,3.11255485
3.498909,2.983824792,1.743889384,0.7495627606,3.536411303
3.508876,3.125962418,2.259348925,0.9260609651,3.966596465
3.518842,3.202477328,2.682311947,1.066926237,4.311495102
3.528809,3.280952225,2.944686454,1.168594115,4.560859351
3.538776,3.338149104,3.16106033,1.252339692,4.764860602
3.548742,3.474557628,3.300833927,1.264584931,4.956534109
3.558709,3.586329494,3.475795484,1.199113072,5.136222897
3.568676,3.580178808,3.666156852,1.039196987,5.228605621
3.578642,3.502876863,3.654033819,0.7945360351,5.123806884
3.588609,3.386154744,3.594223235,0.5536266571,4.969002625
3.598576,3.26257735,3.587664413,0.3108251202,4.859255001
3.608542,3.055056158,3.646407881,0.1100177014,4.758336101
3.618509,2.867810771,3.645116231,0.01345617911,4.638037518
3.628476,2.713544265,3.532771922,0.1033214517,4.455836089
3.638442,2.570966928,3.351248036,0.2818971719,4.233225763
3.648409,2.582314035,2.911773646,0.639585405,3.944089379
3.658376,2.710945762,2.500369985,1.166416027,3.868023182
3.668342,2.894113886,2.192488353,1.675902638,3.998943612
3.678309,3.094950541,2.005546437,2.184881126,4.286565163
3.688275,3.213525642,1.8579709,2.535999409,4.495564027
3.698242,3.471291373,1.206409228,3.167957121,4.851931507
3.708209,3.950148515,0.7072376901,3.980202034,5.652067468
3.718175,4.550601429,0.5747438765,4.686937448,6.557872104
3.728142,5.240547148,0.6019954097,5.185191557,7.396752285
3.738109,6.166035671,0.5929176074,5.385097336,8.207972983
3.748075,7.176000672,0.5751461649,5.392503419,8.994713552
3.758042,8.077319729,0.5698947805,5.346269485,9.703116585
3.768009,8.674565445,0.7235268635,5.268796216,10.17505727
3.777975,9.106861793,0.9932250077,5.211611617,10.53955992
3.787942,9.48068423,1.134722949,5.170112758,10.85822433
3.797909,9.810871235,1.120044098,5.262042682,11.18913698
3.807875,10.25673195,1.049010369,5.61802351,11.74151444
3.817842,10.62319801,0.9191805464,5.562703003,12.02667425
3.827809,10.60022313,0.508688466,5.162392094,11.80143154
3.837775,10.22311748,-0.1723805952,4.969165006,11.36813296
3.847742,9.696245928,-1.016254851,4.653998913,10.80322475
3.857709,9.070219631,-1.914012954,4.147994903,10.15569749
3.867675,8.393458214,-2.74512917,3.843988806,9.631309614
3.877642,7.681645077,-3.437406759,3.615299524,9.159357345
3.887609,6.779971095,-3.670017183,3.473276503,8.455807699
3.897575,5.830917708,-3.606452687,3.463949025,7.681474152
3.907542,5.083678631,-3.536959113,3.408408662,7.069025237
3.917508,4.529229271,-3.410856307,3.219002144,6.519956544
3.927475,4.067115047,-3.013620449,3.062241801,5.916135382
3.937442,3.723318062,-2.54828207,2.94575591,5.388350098
3.947408,3.413199286,-2.081678939,2.706303073,4.827773078
3.957375,3.084068288,-1.655532693,2.348281567,4.215055399
3.967342,2.743714728,-1.288239841,1.942701148,3.600225014
3.977308,2.38389111,-1.005929838,1.541288624,3.011710857
3.987275,2.007501161,-0.9183467335,1.115953971,2.473615754
3.997242,1.495710747,-0.9464028436,0.8782038438,1.975872206
4.007208,0.9495363665,-1.088763249,0.706082865,1.607973176
4.017175,0.4539988732,-1.387604501,0.5272796881,1.552283832
4.027142,-0.1023473239,-1.731494456,0.3566023868,1.770794536
4.037108,-0.7226778477,-2.131127087,0.3080745534,2.271315888
4.047075,-1.299472927,-2.606815622,0.3333714356,2.931766378
4.057042,-1.870495051,-3.109196405,0.3630009949,3.646590701
4.067008,-2.430296368,-3.536444266,0.3535483496,4.305551639
4.076975,-2.947470313,-3.956999697,0.4080590906,4.950953451
4.086942,-3.463431546,-4.326686691,0.5479963366,5.569189867
4.096908,-3.946579374,-4.640064705,0.6774981666,6.129004241
4.106875,-4.328355778,-4.908115396,0.7237742007,6.583928127
4.116841,-4.608782394,-5.162887353,0.7640585929,6.96276285
4.126808,-4.828084556,-5.352860466,0.7946693516,7.252242069
4.136775,-5.024948612,-5.452698165,0.8262431467,7.460878204
4.146741,-5.209784362,-5.542671611,0.8001692426,7.64874712
4.156708,-5.353353971,-5.689779371,0.7459725702,7.847831746
4.166675,-5.460260954,-5.900280889,0.6703511149,8.067040031
4.176641,-5.519371626,-6.199240839,0.5833042002,8.320714748
4.186608,-5.480732056,-6.588630903,0.4449403667,8.58175116
4.196575,-5.373157321,-7.073404257,0.332184999,8.888993995
4.206541,-5.342954113,-7.536409596,0.2468869865,9.241514023
4.216508,-5.366266962,-7.740182723,0.2113633972,9.420823965
4.226475,-5.435022617,-7.837053545,0.209280619,9.539532351
4.236436542,-5.48037713,-7.919364799,0.1866811488,9.632534566
4.246403542,-5.468572771,-7.894670838,0.1749790978,9.605297157
4.256370542,-5.452651972,-7.649366693,0.1835557938,9.395632872
4.266336542,-5.419628068,-7.352452099,0.1632449055,9.135511434
4.276303542,-5.309159546,-7.224156586,0.119166255,8.966036697
4.286270542,-5.116884384,-7.195035113,0.07451691628,8.829302852
4.296236542,-5.046282179,-7.129202482,-0.007577991486,8.734446134
4.306203542,-4.943134371,-7.184189698,-0.1583958461,8.721940625
4.316170542,-4.884487383,-7.341678604,-0.2857072359,8.82270312
4.326136542,-4.946208837,-7.260527437,-0.2464063454,8.78868344
4.336103542,-5.168811167,-6.843512787,-0.1249970254,8.577056629
4.346069542,-5.29273998,-6.322990726,0.09840038024,8.246392596
4.356036542,-5.1412854,-5.676459998,0.4333967205,7.670909098
4.366003542,-4.903200227,-5.116471571,0.6319541308,7.114704479
4.375969542,-4.258307304,-5.044215188,0.6837215044,6.636622865
4.385936542,-3.220814781,-5.328357709,0.6235761671,6.257307006
4.395903542,-1.944319657,-5.922522528,0.3123477352,6.241331038
4.405869542,-0.6937370539,-6.733691552,-0.122463573,6.770440927
4.415836542,0.104510209,-7.412843311,-0.4354702894,7.426358644
4.425803542,0.3934930551,-7.723542132,-0.7327602017,7.768196532
4.435769542,0.3419083339,-7.631164895,-1.039551986,7.709231304
4.445736542,0.1128804982,-7.204650275,-1.216417395,7.307489231
4.455703542,-0.2099068558,-6.563956822,-1.232719944,6.682004827
4.465669542,-0.4688396913,-5.774216089,-1.140669055,5.904448153
4.475636542,-0.5087522006,-4.880374451,-1.002832495,5.008248855
4.485603542,-0.3188568556,-3.963895026,-0.8162343945,4.059602451
4.495569542,0.01721888065,-3.267503921,-0.4795195576,3.302547103
4.505536542,0.4698962831,-2.581141668,-0.1965073764,2.630914285
4.515502542,0.8649236476,-1.899366848,-0.1107018987,2.08996226
4.525469542,1.195933356,-1.270668958,0.0206612096,1.745073947
4.535436542,1.455160891,-0.6223852354,0.1793422171,1.592802634
4.545402542,1.641160821,0.025072276,0.3770677147,1.684107337
4.555369542,1.785618623,0.5647042072,0.5721564835,1.958235877
4.565336542,1.902907337,1.033780126,0.7786141399,2.30130347
4.575302542,1.944106234,1.477741669,0.9929601288,2.636140987
4.585269542,1.986613737,1.803195353,1.168444426,2.926330467
4.595236542,2.141291887,2.043745127,1.2669168,3.219798638
4.605202542,2.343013226,2.438838565,1.228190106,3.598068296
4.615169542,2.649659341,2.81816791,1.04722938,4.007424905
4.625136542,2.950297442,3.08418874,0.7703800908,4.337045154
4.635102542,3.211800129,3.363461115,0.4957759865,4.676999526
4.645069542,3.33371516,3.645089918,0.2185818581,4.944503545
4.655036542,3.329106969,3.942291611,-0.008998353258,5.159912531
4.665002542,3.330976909,4.104281119,-0.1957998999,5.289505485
4.674969542,3.342232214,4.121167293,-0.2815002008,5.313546687
4.684936542,3.428338312,4.05006632,-0.3084172734,5.315229251
4.694902542,3.513847409,3.783545553,-0.3337771227,5.174335487
4.704869542,3.582510678,3.268733883,-0.2556917238,4.856375419
4.714835542,3.787775429,2.612877431,-0.09505752705,4.602543547
4.724802542,3.900876367,2.065431865,0.1432082516,4.416260163
4.734769542,4.053740711,1.593380883,0.3818073581,4.372350998
4.744735542,4.295368127,1.062835525,0.6727443802,4.475755992
4.754702542,4.293177175,0.8332709152,1.389185003,4.58863222
4.764669542,4.492866021,0.7000485384,2.026462512,4.978198806
4.774635542,4.971151305,0.6334475827,2.560310962,5.627503297
4.784602542,5.56060853,0.7101665604,3.149103359,6.429739943
4.794569542,6.209286355,0.6967752671,3.653863081,7.238193713
4.804535542,6.964771761,0.6017843252,4.203197297,8.157025044
4.814502542,7.856995474,0.3777576131,4.618489941,9.121706421
4.824469542,8.633354269,0.1088412416,5.058067242,10.0065327
4.834435542,9.07908518,0.1045084548,5.325019534,10.52599367
4.844402542,9.312782602,0.3427029705,5.438897567,10.79013308
4.854369542,9.520320166,0.4769363308,5.424743797,10.96776229
4.864335542,9.693455637,0.4908462721,5.542907839,11.17711231
4.874302542,9.69185233,0.7816657287,5.6960815,11.26891066
4.884268542,9.610529255,0.988343752,5.5899253,11.16182605
4.894235542,9.558603056,1.031456442,5.091958873,10.8792849
4.904202542,9.430664808,0.962269848,4.4870305,10.48793806
4.914168542,9.136431747,0.5625869304,3.852057964,9.931225487
4.924135542,8.70521538,-0.04335710406,3.151802434,9.258321297
4.934102542,8.165941883,-0.7930034798,2.585891361,8.602226194
4.944068542,7.454781881,-1.564787999,2.239982947,7.939764353
4.954035542,6.583947283,-2.145825233,1.886123489,7.177073887
4.964002542,5.651392985,-2.467175927,1.656013334,6.384949482
4.973968542,4.792787254,-2.580356387,1.507682921,5.648199406
4.983935542,4.046303637,-2.507251573,1.456735547,4.978048014
4.993902542,3.48524166,-2.433722836,1.42035534,4.481888616
5.003868542,3.060425656,-2.341982946,1.367847928,4.089266104
5.013835542,2.697397179,-2.139772196,1.380841611,3.709622642
5.023801542,2.486407419,-1.851945929,1.426200217,3.412619615
5.033768542,2.36114895,-1.453314925,1.486376252,3.145864428
5.043735542,2.143440154,-0.9572201926,1.491465669,2.781200466
5.053701542,1.900077869,-0.5696749252,1.398707194,2.427180925
5.063668542,1.649364465,-0.3073431033,1.294216281,2.118928668
5.073635542,1.379093294,-0.1474509913,1.164375933,1.810914526
5.083601542,1.099564226,-0.09088678122,1.001947299,1.490369177
5.093568542,0.657876665,-0.1139470303,0.8716713345,1.097996606
5.103535542,0.1616345823,-0.2443925643,0.7270825553,0.7839021022
5.113501542,-0.3102485847,-0.5862517816,0.5712244008,0.8753528727
5.123468542,-0.7528857332,-1.020831467,0.477343297,1.355282419
5.133435542,-1.247615141,-1.404051549,0.4377225272,1.928601904
5.143401542,-1.800733091,-1.78611856,0.4552402371,2.576839701
5.153368542,-2.290135685,-2.297117845,0.5541102584,3.290670149
5.163335542,-2.697018864,-2.884520359,0.622451309,3.997726115
5.173301542,-3.111841393,-3.450591061,0.7246290636,4.702682511
5.183268542,-3.46648964,-4.011421195,0.8387427396,5.367638197
5.193234542,-3.789024979,-4.576374201,0.9099793679,6.010655003
5.203201542,-4.112543235,-5.090169625,0.965564754,6.614767869
5.213168542,-4.43305953,-5.451804711,1.001459641,7.097683623
5.223134542,-4.753836612,-5.76960439,1.025027429,7.545725848
5.23310525,-5.029453307,-6.052889709,1.027876192,7.936586411
5.24307225,-5.138448331,-6.407380666,0.960917387,8.26931318
5.25303825,-5.338786218,-6.729514886,0.8913670957,8.63617648
5.26300525,-5.569150727,-6.987574732,0.885984149,8.979232059
5.27297225,-5.674964281,-7.296120023,0.8133991528,9.279019623
5.28293825,-5.74320655,-7.512297433,0.7675686765,9.487264931
5.29290525,-5.790488305,-7.581410937,0.7246173692,9.567267998
5.30287225,-5.769679234,-7.598305882,0.709682411,9.566979663
5.31283825,-5.754441975,-7.531327196,0.7110962677,9.504743536
5.32280525,-5.756899559,-7.357526897,0.7235888439,9.370094738
5.33277125,-5.85156832,-7.102284824,0.7576553071,9.233490298
5.34273825,-5.825453485,-6.882442964,0.870320043,9.058774003
5.35270525,-5.604300095,-6.779981035,0.9820468855,8.851030362
5.36267125,-5.28601919,-6.799938751,1.063867559,8.678305139
5.37263825,-5.040000515,-6.787454361,1.077833633,8.522491844
5.38260525,-4.860785694,-6.761944714,1.016957687,8.38959694
5.39257125,-4.690022439,-6.688550463,0.8937726402,8.217776299
5.40253825,-4.498931923,-6.560108185,0.6884792376,7.984322858
5.41250525,-4.33815922,-6.305015216,0.4398883724,7.665920954
5.42247125,-4.157560948,-5.764748277,0.2720096216,7.112778991
5.43243825,-3.732726817,-5.171358799,0.1367430583,6.379255441
5.44240525,-3.170135209,-4.621083474,-0.07620325327,5.604460425
5.45237125,-2.550216329,-4.186609331,-0.2803658044,4.910183907
5.46233825,-1.884680396,-4.102045729,-0.496178275,4.541474676
5.47230425,-1.283187847,-4.431693328,-0.6956619573,4.66587852
5.48227125,-0.6406846815,-5.101749451,-0.9315841719,5.22553092
5.49223825,-0.118328349,-5.774738245,-1.151025571,5.88952148
5.50220425,0.2396066183,-6.273262496,-1.287336008,6.408468434
5.51217125,0.5192181319,-6.567847559,-1.379403781,6.731193343
5.52213825,0.4645799947,-6.358217277,-1.336791612,6.513814038
5.53210425,0.2962749088,-5.82134874,-1.103328663,5.932386881
5.54207125,0.1028396595,-5.075039955,-0.9827211425,5.170333392
5.55203825,-0.0002578622103,-4.09646807,-0.9913538986,4.214716273
5.56200425,0.08478988945,-3.212824853,-0.9160563791,3.341944367
5.57197125,0.2411520374,-2.449198662,-0.8285025108,2.596756593
5.58193825,0.4796143556,-1.695008123,-0.8246913687,1.945044555
5.59190425,0.6393140942,-0.9824901044,-0.821366715,1.431311495
5.60187125,0.7425718296,-0.317892065,-0.777223599,1.120957095
5.61183725,0.8165262437,0.2919660956,-0.7129153365,1.122589678
5.62180425,0.8439707351,0.8362413007,-0.6113229612,1.336151892
5.63177125,0.804568103,1.362789502,-0.4768551276,1.652850832
5.64173725,0.7263808894,1.858102462,-0.3317996675,2.022440352
5.65170425,0.6657113492,2.128122203,-0.1744493401,2.236628777
5.66167125,0.6352426779,2.259219117,-0.01306509174,2.346864925
5.67163725,0.6321734744,2.412937739,0.1663866144,2.499919267
5.68160425,0.6887096179,2.499622711,0.3568356907,2.617205828
5.69157125,0.8775162113,2.475640356,0.5062940311,2.67491374
5.70153725,1.113831432,2.503153844,0.6010920149,2.80494407
5.71150425,1.334649777,2.62393627,0.6606803318,3.01708967
5.72147125,1.539020489,2.691366361,0.6578393159,3.169351593
5.73143725,1.785960685,2.689757792,0.6076572686,3.285376676
5.74140425,2.015952142,2.777295873,0.5639792255,3.477859682
5.75137025,2.190216125,2.902968324,0.5212073547,3.673680562
5.76133725,2.402890468,3.001238385,0.4506473223,3.870968542
5.77130425,2.640865713,3.101684779,0.3750580267,4.090878721
5.78127025,2.893550214,3.245825661,0.3994097795,4.36664004
5.79123725,3.225459225,3.182937103,0.4626907228,4.555080517
5.80120425,3.683275745,2.882705383,0.5612759116,4.710789869
5.81117025,4.145499896,2.578548428,0.7119979084,4.93366217
5.82113725,4.542570863,2.256711831,0.9092478812,5.153099072
5.83110425,4.921690877,2.029953884,1.196559593,5.456693937
5.84107025,5.25955937,1.838401439,1.494085806,5.768446672
5.85103725,5.721624477,1.451946092,1.818342565,6.176690359
5.86100425,6.398178903,1.080758411,2.168633468,6.841615535
5.87097025,7.089255474,0.8465008253,2.425384122,7.540331223
5.88093725,7.778993032,0.5998301858,2.645909522,8.238529361
5.89090325,8.588848772,0.222878319,2.879828553,9.061534664
5.90087025,9.315569385,-0.1359793389,3.087161465,9.81472818
5.91083725,9.846970775,-0.354413774,3.232506874,10.37003102
5.92080325,10.29992651,-0.4990276963,3.400923057,10.85835127
5.93077025,10.52758551,-0.4787635857,3.591803073,11.13374692
5.94073725,10.48236431,-0.2376355219,3.744048196,11.13347785
5.95070325,10.35108964,0.2326303053,3.964577104,11.08679599
5.96067025,10.21403909,0.8112245733,3.943589108,10.97891502
5.97063725,9.995953152,1.164516851,3.670872631,10.71216527
5.98060325,9.554632797,1.035694504,3.327027115,10.17019078
5.99057025,8.831815785,0.602847349,3.011058784,9.350447582
6.00053625,7.9507164,0.01744575262,2.618301308,8.370764444
6.01050325,7.138999491,-0.7923924458,2.234436278,7.522360335
6.02047025,6.338414512,-1.562595878,2.043532289,6.840557624
6.03043625,5.552182692,-2.232172236,2.015408351,6.314364288
6.04040325,4.789974743,-2.848141322,2.055736597,5.939850165
6.05037025,4.111795961,-3.297333784,2.106086386,5.675815005
6.06033625,3.390975189,-3.491461344,2.154134712,5.322528666
6.07030325,2.718229639,-3.511666397,2.220644451,4.965061433
6.08027025,2.342886926,-3.430759644,2.205098459,4.703370078
6.09023625,2.204806682,-2.964461153,2.168149903,4.28369892
6.10020325,2.217639567,-2.39391967,2.154242885,3.910184016
6.11017025,2.200281522,-1.91033564,2.083438951,3.58208583
6.12013625,2.124848347,-1.320671423,1.834651619,3.102434539
6.13010325,1.991209064,-0.7524045074,1.501239874,2.604754737
6.14006925,1.766670721,-0.3186042559,1.242708158,2.183336363
6.15003625,1.422742174,-0.06470061064,1.021969335,1.752941181
6.16000325,1.028457406,0.01072379351,0.7801986623,1.290949103
6.16996925,0.5491166997,-0.1340421563,0.5765956897,0.8074398051
6.17993625,-0.02080380857,-0.4208510077,0.4420454103,0.6106983821
6.18990325,-0.598032167,-0.8239101076,0.4001103491,1.093873224
6.19986925,-1.167189029,-1.248833116,0.3181054884,1.738707993
6.20983625,-1.75700118,-1.686494577,0.3223160684,2.456665372
6.21980325,-2.352356492,-2.139808741,0.4796658111,3.215966698
6.22976925,-2.895005001,-2.558244849,0.6165467906,3.91226285
6.239732792,-3.45442508,-2.899413217,0.7251097047,4.567869714
6.249698792,-3.963843278,-3.206230656,0.8147709095,5.162927482
6.259665792,-4.403035247,-3.49881334,0.8912501514,5.694097032
6.269632792,-4.769167426,-3.766694755,0.9664839363,6.153619952
6.279598792,-5.049273614,-4.005074919,0.9966321802,6.521431196
6.289565792,-5.269970337,-4.26948952,0.9991698718,6.85561584
6.299532792,-5.455065703,-4.523579691,0.9899417961,7.155452453
6.309498792,-5.625581621,-4.738009661,0.9665640432,7.418230932
6.319465792,-5.712729108,-4.975865915,0.8817612898,7.627058308
6.329432792,-5.689077705,-5.358572026,0.7774908167,7.85394113
6.339398792,-5.714076891,-5.777011642,0.6704078329,8.153157971
6.349365792,-5.832875356,-6.134109873,0.5588043666,8.483041977
6.359331792,-6.036619247,-6.408867613,0.4944487417,8.818097049
6.369298792,-6.26559972,-6.578309982,0.4471740031,9.095705946
6.379265792,-6.497270497,-6.622838284,0.4437691694,9.288349795
6.389231792,-6.674000836,-6.635020958,0.4605489242,9.422202268
6.399198792,-6.775353549,-6.646693169,0.4312631446,9.501049084
6.409165792,-6.846463292,-6.63254934,0.5389963023,9.547527814
6.419131792,-6.802586955,-6.662478313,0.6322231758,9.542720403
6.429098792,-6.633990093,-6.715832402,0.7783357394,9.471960511
6.439065792,-6.247100299,-6.904824936,0.9467566001,9.359445369
6.449031792,-5.638888714,-7.304251746,1.036383964,9.285647593
6.458998792,-4.93162822,-7.765920997,1.077670423,9.262389506
6.468964792,-4.232890627,-8.249432521,0.9964398068,9.325416467
6.478931792,-3.83278671,-8.363575433,0.8132530455,9.235855592
6.488898792,-3.690660778,-7.838982541,0.6236488187,8.686746348
6.498864792,-3.521686771,-7.109116126,0.4645813103,7.947178468
6.508831792,-3.136303219,-6.434139279,0.3115501019,7.164608127
6.518798792,-2.517660787,-5.929297696,0.1842252269,6.444309578
6.528764792,-1.688787562,-5.667623101,0.03593230963,5.913987334
6.538731792,-0.6661270863,-5.832071364,-0.191737291,5.87312054
6.548698792,0.5581763756,-6.47576093,-0.46874789,6.516652904
6.558664792,1.812114111,-7.198059293,-0.8445505596,7.470547556
6.568631792,2.626857539,-7.547791786,-1.283731638,8.094288622
6.578597792,3.012093741,-7.429942324,-1.655597012,8.186437144
6.588564792,2.8242993,-6.644492862,-1.983589557,7.487361315
6.598531792,2.381713023,-5.819225031,-2.118903483,6.635185669
6.608497792,1.7580414,-4.859097603,-2.241126662,5.632422906
6.618464792,1.17538624,-3.504452688,-2.338820772,4.374106087
6.628431792,0.8661942476,-2.27601846,-2.46875409,3.467751327
6.638397792,0.772966826,-1.388667232,-2.542073497,2.998001344
6.648364792,0.7877696371,-0.7433381072,-2.494697016,2.719677508
6.658331792,0.8597172868,-0.2790630448,-2.417783327,2.581214096
6.668297792,0.8011913359,0.1902338988,-2.281085511,2.425169603
6.678264792,0.6308104885,0.6888593066,-2.04120802,2.24476707
6.688230792,0.4270028633,1.061447981,-1.688858314,2.039913151
6.698197792,0.2453275341,1.40158227,-1.288939168,1.919891309
6.708164792,0.03947572231,1.755178603,-0.8767741996,1.962382037
6.718130792,-0.1778255224,2.061799575,-0.4977641129,2.128475632
6.728097792,-0.3664508522,2.270152826,-0.1801554917,2.306585372
6.738064792,-0.4928126907,2.437101942,0.1294474143,2.48979655
6.748030792,-0.5427116597,2.510741776,0.5009637094,2.617121482
6.757997792,-0.4806966752,2.455112536,0.7371999925,2.608085636
6.767964792,-0.3459879363,2.331683661,1.009382107,2.564236452
6.777930792,-0.1610457677,2.331050407,1.313179386,2.680330547
6.787897792,0.05403470457,2.389448304,1.490722488,2.816848679
6.797863792,0.2051115543,2.41096138,1.615538322,2.909427709
6.807830792,0.4093980664,2.41634725,1.687010009,2.975288823
6.817797792,0.6157047915,2.359785379,1.737631109,2.994501844
6.827763792,0.8724753267,2.297566327,1.768069375,3.027555703
6.837730792,1.22286914,2.297586792,1.865369967,3.202174123
6.847697792,1.62892026,2.22668287,1.976434904,3.393787375
6.857663792,2.139903173,2.001351644,2.067904068,3.586198716
6.867630792,2.592337332,1.670341351,2.234911657,3.808553949
6.877597792,3.113994922,1.229461876,2.458457143,4.153619193
6.887563792,3.65362276,0.7253523642,2.690402155,4.594927538
6.897530792,4.138848689,0.273963688,3.109206637,5.183849003
6.907496792,4.711689881,-0.1012117946,3.586492631,5.922262638
6.917463792,5.289293631,-0.3231177217,3.910423701,6.585776013
6.927430792,5.843414378,-0.2198868835,4.293585895,7.254565574
6.937396792,6.499393036,-0.01289311051,4.67151951,8.00408462
6.947363792,7.305815291,0.02455655158,4.922442244,8.809425506
6.957330792,8.155455487,-0.1037816459,5.073067689,9.605115335
6.967296792,8.859208821,-0.1074373251,5.310780394,10.3296424
6.977263792,9.401982461,0.03830627918,5.517909822,10.90165448
6.987230792,9.744950895,0.203549763,5.668205484,11.27537378
6.997196792,9.884456105,0.3072986645,5.674473699,11.40160325
7.007163792,9.863312573,0.318310141,5.629652452,11.36130463
7.017129792,9.605916971,0.3593891698,5.440407318,11.04539873
7.027096792,9.191227759,0.5106788582,5.069408501,10.50896585
7.037063792,8.839534695,0.7432559538,4.62855183,10.00566315
7.047029792,8.642064282,0.8612644601,4.09615232,9.602370298
7.056996792,8.45216192,0.6791008884,3.502824823,9.174421011
7.066963792,8.07846169,0.3309968448,2.939293567,8.602938385
7.076929792,7.641893951,-0.2200090903,2.460188504,8.031156494
7.086896792,7.193768606,-0.8996438295,1.982139448,7.515886014
7.096862792,6.606084841,-1.457607366,1.576488862,6.946243107
7.106829792,5.91564971,-1.773252347,1.309933012,6.313102239
7.116796792,5.270403031,-1.921269933,1.084997642,5.713636858
7.126762792,4.685737014,-1.88089257,0.9914562249,5.145568353
7.136729792,4.217959762,-1.815914217,0.9714207405,4.693866983
7.146696792,3.852427508,-1.723342853,0.9425525252,4.324293416
7.156662792,3.53949739,-1.437496453,0.8714304292,3.918396205
7.166629792,3.280893753,-1.046297845,0.8632964406,3.550251222
7.176596792,3.028359525,-0.6439024043,0.8753112262,3.217412231
7.186562792,2.703330349,-0.1895158607,0.8844907701,2.850655216
7.196529792,2.377222946,0.207260406,0.9139525509,2.555279843
7.206495792,2.033462799,0.521189813,0.9519910276,2.304972167
7.216462792,1.670893328,0.7203003699,0.9812809002,2.067275826
7.226429792,1.30340518,0.7594726217,0.9826643515,1.800359118
7.236396542,0.8941410148,0.6641986746,0.9487797368,1.463157894
7.246363542,0.4105634165,0.450229758,0.8590109432,1.053170905
7.256330542,-0.1107749158,0.05961177886,0.7434687924,0.7540361341
7.266296542,-0.6582228202,-0.3986754423,0.7087281454,1.046181138
7.276263542,-1.228790615,-0.8059439528,0.7529377735,1.651177556
7.286230542,-1.740207392,-1.194655155,0.8314144242,2.268649962
7.296196542,-2.229693017,-1.60133602,0.8970880115,2.88800535
7.306163542,-2.677096816,-2.058199444,0.9229479074,3.500694953
7.316129542,-3.049532293,-2.556823683,0.9604040015,4.093821002
7.326096542,-3.406027676,-3.080037802,1.011470075,4.702204706
7.336063542,-3.734966301,-3.587333169,1.075429258,5.289185251
7.346029542,-4.023744494,-4.118534584,1.13431072,5.868518355
7.355996542,-4.299479889,-4.618955672,1.181565578,6.419998133
7.365963542,-4.596251226,-5.005514807,1.263592658,6.912117636
7.375929542,-4.87245966,-5.323542527,1.313780479,7.335324623
7.385896542,-5.042981426,-5.693427449,1.342452886,7.723273757
7.395863542,-5.165242027,-6.083088824,1.33137826,8.09050449
7.405829542,-5.245188668,-6.511299722,1.334076165,8.466923139
7.415796542,-5.22334347,-7.005444993,1.254784412,8.828026987
7.425762542,-5.24790353,-7.344844871,1.194570955,9.105725529
7.435729542,-5.241663966,-7.588869061,1.179741247,9.298266729
7.445696542,-5.209296704,-7.787327068,1.162394897,9.440889625
7.455662542,-5.300733708,-7.806545112,1.174194578,9.508872559
7.465629542,-5.400055683,-7.701280028,1.188571712,9.480665491
7.475596542,-5.393258294,-7.630376106,1.249331299,9.427125927
7.485562542,-5.256331707,-7.606835216,1.284223389,9.334998378
7.495529542,-5.074406701,-7.671069803,1.303941954,9.289519897
7.505495542,-4.871452185,-7.8839143,1.281623717,9.355731422
7.515462542,-4.731238877,-8.174781119,1.195851495,9.520594963
7.525429542,-4.691818703,-8.252928572,1.05235271,9.55151501
7.535395542,-4.774601244,-8.163231699,0.9429325942,9.503909232
7.545362542,-4.942564268,-7.877077736,0.9034695896,9.343101867
7.555329542,-5.353866187,-7.082062814,0.8572626257,8.919327108
7.565295542,-5.72863295,-5.965256903,0.8699253559,8.316146675
7.575262542,-5.746306744,-5.13003945,0.9278993297,7.758759122
7.585229542,-5.193651894,-4.694589699,1.046528737,7.078729747
7.595195542,-4.012193905,-4.676820595,1.068840543,6.25402038
7.605162542,-2.482661693,-5.056185608,0.8612662143,5.698280572
7.615128542,-0.6854965729,-5.827047436,0.4603675143,5.885263429
7.625095542,0.8500635338,-6.494462664,-0.03521777987,6.54995371
7.635062542,1.598569118,-6.793429631,-0.5976965368,7.004523576
7.645028542,1.588509568,-6.780427762,-1.080789986,7.047387479
7.654995542,1.024574854,-6.528426801,-1.526992182,6.782463804
7.664962542,0.3930387264,-6.096208221,-2.101087602,6.460093128
7.674928542,0.04243148983,-5.302307194,-2.495779921,5.860476041
7.684895542,-0.3157847285,-4.035846769,-2.806927223,4.926116074
7.694861542,-0.6106177139,-2.794630528,-2.943095427,4.104220324
7.704828542,-0.5689136177,-1.90873438,-2.943280199,3.553846925
7.714795542,-0.2924514145,-1.189792026,-2.771871995,3.030578699
7.724761542,0.01239609718,-0.3397641599,-2.386539899,2.410636023
7.734728542,0.2615857172,0.4506273687,-2.056962758,2.12193023
7.744695542,0.405083406,1.040176395,-1.72647696,2.055913956
7.754661542,0.5661940777,1.302818704,-1.373890441,1.976230567
7.764628542,0.8220886999,1.390512906,-1.069801971,1.937480898
7.774594542,1.142288661,1.699558718,-0.7629294956,2.185265347
7.784561542,1.507415704,2.173857955,-0.5695416818,2.705981936
7.794528542,1.744072986,2.651273172,-0.6028761466,3.230247617
7.804494542,1.91867143,2.992718992,-0.8133266473,3.646802333
7.814461542,1.904000766,3.265507389,-1.089217578,3.933847018
7.824428542,1.750911305,3.422227972,-1.344308792,4.072407251
7.834394542,1.735709129,3.388443929,-1.688708479,4.164849909
7.844361542,1.76450842,3.347266667,-1.991293849,4.27585492
7.854328542,1.877426925,3.408913862,-2.129547901,4.436259667
7.864294542,2.030208823,3.365140436,-2.220389366,4.513983491
7.874261542,2.221675315,3.15273448,-2.041729007,4.363969895
7.884227542,2.498264987,2.913634815,-1.577730226,4.149678114
7.894194542,2.69574651,3.067416587,-0.9669628233,4.196559408
7.904161542,2.823296503,3.271747538,-0.4321876625,4.343054371
7.914127542,3.130496349,3.051488187,0.05145491302,4.371982977
7.924094542,3.660918916,2.561419594,0.5986993343,4.50795281
7.934061542,4.160418482,2.097923089,1.218044602,4.816014523
7.944027542,4.615710175,1.677048107,1.906529687,5.268028685
7.953994542,5.109773,1.300720139,2.439672963,5.809789769
7.963961542,5.7383978,1.047174928,2.862175809,6.497525298
7.973927542,6.363380368,0.8666760582,3.194800519,7.172899515
7.983894542,6.995847958,0.747575292,3.444801732,7.833735791
7.993860542,7.45249445,0.8977581024,3.568713588,8.311519705
8.003827542,7.649216419,1.221867512,3.614549911,8.548008137
8.013794542,8.048730937,1.157658652,3.518319944,8.860068763
8.023760542,8.665063135,0.6363682669,3.408763003,9.333163929
8.033727542,9.152067786,0.1999496323,3.316909093,9.736642674
8.043694542,9.455873909,0.05653614342,3.157421608,9.969255686
8.053660542,9.668351786,0.102508707,2.969014964,10.11447399
8.063627542,9.684937413,0.3315833205,2.80658633,10.08884964
8.073593542,9.52477399,0.7530664122,2.547104441,9.888183332
8.083560542,9.36751371,1.269648619,2.275769076,9.723242546
8.093527542,9.151314665,1.66539753,1.997712922,9.513725135
8.103493542,8.982801418,1.584560359,1.719051581,9.282062874
8.113460542,8.830950982,0.9326952159,1.470756585,9.001041081
8.123427542,8.614542022,-0.06517189622,1.288969574,8.710684485
8.133393542,8.336816236,-1.292062166,1.139271498,8.512923654
8.143360542,7.879770378,-2.400298982,1.116596507,8.312581078
8.153326542,7.367630886,-3.243586763,1.173547876,8.13511245
8.163293542,6.74592919,-3.740422338,1.395226931,7.838684717
8.173260542,6.110961331,-3.902837523,1.696708201,7.446798496
8.183226542,5.614630955,-3.981148698,1.904515321,7.141484743
8.193193542,5.198146064,-3.973971825,2.138931366,6.883908915
8.203160542,4.846053634,-3.788635554,2.284590186,6.561809774
8.213126542,4.481603699,-3.446365278,2.415340945,6.147851432
8.223093542,4.031514859,-2.955434221,2.560557715,5.616418726
8.233058542,3.543133773,-2.470103043,2.681750615,5.083993739
8.243025542,3.049663855,-2.041331981,2.706064507,4.559634964
8.252992542,2.508257294,-1.687749097,2.645563951,4.017320038
8.262958542,1.915013412,-1.419910952,2.557065758,3.495998966
8.272925542,1.263787955,-1.204375566,2.324851774,2.907338348
8.282892542,0.5805665338,-1.216406212,1.862613004,2.299136529
8.292858542,-0.05768102825,-1.456031542,1.445104265,2.052238117
8.302825542,-0.6482363605,-1.740658797,1.064727684,2.140969049
8.312792542,-1.26215015,-2.040496414,0.6581222481,2.487925544
8.322758542,-1.940376295,-2.36127408,0.3163319548,3.072578942
8.332725542,-2.607527813,-2.665158263,0.04941591583,3.728902224
8.342691542,-3.240146846,-2.968335225,-0.1274090749,4.396111766
8.352658542,-3.840626657,-3.275825094,-0.273558476,5.055321691
8.362625542,-4.397000336,-3.563942844,-0.3476519077,5.670640387
8.372591542,-4.90813937,-3.826115914,-0.3578052322,6.233539897
8.382558542,-5.352640611,-4.064857145,-0.3643968715,6.731018511
8.392525542,-5.688565489,-4.283540964,-0.3724939495,7.130725927
8.402491542,-5.998556796,-4.465606302,-0.315590601,7.484912873
8.412458542,-6.301400467,-4.597676777,-0.2344463774,7.803924955
8.422424542,-6.580566423,-4.685782915,-0.1107456797,8.079150981
8.432391542,-6.771530054,-4.807425174,-0.02377017416,8.304548217
8.442358542,-6.948728755,-4.962166473,0.05442120552,8.538787331
8.452324542,-7.061233862,-5.179591094,0.1156134868,8.757999431
8.462291542,-7.086625396,-5.462617382,0.1371821111,8.948701978
8.472258542,-7.0522502,-5.822506489,0.1079898505,9.145899436
8.482224542,-6.974803244,-6.242139521,0.0532587425,9.360289664
8.492191542,-6.951622542,-6.580224946,0.02882911205,9.572107784
8.502157542,-6.931033326,-6.787750815,0.005818491206,9.701176112
8.512124542,-6.894135057,-6.952763334,-0.02239370305,9.791349122
8.522091542,-6.913883443,-7.009783042,-0.03335712276,9.84580902
8.532057542,-6.893538641,-6.956513738,-0.008421196528,9.793570814
8.542024542,-6.852666603,-6.934076217,0.00899184823,9.748873444
8.551991542,-6.623760974,-7.045473277,0.01364853423,9.670216617
8.561957542,-6.302706735,-7.160596767,0.05097003266,9.539436891
8.571924542,-5.953769463,-7.316796362,0.1097411281,9.433712045
8.581890542,-5.405604106,-7.740824747,0.1040020859,9.442019908
8.591857542,-4.835358492,-8.31233102,0.02198077999,9.616445388
8.601824542,-4.597075683,-8.557263283,-0.04859503984,9.714021886
8.611790542,-4.594854911,-8.307324049,-0.01343748629,9.493392707
8.621757542,-4.534945509,-7.737906402,0.1203771403,8.96969436
8.631724542,-4.242312831,-7.073538158,0.2737957998,8.252704064
8.641690542,-3.749698945,-6.497511402,0.4466150093,7.515142152
8.651657542,-2.978679242,-6.279310856,0.6147610509,6.97712018
8.661623542,-1.711471251,-6.698449214,0.691573511,6.948138574
8.671590542,-0.065073663,-7.65845502,0.6875705802,7.689533223
8.681557542,1.430532419,-8.607099102,0.5356551667,8.741596216
8.691523542,2.386479088,-8.995195177,0.288323938,9.310851164
8.701490542,2.823524544,-8.747473208,0.003856311813,9.191876481
8.711457542,2.879131565,-8.360667028,-0.123515414,8.843382146
8.721423542,2.719814819,-7.788944408,-0.1460038785,8.251446223
8.731390542,2.416718549,-6.944873686,-0.1483918448,7.354850046
8.741356542,2.163941077,-5.717698656,-0.09994762659,6.114303594
8.751323542,2.026671842,-4.213653873,0.005877621174,4.67571516
8.761290542,2.042776244,-2.941671045,0.07725816406,3.582224468
8.771256542,2.262445026,-2.121458132,-0.003955677934,3.101492826
8.781223542,2.524294453,-1.446397085,-0.09826896407,2.910976434
8.791190542,2.820555913,-0.7480342984,-0.1512137111,2.921978192
8.801156542,3.056193441,0.004097728729,-0.1885978478,3.062009845
8.811123542,3.204039119,0.7104875726,-0.2074252975,3.28841672
8.821089542,3.272233441,1.345599273,-0.1246931163,3.540296241
8.831056542,3.263011213,1.871553982,0.0140695703,3.761669102
8.841023542,3.164401429,2.312781951,0.2310363543,3.926292724
8.850989542,3.078713992,2.708340828,0.4597565534,4.126132084
8.860956542,3.040474956,3.016647552,0.5987664311,4.324716367
8.870923542,2.963610967,3.274005148,0.7084392929,4.472581571
8.880889542,2.926115112,3.449510495,0.7216094884,4.580610501
8.890856542,2.946225441,3.623600231,0.6193756004,4.711087891
8.900822542,2.989393095,3.831363498,0.4440035697,4.879852098
8.910789542,3.066961673,3.837923489,0.2234238642,4.917908991
8.920756542,3.15280757,3.904861245,0.0236573229,5.018834186
8.930722542,3.243478004,4.038532687,-0.1668597273,5.182445176
8.940689542,3.208528027,4.097850351,-0.3566276029,5.216724341
8.950656542,3.087837403,4.159449599,-0.419132511,5.197252433
8.960622542,3.036832725,4.178985731,-0.3688248217,5.179025631
8.970589542,3.111227435,3.880992326,-0.1468522364,4.976284072
8.980555542,3.379503536,3.356071989,0.2318666589,4.768440573
8.990522542,3.77302115,2.791638508,0.8188066578,4.764386476
9.000489542,4.11534142,2.291826115,1.403552781,4.915125874
9.010455542,4.44279953,1.899262767,1.86552141,5.179366453
9.020422542,4.860376681,1.552621112,2.249259555,5.576115346
9.030389542,5.373949034,1.32150699,2.66829968,6.143739263
9.040355542,6.215254608,1.098466119,3.085051205,7.025208794
9.050322542,6.980028316,0.9972829753,3.50341773,7.873328674
9.060288542,7.598233377,1.05420562,3.855713643,8.58551266
9.070255542,8.410568336,1.054554114,4.02825796,9.384913761
9.080222542,9.419831672,0.9535697758,4.016528445,10.28469858
9.090188542,10.22823847,0.9486165994,3.964524479,11.01063986
9.100155542,10.68724724,1.087526563,3.845678651,11.41004872
9.110122542,10.89295229,1.184744709,3.895108674,11.62892519
9.120088542,10.83656291,1.188777534,3.965223806,11.60031411
9.130055542,10.37140287,1.167244577,3.776537665,11.09913033
9.140021542,9.72891783,1.065080271,3.475497276,10.385823
9.149988542,9.246248889,0.8929744953,3.220453423,9.831675453
9.159955542,8.793257491,0.5908155334,2.879511634,9.271570932
9.169921542,8.37566923,0.01561440468,2.43559453,8.722625727
9.179888542,7.971947055,-0.9351756048,2.00545522,8.273351431
9.189855542,7.594944903,-2.049051476,1.758679916,8.060691972
9.199821542,7.14131265,-2.956797207,1.574181551,7.887904896
9.209788542,6.590249412,-3.472412869,1.519163345,7.602426962
9.219754542,6.092819175,-3.734440636,1.564507917,7.315475199
9.229721542,5.577243274,-3.972675498,1.708903738,7.057488585
9.23968825,5.18091315,-4.254232965,1.903289745,6.968706554
9.24965425,4.811075006,-4.316740285,2.109934439,6.799449443
9.25962125,4.496279041,-4.219783509,2.196819971,6.545923622
9.26958725,4.252955348,-4.160554723,2.216133324,6.348944141
9.27955425,3.988654768,-3.875325204,2.283497926,6.011811298
9.28952125,3.562064719,-3.381578713,2.334697316,5.438215811
9.29948725,3.046495834,-2.938977817,2.239885883,4.78913523
9.30945425,2.477757633,-2.599769728,2.074482186,4.147476566
9.31942125,1.841847787,-2.347583994,1.888730178,3.531409855
9.32938725,1.168043307,-2.157951189,1.660003474,2.962547896
9.33935425,0.473370114,-2.09296465,1.344611678,2.532303468
9.34932025,-0.1335316944,-2.256363922,1.044518538,2.489985509
9.35928725,-0.7497469479,-2.414450998,0.8849094307,2.678574025
9.36925425,-1.437898157,-2.590106619,0.7502819681,3.055998436
9.37922025,-2.08374593,-2.855753812,0.5900530565,3.584060483
9.38918725,-2.743152811,-3.07837807,0.526489108,4.156740269
9.39915425,-3.333647332,-3.271032131,0.4283132243,4.69002217
9.40912025,-3.891361778,-3.456284202,0.3042008096,5.213553021
9.41908725,-4.498475255,-3.656077129,0.2425015382,5.801895086
9.42905325,-5.002495889,-3.836716332,0.1973014283,6.307478512
9.43902025,-5.422908356,-4.051376389,0.1796311426,6.771547314
9.44898725,-5.762222865,-4.234634267,0.1735664836,7.153003917
9.45895325,-6.019997951,-4.432803715,0.1840399432,7.478234739
9.46892025,-6.282295275,-4.561897957,0.2155312926,7.76689131
9.47888625,-6.52640308,-4.699476217,0.2484890505,8.046164346
9.48885325,-6.748250535,-4.869186974,0.2594204202,8.325573014
9.49882025,-6.913376489,-5.064253596,0.2474436414,8.57336966
9.50878625,-7.012016094,-5.345026367,0.1950332934,8.819054062
9.51875325,-7.009005362,-5.755022019,0.1212805716,9.069792918
9.52872025,-6.906389651,-6.299746875,0.05044451416,9.348132078
9.53868625,-6.779437244,-6.819939737,0.01854853749,9.61627222
9.54865325,-6.701847616,-7.189679064,-0.03907986581,9.82892536
9.55861925,-6.642339333,-7.498911402,-0.1235522515,10.01846341
9.56858625,-6.620270187,-7.765250906,-0.2071264317,10.20637058
9.57855325,-6.607036183,-7.993453115,-0.1893709228,10.37227464
9.58851925,-6.650232489,-7.977549857,-0.1596536187,10.38712584
9.59848625,-6.65303506,-7.879083331,-0.108705038,10.31283891
9.60845325,-6.432997903,-8.006185427,-0.01840765614,10.27048226
9.61841925,-5.943608172,-8.346793925,0.1314284144,10.24757144
9.62838625,-5.391988279,-8.694655893,0.2407251906,10.23369568
9.63835225,-4.974286582,-8.975190682,0.2986997491,10.26580714
9.64831925,-4.661456451,-9.140491469,0.295365082,10.26474554
9.65828625,-4.463935168,-9.027869418,0.2890009725,10.07534937
9.66825225,-4.541990819,-8.351083442,0.3090254203,9.51134964
9.67821925,-4.77505031,-7.345088115,0.3886012745,8.769403391
9.68818525,-4.666913073,-6.571625445,0.5219492932,8.077052042
9.69815225,-4.203038837,-5.978433019,0.6627133356,7.338009662
9.70811925,-3.464225598,-5.637361422,0.6769404153,6.651236811
9.71808525,-2.482050658,-5.675570637,0.5528537283,6.219190041
9.72805225,-1.314331287,-6.055141472,0.424336533,6.210657491
9.73801925,-0.169002074,-6.620392978,0.1997555778,6.62556165
9.74798525,0.8309595108,-7.243748267,-0.1647792149,7.293115579
9.75795225,1.389027128,-7.657788438,-0.5889010819,7.804993568
9.76791825,1.473422331,-7.77643546,-1.01151159,7.979165215
9.77788525,1.282875606,-7.554710212,-1.223637464,7.759942322
9.78785225,1.013266339,-7.004093701,-1.192243836,7.176732029
9.79781825,0.5812489039,-6.137425829,-1.228374878,6.286075957
9.80778525,0.2212048459,-5.228687825,-1.093747416,5.346437259
9.81775125,0.2555005199,-4.421062213,-0.9471582308,4.528595844
9.82771825,0.6531182009,-3.620214109,-0.685660368,3.742010652
9.83768525,1.246062706,-2.938122954,-0.3758426499,3.213486651
9.84765125,1.878426214,-2.337608644,-0.01383692421,2.998848225
9.85761825,2.468341277,-1.689264695,0.3070126625,3.006755834
9.86758525,2.968117417,-1.07177241,0.6128840582,3.214660785
9.87755125,3.413143153,-0.4617674839,0.8988795984,3.55960109
9.88751825,3.882500322,0.1670947123,1.210520405,4.070268916
9.89748425,4.268272714,0.9154839367,1.609474175,4.65259819
9.90745125,4.634834079,1.597679756,1.957685223,5.278901303
9.91741825,5.056079189,2.075919431,2.168909456,5.880267551
9.92738425,5.319938303,2.530184938,2.364154419,6.347661419
9.93735125,5.587956542,2.946703159,2.510447661,6.797842693
9.94731725,5.865003467,3.232291696,2.50764626,7.150822683
9.95728425,6.057119,3.344267045,2.387552637,7.319372941
9.96725125,6.209720219,3.381613212,2.118781276,7.381406858
9.97721725,6.306109815,3.492547172,1.742746838,7.416338266
9.98718425,6.18429711,3.638436372,1.329322963,7.297317967
9.99715125,5.946096747,3.695045021,1.018128299,7.074320424
10.00711725,5.681028428,3.703278485,0.8370242429,6.832932395
10.01708425,5.381846868,3.688525375,0.7665582776,6.56940688
10.02705025,5.130615985,3.513753269,0.75210513,6.263812302
10.03701725,4.942760149,3.285517146,0.94043576,6.009153038
10.04698425,4.788472886,3.132588483,1.127594608,5.832156787
10.05695025,4.691649719,2.932317839,1.413690684,5.710392836
10.06691725,4.579077954,2.779518984,1.809002223,5.653863257
10.07688325,4.517337204,2.643729095,2.247902416,5.69637641
10.08685025,4.618931699,2.443302915,2.680507497,5.872765925
10.09681725,4.875442325,2.120887443,3.122058817,6.165659143
10.10678325,5.31735208,1.8421267,3.579242084,6.669230676
10.11675025,5.888529155,1.746258091,3.966382724,7.31138734
10.12671725,6.377383865,1.822176585,4.268785515,7.887577717
10.13668325,7.0278065,1.792448756,4.392133698,8.479019705
10.14665025,7.72208559,1.530442039,4.44192274,9.039000848
10.15661625,8.282388014,1.165834814,4.555012568,9.523930991
10.16658325,8.812236968,0.7764681387,4.518738781,9.933651057
10.17655025,9.09458147,0.7029376477,4.564156444,10.19985576
10.18651625,9.318117601,0.8904011357,4.653134694,10.4533149
10.19648325,9.52107855,1.136981728,4.615726547,10.64183235
10.20644925,9.765146009,1.299563559,4.546655728,10.84983964
10.21641625,10.11588656,1.091154175,4.224049637,11.01654999
10.22638325,10.34819995,0.5529635829,3.730462775,11.0139622
10.23634963,10.29415881,-0.2980945623,3.191328442,10.78161135
10.24631663,9.891914814,-1.392073528,2.718244257,10.35261799
10.25628362,9.315433145,-2.268622609,2.356809146,9.873119698
10.26624963,8.556189149,-2.7890517,1.985454819,9.215704692
10.27621662,7.667816412,-3.103488645,1.850771808,8.476579888
10.28618263,6.90529973,-3.451851135,1.987058126,7.971627225
10.29614962,6.34346826,-3.936638523,2.144245316,7.76752859
10.30611663,5.808657943,-4.261788152,2.255928304,7.549341552
10.31608262,5.403558165,-4.241364412,2.348323667,7.259630636
10.32604963,5.017102234,-3.869918284,2.372304268,6.765752721
10.33601563,4.496342776,-3.19527122,2.42398196,6.025159339
10.34598263,3.991683041,-2.489095969,2.455765085,5.306591599
10.35594963,3.45082261,-1.890389618,2.46638129,4.643790075
10.36591562,2.881708433,-1.478146881,2.414944503,4.039940426
10.37588263,2.351864741,-1.326611025,2.348727125,3.578782429
10.38584862,1.853124728,-1.324083858,2.320252354,3.251282871
10.39581563,1.319922395,-1.411790339,2.203879899,2.931285332
10.40578262,0.637878018,-1.627592357,1.958595049,2.625269475
10.41574863,-0.008662065268,-2.124624984,1.714971394,2.730427299
10.42571562,-0.610821197,-2.709599733,1.50139541,3.15740739
10.43568263,-1.297028207,-3.116768841,1.286955793,3.612863877
10.44564863,-1.950401346,-3.422535535,1.03323575,4.072516546
10.45561563,-2.520936397,-3.748569848,0.785497336,4.585182907
10.46558163,-3.085918931,-4.086921613,0.611921643,5.157545154
10.47554862,-3.695982914,-4.325247106,0.541646297,5.715018193
10.48551563,-4.231815324,-4.56287298,0.4709627787,6.240983633
10.49548162,-4.653293738,-4.872292137,0.3986210632,6.749168248
10.50544863,-4.964839236,-5.2297374,0.3659158319,7.220365386
10.51541462,-5.156798648,-5.670994021,0.4313823913,7.677163294
10.52538163,-5.263957061,-5.979485518,0.4448900441,7.978810572
10.53534862,-5.356258283,-6.100758525,0.4637724942,8.131656799
10.54531463,-5.513640186,-6.210662205,0.5453878937,8.32286015
10.55528163,-5.600418713,-6.393243268,0.5965878681,8.520221026
10.56524762,-5.657698038,-6.612378784,0.5869090452,8.722245267
10.57521463,-5.618557945,-6.987392299,0.4968870306,8.979907642
10.58518162,-5.516921058,-7.496659055,0.3815998185,9.31568212
10.59514763,-5.436554587,-7.985261165,0.3208577728,9.665581792
10.60511462,-5.377864915,-8.329265726,0.344789257,9.920533162
10.61508163,-5.339953322,-8.470311677,0.4036789048,10.02118945
10.62504762,-5.31309823,-8.442555529,0.4320379372,9.984608828
10.63501463,-5.322775372,-8.264524185,0.4380915231,9.840031598
10.64498063,-5.355578252,-8.020664302,0.441838967,9.65445472
10.65494763,-5.376324173,-7.91672829,0.3680343147,9.576789529
10.66491463,-5.373828582,-8.028655107,0.1891866624,9.662977183
10.67488062,-5.481081719,-8.135004265,0.01960520245,9.809227063
10.68484763,-5.701180272,-8.12238422,-0.09592240334,9.924000353
10.69481362,-5.862135408,-8.194835899,-0.1576222229,10.07694456
10.70478063,-5.987393292,-8.341199893,-0.1137808963,10.26827348
10.71474762,-6.187518926,-8.230888077,0.0266668117,10.29726275
10.72471363,-6.441309135,-7.793018748,0.1560586043,10.11167439
10.73468062,-6.636716065,-7.268272074,0.3551680648,9.848853914
10.74464663,-6.554746288,-6.785258147,0.6476804365,9.456421996
10.75461363,-5.907425601,-6.603508558,0.8220354903,8.898300111
10.76458063,-4.814128422,-7.021017298,0.8393083115,8.554236073
10.77454663,-3.542316332,-7.833158129,0.6806941085,8.623787784
10.78451362,-2.299335694,-8.476608544,0.4337563974,8.793633018
10.79447963,-1.566024685,-8.597369335,0.02668201447,8.738873195
10.80444662,-1.383602082,-8.466794577,-0.4885911472,8.593002179
10.81441363,-1.447490514,-8.296288599,-0.9316226904,8.472989682
10.82437962,-1.620102074,-7.899677809,-1.29167815,8.166888799
10.83434663,-1.845343253,-7.180443971,-1.533438298,7.570700123
10.84431362,-1.911613841,-6.39891039,-1.74915831,6.903613289
10.85427963,-1.763437795,-5.566421247,-1.905591355,6.142152454
10.86424663,-1.359499859,-4.803608404,-1.925794508,5.350848348
10.87421262,-0.8381048083,-4.173146117,-1.816402313,4.627838107
10.88417963,-0.1136815667,-3.728364502,-1.710270671,4.103492552
10.89414662,0.7569021857,-3.480511848,-1.395911201,3.825628278
10.90411263,1.514141171,-2.973134912,-1.186491272,3.541174414
10.91407962,2.091077753,-2.338931869,-1.119498553,3.331138765
10.92404563,2.58566332,-1.872833353,-1.186031681,3.405852422
10.93401262,3.0617711,-1.45229634,-1.025785813,3.540599309
10.94397963,3.578128189,-0.9448252648,-0.5577899478,3.742569404
10.95394563,4.218533959,-0.3392466813,0.03942368209,4.232336388
10.96391263,5.005757466,0.2044923341,0.5461099883,5.039609215
10.97387863,5.743767298,0.7108500999,1.056501748,5.883227565
10.98384562,6.481507573,1.19673501,1.532101479,6.766790232
10.99381263,7.137769822,1.659052716,1.912347667,7.573459417
11.00377862,7.687779976,2.04459005,2.294397136,8.279285455
11.01374563,8.095928493,2.39036047,2.471591159,8.795831069
11.02371162,8.231524839,2.715620027,2.537965828,9.031825056
11.03367863,8.154184302,3.094359972,2.41611687,9.050050055
11.04364562,7.858196492,3.513672577,2.010721223,8.839691562
11.05361163,7.399298821,3.702880874,1.403166865,8.392248034
11.06357862,6.989876196,3.561801594,0.8904286176,7.895420379
11.07354463,6.619259788,3.287851939,0.460407385,7.405170185
11.08351163,6.430647322,2.970965011,0.0903359735,7.084350264
11.09347862,6.394690454,2.543099098,-0.2678890888,6.887030099
11.10344463,6.316833608,2.097412042,-0.388367459,6.667259811
11.11341162,6.300813407,1.802935737,-0.3709918729,6.56418021
11.12337863,6.279883883,1.699509017,-0.1880944756,6.508506128
11.13334462,6.36009014,1.680250627,0.1218477881,6.579425176
11.14331163,6.581436489,1.582327307,0.5194087511,6.788877036
11.15327762,6.882325435,1.445939832,1.104983498,7.118857628
11.16324463,7.279098194,1.503392819,1.755764494,7.637288095
11.17321162,7.839087206,1.41985248,2.236435441,8.274594417
11.18317763,8.521782378,0.9915345776,2.554385394,8.951469179
11.19314463,8.853228289,0.7216463989,2.892661437,9.341729757
11.20311062,8.841952518,0.6529544789,3.242712604,9.44042684
11.21307763,8.752375513,0.5807694322,3.630700505,9.493332208
11.22304462,8.602268132,0.5040527934,3.894809296,9.45635372
11.23301063,8.43139378,0.4819953418,4.106698358,9.39072372
11.24297817,8.37060788,0.5338431877,4.272221339,9.412966588
11.25294417,8.364728504,0.5482694381,4.30237426,9.422298372
11.26291117,8.375516033,0.4008757496,4.090620854,9.329691804
11.27287817,8.162276264,-0.0234754014,3.705240226,8.963933848
11.28284417,7.81180059,-0.7241361433,3.225310705,8.482407132
11.29281117,7.419839505,-1.599161441,2.692673798,8.053684112
11.30277717,6.928154157,-2.372673812,2.385009683,7.701764229
11.31274417,6.314104128,-2.894402738,2.258813905,7.303952246
11.32271117,5.694700972,-3.234366288,2.17231429,6.899977813
11.33267717,5.071621088,-3.551889394,2.172869775,6.561906871
11.34264417,4.649063278,-3.98199479,2.184418611,6.499365856
11.35261017,4.211924266,-4.343891246,2.124584638,6.412765165
11.36257717,3.641487449,-4.369083974,2.13858755,6.07642019
11.37254417,3.120701094,-4.229982807,2.124416238,5.669627344
11.38251017,2.644107994,-3.915898449,2.121271605,5.179320513
11.39247717,2.190969831,-3.41238126,2.113683089,4.573002391
11.40244317,1.733391293,-2.881914255,2.093130126,3.961220629
11.41241017,1.345748377,-2.385905476,2.021128097,3.404194827
11.42237717,1.0379182,-1.885003163,1.887643765,2.862465737
11.43234317,0.6916911131,-1.376936256,1.659900563,2.264875256
11.44231017,0.3415843982,-1.038012925,1.315918221,1.710494519
11.45227617,-0.03317710161,-0.9019698519,0.9532353882,1.312748277
11.46224317,-0.4512530208,-0.8488560838,0.7057051349,1.192562651
11.47221017,-0.8699616086,-0.8833909088,0.4722375083,1.326733192
11.48217617,-1.334426413,-1.001613423,0.2271819428,1.68390467
11.49214317,-1.80702411,-1.233744961,0.01200141013,2.188060053
11.50210917,-2.235525615,-1.605269735,-0.1778326122,2.757914091
11.51207617,-2.612768088,-2.112490549,-0.3064759612,3.373885137
11.52204317,-3.060798708,-2.551233745,-0.3939479685,4.004057611
11.53200917,-3.560845574,-2.878279626,-0.4315466615,4.598950677
11.54197617,-4.065749722,-3.218303694,-0.4194033102,5.202278213
11.55194217,-4.538449745,-3.585880428,-0.3896017331,5.797228135
11.56190917,-4.896928504,-4.009807071,-0.4208996127,6.343155209
11.57187617,-5.192632724,-4.519625804,-0.3234387338,6.891666317
11.58184217,-5.393744783,-5.030147372,-0.2672037951,7.380126234
11.59180917,-5.532242517,-5.47482286,-0.2798325384,7.788305263
11.60177517,-5.719993104,-5.887989457,-0.2848248911,8.213882527
11.61174217,-5.868080857,-6.354984351,-0.3039055252,8.655204077
11.62170917,-5.969844044,-6.855413041,-0.375689526,9.098179405
11.63167517,-6.062374477,-7.346718319,-0.4800931694,9.537145475
11.64164217,-6.18431699,-7.761563067,-0.5551907873,9.939611395
11.65160817,-6.365471333,-8.041104999,-0.5861944789,10.27240083
11.66157517,-6.612134956,-8.166293886,-0.6391410166,10.5269742
11.67154217,-6.958519918,-8.00307003,-0.6631198633,10.62590501
11.68150817,-7.370452167,-7.669895682,-0.5799538187,10.65303766
11.69147517,-7.725285771,-7.34079509,-0.5098446067,10.66898563
11.70144117,-7.865401431,-7.22201709,-0.3676607142,10.68443938
11.71140817,-7.635432193,-7.420996084,-0.1857942541,10.64920312
11.72137517,-7.169084585,-7.790046608,0.09076282024,10.58720161
11.73134117,-6.671897593,-8.196301796,0.3626074773,10.5747371
11.74130817,-6.214106215,-8.536841882,0.494517885,10.57058813
11.75127417,-5.892282482,-8.590960786,0.5393066798,10.43141658
11.76124117,-5.781232747,-8.058956548,0.656083324,9.939812777
11.77120817,-5.818197675,-7.17438684,0.8125526221,9.272728427
11.78117417,-5.779856313,-6.208289405,0.9131314556,8.531319089
11.79114117,-5.41740788,-5.46007969,0.9862943029,7.754582826
11.80110717,-4.663079638,-5.121990173,0.9897921073,6.997055342
11.81107417,-3.440989348,-5.287577473,0.883783257,6.370239875
11.82104117,-1.703924249,-5.925264287,0.7062220287,6.205712229
11.83100717,0.2501333606,-6.735914079,0.3733317094,6.750887478
11.84097417,1.744384058,-7.378293868,-0.09281643547,7.582262923
11.85094017,2.429878292,-7.745296698,-0.5731820121,8.137718788
11.86090717,2.558639828,-7.964335735,-0.9587292858,8.420002572
11.87087417,2.326072673,-7.991472663,-1.294116293,8.423122128
11.88084017,1.843400223,-7.49660526,-1.489104563,7.86222915
11.89080717,1.277162876,-6.424195504,-1.461036758,6.710891245
11.90077317,0.9320724875,-5.163827001,-1.281222598,5.401425716
11.91074017,0.9009378183,-3.997506868,-1.138703148,4.253045376
11.92070717,1.383950576,-3.136646451,-0.9122392436,3.547682425
11.93067317,2.098718895,-2.533445345,-0.6613580972,3.355646115
11.94064017,2.73792657,-2.052793694,-0.4701243246,3.454159917
11.95060617,3.254885922,-1.453844098,-0.2485464263,3.573474549
11.96057317,3.640817358,-0.7664056653,0.06224532824,3.721129285
11.97054017,3.949111218,-0.09727077127,0.3816191143,3.968699304
11.98050617,4.045509585,0.6037712091,0.7204992483,4.153288654
11.99047317,4.140057893,1.283033481,1.112066742,4.474700739
12.00043917,4.305749273,1.836083018,1.433657171,4.895513307
12.01040617,4.490047663,2.373070253,1.722239483,5.362657856
12.02037317,4.606583256,2.902633864,1.869008104,5.756655621
12.03033917,4.699082115,3.425701802,1.931206691,6.127508861
12.04030617,4.825089612,3.856929279,1.854926255,6.449662366
12.05027217,4.912219557,4.166079172,1.584507149,6.633006826
12.06023917,4.887472971,4.412241104,1.15170911,6.68443696
12.07020617,4.770484804,4.576325085,0.6862170229,6.646139507
12.08017217,4.616160411,4.657085073,0.2535954239,6.562140577
12.09013917,4.400606314,4.710373088,-0.09886640333,6.446915939
12.10010517,4.135736216,4.744250101,-0.3554546515,6.303853669
12.11007217,3.874154007,4.724286538,-0.5575646838,6.135049383
12.12003917,3.585091639,4.654273732,-0.629715305,5.908611291
12.13000517,3.399425,4.442448404,-0.7166394281,5.63959309
12.13997217,3.350732019,4.065397135,-0.6045314202,5.302859339
12.14993817,3.375166072,3.681115783,-0.3972370273,5.010005657
12.15990517,3.567309086,3.195555979,-0.09560833476,4.790241443
12.16987217,3.869804848,2.628844423,0.3694486465,4.692835482
12.17983817,4.183309747,2.139443582,0.9802781028,4.799817126
12.18980517,4.660434358,1.704523004,1.640874308,5.226616073
12.19977117,5.249638399,1.466991563,2.419657359,5.963682528
12.20973817,5.799021147,1.388810781,3.051626181,6.698497145
12.21970517,6.471280793,1.300168746,3.456464004,7.450842723
12.22967117,7.038018662,1.15024029,3.754073832,8.05914572
12.23963825,7.724873543,0.5078739488,3.978831446,8.704177553
12.24960425,8.160495787,-0.199385376,4.211127291,9.185153187
12.25957125,8.331480651,-0.5410200602,4.404329821,9.439512367
12.26953825,8.430304443,-0.635297057,4.608493541,9.628699189
12.27950425,8.436984887,-0.5369392884,4.639144646,9.643271272
12.28947125,8.31507278,-0.1912378657,4.611018369,9.509915754
12.29943725,8.073426068,0.2883554399,4.531702058,9.262811716
12.30940425,7.991994234,0.6477522111,4.464673086,9.177410339
12.31937125,8.057907557,0.5204144722,4.198279788,9.100893286
12.32933725,8.065341707,-0.2595397764,3.80884587,8.923250788
12.33930425,7.839607608,-1.176543989,3.549824742,8.685905762
12.34927025,7.418075985,-1.942196533,3.22765193,8.319718485
12.35923725,6.865204203,-2.745465969,2.848962856,7.923711346
12.36920425,6.184219342,-3.489997201,2.5411625,7.542026
12.37917025,5.407431945,-4.005301207,2.286812713,7.10719849
12.38913725,4.581511565,-4.27669095,2.064699794,6.598736163
12.39910325,3.84480917,-4.369669281,1.950301943,6.138423645
12.40907025,3.241241444,-4.393990189,1.883761799,5.775928878
12.41903725,2.759496948,-4.317753607,1.746844566,5.41380509
12.42900325,2.353371568,-4.038619811,1.604253781,4.941906303
12.43897025,2.02460836,-3.562152427,1.576975935,4.390310014
12.44893625,1.764120165,-2.970018931,1.628233797,3.818936724
12.45890325,1.42987987,-2.25508572,1.714986012,3.173506746
12.46887025,1.089988825,-1.566298335,1.707992742,2.560977415
12.47883625,0.7907131255,-1.001060861,1.621485525,2.063144543
12.48880325,0.472933327,-0.5735259014,1.460955482,1.639203713
12.49876925,0.1814081115,-0.3398553765,1.228014105,1.287023396
12.50873625,-0.1318120283,-0.2123153239,0.9493819269,0.9817220842
12.51870225,-0.5233374953,-0.2184665948,0.6097301066,0.832694776
12.52866925,-0.9667868221,-0.4038975906,0.2571827638,1.078866533
12.53863625,-1.434661138,-0.6787377763,0.01770653844,1.587214879
12.54860225,-1.922078018,-0.969246161,-0.1130324527,2.155596986
12.55856925,-2.434888771,-1.345910052,-0.4268245232,2.814664522
12.56853525,-2.956561564,-1.756766122,-0.5568899882,3.483907282
12.57850225,-3.50688396,-2.192915785,-0.5828042632,4.17693375
12.58846925,-4.039099867,-2.576750117,-0.5580151387,4.823416818
12.59843525,-4.481447579,-2.963895434,-0.5133796871,5.397370401
12.60840225,-4.847866856,-3.401277106,-0.4143616947,5.936513675
12.61836825,-5.207404545,-3.806952834,-0.266216712,6.45606872
12.62833525,-5.506729946,-4.160431931,-0.06807438098,6.902021637
12.63830225,-5.729010095,-4.492202947,0.08057689749,7.280654958
12.64826825,-5.943143903,-4.816709675,0.2917655361,7.655506428
12.65823525,-6.125382904,-5.099633344,0.5595516407,7.989973342
12.66820125,-6.184115261,-5.379744794,0.7784607967,8.233525176
12.67816825,-6.104700133,-5.742552246,0.9040537264,8.429803269
12.68813525,-5.972637843,-6.18902166,0.9760054692,8.656152644
12.69810125,-5.906223999,-6.592016441,0.9779175087,8.904745102
12.70806825,-5.910720508,-6.908519207,0.9090315342,9.137318692
12.71803425,-5.891933988,-7.129597753,0.8780201682,9.290692636
12.72800125,-5.80958765,-7.213761991,0.8593185067,9.302048109
12.73796825,-5.686901371,-7.261072397,0.8590179598,9.262933198
12.74793425,-5.635766301,-7.235307226,0.8567802304,9.211167397
12.75790125,-5.613200727,-7.018934519,0.8556254053,9.028042923
12.76786725,-5.486734807,-6.829759551,0.8034856372,8.797469156
12.77783425,-5.234764836,-6.899392873,0.7096122444,8.689530163
12.78780025,-4.971086401,-7.046631026,0.5629892919,8.641971173
12.79776725,-4.806035875,-7.22998509,0.3376521456,8.688191654
12.80773425,-4.667643975,-7.468311753,0.1211993319,8.807795979
12.81770025,-4.500320052,-7.514265021,-0.0976730597,8.75937209
12.82766725,-4.530381757,-7.091655171,-0.263807513,8.41935427
12.83763325,-4.78989756,-6.230574313,-0.3574907251,7.867081703
12.84760025,-4.827664726,-5.382348559,-0.4688579638,7.245402025
12.85756725,-4.559683324,-4.6754044,-0.5921497218,6.557496444
12.86753325,-4.012817802,-4.24351034,-0.6865625203,5.880599869
12.87750025,-3.148651954,-4.341719005,-0.7837158356,5.420216191
12.88746625,-1.99786495,-4.817252881,-0.9418743213,5.299482703
12.89743325,-0.6314080739,-5.545710994,-1.240808982,5.717796211
12.90740025,0.4419553632,-6.417821454,-1.580116621,6.624237715
12.91736625,1.014200724,-7.18055039,-1.840771315,7.48180099
12.92733325,1.087777408,-7.582671597,-1.879395683,7.887477187
12.93729925,0.8679794025,-7.595813214,-2.103967209,7.929466858
12.94726625,0.5173920465,-7.218071973,-2.078384618,7.529139404
12.95723325,0.04114919543,-6.322041138,-1.848325918,6.586820637
12.96719925,-0.2017295247,-5.105739591,-1.63304664,5.364337135
12.97716625,-0.1406530184,-3.945795555,-1.466326004,4.211792704
12.98713225,0.2837203521,-3.047049858,-1.203155325,3.288250722
12.99709925,0.7723078448,-2.209924166,-1.053237979,2.567008856
13.00706525,1.221172278,-1.482405408,-0.9859282672,2.158898347
13.01703225,1.656182318,-0.811019336,-0.8581245053,2.033978835
13.02699925,1.986962231,-0.1364061856,-0.7140602213,2.115775876
13.03696525,2.23270024,0.4605717283,-0.5640973393,2.348463857
13.04693225,2.376340601,1.002509217,-0.3862180225,2.607907924
13.05689825,2.401971286,1.512308069,-0.1655365024,2.843227759
13.06686525,2.461761405,2.059906831,0.01186400056,3.209926187
13.07683225,2.516377323,2.552939962,0.08469165623,3.585642196
13.08679825,2.645969163,2.800451431,0.08648967505,3.853720474
13.09676525,2.721740307,2.929317632,0.03604216419,3.998758698
13.10673125,2.681948835,3.06677924,-0.01224991679,4.07408082
13.11669825,2.647657254,3.098569967,0.005980459079,4.075691419
13.12666525,2.709168209,3.028132653,0.112061888,4.064694037
13.13663125,2.886190909,2.958889925,0.2578756589,4.141452331
13.14659825,2.931692771,3.068377869,0.4572679784,4.268355568
13.15656425,2.918188627,3.190383532,0.6883699677,4.378153167
13.16653125,2.904665771,3.268450293,0.9275011343,4.469911511
13.17649825,2.935343773,3.358774572,1.145113524,4.605311572
13.18646425,3.09562297,3.349890897,1.305234774,4.744290085
13.19643125,3.445996318,3.11817802,1.426216589,4.861277461
13.20639725,3.853915624,2.746944146,1.603589537,4.996985809
13.21636425,4.228833829,2.39939968,1.872145135,5.210094221
13.22633025,4.635279052,1.997467924,2.169352675,5.493794774
13.23629725,5.058000584,1.580042215,2.528471119,5.871377139
13.2462645,5.699497443,1.114398027,2.955035441,6.516010169
13.2562305,6.385576399,0.7266902071,3.490156245,7.31333407
13.2661975,7.141439534,0.371256094,3.914578732,8.152417823
13.2761635,7.914073069,0.1299742484,4.125782501,8.925890829
13.2861305,8.570342335,0.1210461348,4.323114334,9.599725905
13.2960975,9.208312154,0.04778344631,4.571036278,10.28054807
13.3060635,9.84943947,-0.1652604407,4.731544687,10.92823334
13.3160305,10.24036677,-0.1878464806,4.717034236,11.27611679
13.3259965,10.32612203,0.07262885034,4.71960935,11.3538004
13.3359635,10.2235338,0.3106730926,4.837109441,11.31436206
13.3459305,9.973600416,0.3501482302,4.841147236,11.09197979
13.3558965,9.56362406,0.2999773657,4.812798765,10.71055197
13.3658635,9.049829805,0.3208221048,4.649915217,10.17959026
13.3758295,8.495541244,0.3881674111,4.264168553,9.51357075
13.3857965,7.987270269,0.3915237129,3.776141224,8.84358636
13.3957625,7.500402442,0.1667333543,3.300724,8.196256202
13.4057295,7.012322488,-0.2532908571,2.791305217,7.551702308
13.4156965,6.531071497,-0.7796583796,2.319270022,6.9743656
13.4256625,6.045000061,-1.389577936,1.960932181,6.505244622
13.4356295,5.565724844,-2.036627896,1.680742963,6.160360633
13.4455955,5.097370471,-2.596683567,1.504050046,5.91507547
13.4555625,4.675627763,-2.953929148,1.329799511,5.688194716
13.4655295,4.032933978,-2.995908063,1.160546007,5.156247534
13.4754955,3.492327316,-2.974586776,1.013291555,4.6980077
13.4854625,3.110209435,-2.948028722,0.8608026031,4.370956096
13.4954285,2.720869072,-2.760496822,0.7261926822,3.943453692
13.5053955,2.321444017,-2.490924978,0.6669427729,3.469671775
13.5153625,1.978817645,-2.213940618,0.7313685644,3.05812889
13.5253285,1.682175531,-1.832247244,0.7866311842,2.608760836
13.5352955,1.390811114,-1.402482741,0.7366631451,2.10807637
13.5452615,1.134264527,-1.103483614,0.7296950912,1.742609259
13.5552285,0.843746202,-0.8577046752,0.788584739,1.438551651
13.5651945,0.5088381547,-0.6528129762,0.7863464248,1.141674975
13.5751615,0.1749615562,-0.6028783393,0.6783425776,0.9242415759
13.5851285,-0.1843878525,-0.678717311,0.5387249915,0.8859349214
13.5950945,-0.6229565084,-0.840220331,0.3708380181,1.109759367
13.6050615,-1.098187206,-1.131033356,0.2454321992,1.595458729
13.6150275,-1.540072403,-1.495813658,0.1707351156,2.153701926
13.6249945,-2.008498111,-1.856551488,0.1416581182,2.738779859
13.6349615,-2.520421257,-2.16202436,0.1927060284,3.326260401
13.6449275,-3.020017887,-2.464458141,0.2704418369,3.907326548
13.6548945,-3.467766672,-2.827169114,0.359975609,4.488638249
13.6648605,-3.884229929,-3.174950683,0.4525516508,5.037098071
13.6748275,-4.304239522,-3.486397363,0.5590476108,5.567223605
13.6847945,-4.642899143,-3.797316038,0.6691044885,6.035215188
13.6947605,-4.910142041,-4.096789959,0.7729504538,6.441322476
13.7047275,-5.143379872,-4.38403472,0.8641284263,6.813283707
13.7146935,-5.353893085,-4.673787645,0.9500094062,7.170145046
13.7246605,-5.508073636,-5.00455294,0.9872818977,7.507273197
13.7346265,-5.593604368,-5.369439662,0.9944277799,7.817172041
13.7445935,-5.601900398,-5.82560142,0.9700185782,8.140015725
13.7545605,-5.570323679,-6.324138535,0.9195600307,8.477548274
13.7645265,-5.53233081,-6.774808003,0.8161929524,8.784695704
13.7744935,-5.52365939,-7.122329664,0.7300389075,9.042751224
13.7844595,-5.553027615,-7.342079138,0.6393684733,9.22773178
13.7944265,-5.655584269,-7.391523778,0.5958125274,9.326052207
13.8043935,-5.754178265,-7.399083644,0.5758267808,9.390877635
13.8143595,-5.832861323,-7.379215389,0.5612327152,9.422848462
13.8243265,-5.953889916,-7.213183116,0.600828342,9.372289501
13.8342925,-6.06142372,-6.932689258,0.6285300744,9.230281031
13.8442595,-6.121139579,-6.656652732,0.7765020525,9.076471274
13.8542255,-5.943556132,-6.387207772,0.9344031876,8.774701814
13.8641925,-5.604033462,-6.268225704,1.02537468,8.470374121
13.8741595,-5.137770054,-6.427075258,0.9911626216,8.287724708
13.8841255,-4.76287056,-6.413239576,0.8012433761,8.028484837
13.8940925,-4.592171624,-6.172649456,0.5006357536,7.709752116
13.9040585,-4.242429775,-6.099921788,0.1639191625,7.431966476
13.9140255,-3.903733317,-6.048493187,-0.1093639096,7.199678056
13.9239925,-3.740438125,-5.71396287,-0.3219639198,6.836951793
13.9339585,-3.572386224,-5.199158217,-0.5688136303,6.333777581
13.9439255,-3.336310739,-4.706419786,-0.768844612,5.820006751
13.9538915,-2.998396053,-4.361574395,-0.9220186387,5.372506721
13.9638585,-2.568719843,-4.130833618,-1.054139546,4.9772802
13.9738245,-1.978477337,-4.01561511,-1.141199398,4.619726545
13.9837915,-1.2635681,-4.204451525,-1.283474361,4.573983319
13.9937585,-0.4393527675,-4.741991322,-1.467730651,4.983346849
14.0037245,0.3483233142,-5.457163099,-1.682769023,5.721334618
14.0136915,0.8914466178,-6.104903616,-1.748951464,6.412749524
14.0236575,1.088288455,-6.402778323,-1.943297564,6.779111109
14.0336245,1.109065951,-6.33068917,-1.852295008,6.688695646
14.0435915,0.9416420406,-5.820378102,-1.58908201,6.10644517
14.0535575,0.791837545,-5.086481202,-1.178617485,5.280950377
14.0635245,0.7729516232,-4.169934241,-0.7828801954,4.312621846
14.0734905,0.7888268137,-3.123437591,-0.5450085191,3.26728395
14.0834575,0.9106798643,-2.200385018,-0.2884426365,2.398797865
14.0934235,1.122068405,-1.403445193,0.08354552887,1.798798424
14.1033905,1.426476206,-0.7336431313,0.3513784113,1.64211248
14.1133575,1.802783709,-0.1566942698,0.4864449998,1.873822546
14.1233235,2.07179656,0.3885948426,0.6353059009,2.201581369
14.1332905,2.281190615,0.9251985008,0.8134329935,2.592584834
14.1432565,2.466170205,1.403362162,0.9368846729,2.988172306
14.1532235,2.506038276,1.848954493,1.16805259,3.326140017
14.1631895,2.481378813,2.209769799,1.370765689,3.594345831
14.1731565,2.456090775,2.474310699,1.500138259,3.795393277
14.1831235,2.404520672,2.600935078,1.551422433,3.866974852
14.1930895,2.334644691,2.656236289,1.465605042,3.828074607
14.2030565,2.247155727,2.723007984,1.261233891,3.749025509
14.2130225,2.219925828,2.740103488,1.164283474,3.713730445
14.2229895,2.269647042,2.715011916,1.190280341,3.733544521
14.2329565,2.40987029,2.759470636,1.224910403,3.862972754
14.24292138,2.605301778,2.845241103,1.333738927,4.081893411
14.25288838,2.913254746,2.987885098,1.541126071,4.448548094
14.26285437,3.20676743,3.201914241,1.730082353,4.850649143
14.27282138,3.498773287,3.432129647,1.930164133,5.267491054
14.28278737,3.851596618,3.559683732,2.060316136,5.634806773
14.29275438,4.225517873,3.563420103,2.14261979,5.928219268
14.30272137,4.576858058,3.492606229,2.280840366,6.192589178
14.31268738,4.835752594,3.371815032,2.502866161,6.404527991
14.32265437,5.180906718,3.109278558,2.808418847,6.663079167
14.33262038,5.686975631,2.839425462,3.064657871,7.056639189
14.34258738,6.171733782,2.570479855,3.43231091,7.515212755
14.35255438,6.768313501,2.103185583,3.837888991,8.059953421
14.36252038,7.604280567,1.463713614,4.09510216,8.759988709
14.37248737,8.495164098,1.19379386,4.23937519,9.568973761
14.38245338,9.347040854,1.348568489,4.234807345,10.34985038
14.39242037,10.08736852,1.31139657,4.093446229,10.96499278
14.40238638,10.62327519,0.9647128147,3.854713769,11.34211025
14.41235337,10.81341495,0.6394134969,3.624039942,11.42245412
14.42232038,10.76031989,0.4851200938,3.454075416,11.31151903
14.43228638,10.45049231,0.3114437556,3.396281537,10.99293023
14.44225338,9.901139381,0.02150196612,3.457977848,10.48764197
14.45221938,9.185382882,-0.04969490111,3.522063332,9.837614466
14.46218637,8.536993909,0.1104591662,3.528466033,9.238102553
14.47215338,8.060193819,0.2916532695,3.469846526,8.780183423
14.48211937,7.690087872,0.1382790488,3.283974066,8.36307708
14.49208638,7.365579098,-0.4447316211,2.96089552,7.950876929
14.50205237,7.026538239,-1.151965218,2.643449598,7.595201726
14.51201938,6.704815078,-1.869423257,2.369746111,7.35288958
14.52198537,6.362313251,-2.584939435,2.108727574,7.183848117
14.53195238,5.898709742,-3.194565461,1.870364658,6.964071299
14.54191938,5.287511984,-3.561104021,1.711536739,6.600651698
14.55188537,4.56810273,-3.740091385,1.526386995,6.098008148
14.56185238,3.92893657,-3.863913193,1.302295963,5.66236192
14.57181837,3.331900769,-3.847332829,1.236637579,5.237633543
14.58178538,2.825053591,-3.674563978,1.248175889,4.800134506
14.59175137,2.39627142,-3.366366597,1.204050461,4.303984003
14.60171838,1.995623712,-2.834271142,1.212827132,3.672404738
14.61168537,1.732449891,-2.229850892,1.251819874,3.088797601
14.62165138,1.498534368,-1.725641393,1.314950507,2.636766638
14.63161837,1.312926201,-1.373502186,1.275324512,2.288391591
14.64158438,1.137316774,-1.122117521,1.236558641,2.020325332
14.65155138,0.8782897979,-0.9035918695,1.15533263,1.709580276
14.66151838,0.5317183095,-0.8712181753,0.9766434735,1.412649264
14.67148438,0.09924537599,-0.9792495775,0.7440149224,1.233830452
14.68145137,-0.3507580948,-1.245754557,0.5065805447,1.389805564
14.69141738,-0.7943588644,-1.613786497,0.3292227995,1.828578823
14.70138437,-1.23185631,-1.96489981,0.1668982093,2.325114243
14.71135038,-1.763045447,-2.34961327,0.06832588434,2.938312474
14.72131737,-2.318750789,-2.767315553,0.1084991795,3.611981819
14.73128438,-2.858534163,-3.216916735,0.2831859531,4.312767687
14.74125038,-3.374985393,-3.64200025,0.4674538646,4.987304416
14.75121738,-3.833103629,-4.063620751,0.6278833723,5.621381909
14.76118338,-4.209105908,-4.503475794,0.8022719014,6.216229322
14.77115037,-4.539922074,-4.877278643,0.9197272611,6.72641343
14.78111638,-4.832267069,-5.150681875,1.014917593,7.135151472
14.79108337,-5.109191787,-5.386373783,1.100067086,7.5051323
14.80105038,-5.344928133,-5.592257169,1.159666001,7.822175032
14.81101637,-5.532786309,-5.755278127,1.138086852,8.06412998
14.82098338,-5.661257823,-5.973080478,1.095936613,8.302325432
14.83094938,-5.690636573,-6.341410625,1.005553862,8.579508837
14.84091638,-5.611404462,-6.756091651,0.8919389534,8.827694463
14.85088238,-5.388046671,-7.218892338,0.7882771754,9.042390968
14.86084937,-5.035231526,-7.76073744,0.7031066322,9.27776703
14.87081638,-4.705594743,-8.219770181,0.6414629459,9.493087929
14.88078237,-4.559186311,-8.259673335,0.6021556234,9.453622312
14.89074938,-4.592874459,-8.031357105,0.5687621748,9.269341032
14.90071537,-4.681381423,-7.853605258,0.5787503886,9.161299012
14.91068238,-4.907872737,-7.576537868,0.7199816966,9.055910474
14.92064937,-5.092250649,-7.283391804,0.8119431961,8.92401617
14.93061538,-5.039697629,-7.482721632,0.8235405636,9.059133196
14.94058238,-5.00304962,-7.77849368,0.8827254957,9.290569075
14.95054837,-5.1324333,-8.029386594,0.9848827851,9.580340012
14.96051538,-5.414252722,-8.222120762,1.00501241,9.895830046
14.97048137,-5.718557028,-8.346365324,0.9056834916,10.15795113
14.98044838,-6.248823473,-7.986030659,0.8013317422,10.17185396
14.99041537,-6.989306093,-6.957159855,0.8848182142,9.901281543
15.00038138,-7.439661566,-5.673740458,1.080594616,9.418470137
15.01034837,-7.201521429,-4.608906355,1.250983576,8.641116166
15.02031438,-6.540814712,-3.889148607,1.353833176,7.729204244
15.03028138,-5.693321614,-3.654438154,1.299557712,6.888953438
15.04024738,-4.465289383,-3.953055165,1.07679166,6.060110122
15.05021438,-3.081355764,-4.68179833,0.7112909069,5.649772004
15.06018137,-1.834371538,-5.659626449,0.2677151341,5.955498457
15.07014738,-1.080065516,-6.503298976,-0.2333016387,6.596504283
15.08011437,-0.7580827385,-7.105705445,-0.6646266907,7.176870345
15.09008038,-0.6420722258,-7.351867377,-1.004468107,7.447896807
15.10004737,-0.7615045291,-7.140658931,-1.160834933,7.274368485
15.11001338,-1.005811139,-6.51820236,-1.270314032,6.71657024
15.11998037,-1.214987678,-5.677942268,-1.39616307,5.971975785
15.12994738,-1.143841681,-4.807360269,-1.530265453,5.173084081
15.13991338,-0.6748587334,-4.09342781,-1.590155559,4.442992263
15.14988038,0.002613705397,-3.616529778,-1.555585066,3.936894635
15.15984638,0.8020959002,-3.303877403,-1.393576116,3.67437316
15.16981337,1.633270004,-2.908557678,-1.133287457,3.523012792
15.17977938,2.395158695,-2.529249383,-0.8792820704,3.592634768
15.18974637,3.105257428,-2.145872011,-0.5832151763,3.819362554
15.19971338,3.72999032,-1.601805552,-0.3010976192,4.070536646
15.20967937,4.021827192,-0.861743347,0.03995512091,4.113306696
15.21964638,4.227552704,-0.1150930846,0.4305597246,4.250979883
15.22961238,4.53436605,0.3393367285,0.7801121966,4.61348024
15.23957938,4.981659336,0.7276520741,1.185513691,5.172219059
15.24954954,5.796955326,1.292391949,0.9728475342,6.018421747
15.25951654,6.616878802,1.441519922,0.4040654057,6.784123644
15.26948354,6.328188316,1.603723438,0.9365187833,6.595071164
15.27944954,6.051784585,2.3114406,2.138213913,6.821936166
15.28941654,6.598006328,2.825901437,1.807772554,7.401854366
15.29938254,6.838794669,2.709268781,1.012391596,7.425239834
15.30934954,6.970092727,2.753584828,0.4439767456,7.507432143
15.31931554,6.945989335,2.972864186,0.08493080735,7.555918379
15.32928254,6.752476317,3.123011329,-0.3569818711,7.448259678
15.33924954,6.550551496,3.246180003,-0.8362046094,7.358440572
15.34921554,6.30107887,3.331624196,-1.196720538,7.227409962
15.35918254,6.072079686,3.269429702,-1.45400899,7.047940439
15.36914854,5.975050989,3.023087091,-1.575285505,6.879085281
15.37911554,5.937750431,2.71981365,-1.532530664,6.708421328
15.38908154,5.928745719,2.495520304,-1.329932828,6.568589553
15.39904854,5.885831834,2.260758689,-1.015772602,6.386379272
15.40901554,5.926568216,1.916716121,-0.5709637977,6.254918958
15.41898154,6.033510282,1.661710861,-0.06269837782,6.258471091
15.42894854,6.262617055,1.229337915,0.4677350061,6.399251528
15.43891454,6.723847765,0.7460661256,1.063330054,6.848168677
15.44888154,7.18173796,0.5581477243,1.641904002,7.388148466
15.45884754,7.779526298,0.4074298936,2.078730334,8.062763071
15.46881454,8.466822059,0.098993361,2.27411256,8.767466191
15.47878154,8.991521956,-0.2393037325,2.363339317,9.300005703
15.48874754,9.436217324,-0.4299767572,2.471477138,9.763978525
15.49871454,9.796748455,-0.3952062893,2.589387411,10.14087745
15.50868054,9.960022012,-0.2939640892,2.602486344,10.298611
15.51864754,9.96048862,-0.1295216739,2.626028988,10.30165703
15.52861454,9.845498446,0.3690926242,2.62272882,10.19552723
15.53858054,9.62385389,1.05752333,2.473022557,9.992635281
15.54854754,9.327794158,1.395367849,2.108040526,9.664296672
15.55851354,8.968773948,1.052252065,1.716070086,9.191900624
15.56848054,8.484279506,0.2901973128,1.380525277,8.600759458
15.57844654,7.982670264,-0.6864777356,1.023363823,8.077224136
15.58841354,7.410344796,-1.60853862,0.7649092897,7.621397032
15.59837954,6.688319498,-2.283187439,0.6815795231,7.100078396
15.60834654,5.918139455,-2.820239578,0.6815051904,6.591098179
15.61831354,5.154478472,-3.310055571,0.7390377724,6.170193922
15.62827954,4.418452016,-3.617530822,0.8207034945,5.769124863
15.63824654,3.790862759,-3.739019591,0.8798205259,5.396757555
15.64821254,3.297606849,-3.757717817,0.9536550721,5.089608248
15.65817954,2.938161546,-3.709735565,1.053210935,4.848111437
15.66814654,2.730450904,-3.578438092,1.196840259,4.657575327
15.67811254,2.522743186,-3.342805241,1.365789124,4.404992622
15.68807954,2.284308935,-2.991771743,1.551222458,4.071247547
15.69804554,2.036196372,-2.635690343,1.764905446,3.769330243
15.70801254,1.674608064,-2.283233632,1.891521639,3.405190464
15.71797854,1.254005563,-1.946722863,1.932912909,3.016357434
15.72794554,0.7865610176,-1.726628988,1.946838638,2.718475046
15.73791254,0.3569748545,-1.623942525,1.916826049,2.537487433
15.74787854,-0.06419658065,-1.632473028,1.678660769,2.342432788
15.75784554,-0.5935409206,-1.7330083,1.385479038,2.296771812
15.76781154,-1.148725276,-1.985123282,1.132071236,2.557707858
15.77777854,-1.640829284,-2.317681333,0.9625838435,2.998422112
15.78774454,-2.15213204,-2.569842508,0.809343524,3.448303899
15.79771154,-2.68181201,-2.810384097,0.6974862885,3.946753292
15.80767854,-3.141156993,-3.137412728,0.6876752454,4.492563091
15.81764454,-3.599016198,-3.416285739,0.6913203996,5.010174621
15.82761154,-4.00598767,-3.701453277,0.6870478392,5.497338293
15.83757754,-4.365148214,-4.01240265,0.6959473014,5.96977693
15.84754454,-4.741955654,-4.273764711,0.7544369996,6.428093296
15.85751054,-5.044371893,-4.552975983,0.8071765459,6.843011916
15.86747754,-5.307915843,-4.89330206,0.8692482483,7.271448836
15.87744354,-5.520322384,-5.222550003,0.9179461992,7.654515855
15.88741054,-5.6488091,-5.611107423,0.9661915755,8.020417503
15.89737754,-5.719080938,-6.058738094,0.9855400121,8.389724857
15.90734354,-5.767618675,-6.494905298,0.9971432269,8.743198192
15.91731054,-5.746763411,-7.000413464,0.961137827,9.107956098
15.92727654,-5.670032154,-7.535411476,0.9374256134,9.47683795
15.93724354,-5.643884575,-7.946188901,0.9041379994,9.788402151
15.94720954,-5.739492983,-8.168600028,0.867543785,10.02099987
15.95717654,-5.841580691,-8.278276252,0.8130237615,10.16439523
15.96714354,-5.969717744,-8.30268136,0.7656870425,10.25467329
15.97710954,-6.172664659,-8.119209766,0.7655151343,10.2278722
15.98707654,-6.361375943,-7.846264079,0.7386511984,10.12800916
15.99704254,-6.444864242,-7.570818121,0.6844277018,9.966042515
16.00700954,-6.374473706,-7.41034772,0.6613037181,9.797167497
16.01697554,-6.130145461,-7.493726091,0.6014364159,9.700326792
16.02694254,-5.889520842,-7.634128264,0.5317024489,9.656556198
16.03690954,-5.721992267,-7.653832211,0.4281605389,9.565859317
16.04687554,-5.536400473,-7.674057146,0.2565582081,9.466187479
16.05684254,-5.387663094,-7.600461166,0.07930103503,9.316663147
16.06680854,-5.498445026,-7.100832376,-0.05116847254,8.980942954
16.07677554,-5.640311927,-6.305737932,-0.1429486352,8.461435091
16.08674154,-5.43373506,-5.614292986,-0.1916308717,7.815528442
16.09670854,-5.042148197,-5.068070074,-0.2017825882,7.151874505
16.10667554,-4.690522376,-4.574243476,-0.2161903469,6.55526062
16.11664154,-4.07817564,-4.409242067,-0.2532758005,6.011412545
16.12660854,-3.158044336,-4.630604203,-0.4092811952,5.619897722
16.13657454,-2.108356276,-5.10211841,-0.6543234582,5.559219158
16.14654154,-1.132965276,-5.802394406,-0.9010098852,5.980234942
16.15650754,-0.4353199428,-6.529024971,-1.167993094,6.646945042
16.16647454,-0.1023391378,-6.959827355,-1.415466483,7.103042692
16.17644054,-0.06721549809,-6.994975553,-1.605045494,7.177072659
16.18640754,-0.03844134986,-6.795140526,-1.639062256,6.990131443
16.19637454,-0.1482403654,-6.182366359,-1.525703601,6.369568312
16.20634054,-0.154807958,-5.371503729,-1.310082846,5.531124196
16.21630754,0.09626797378,-4.626458527,-1.041536531,4.743225102
16.22627354,0.3729541254,-3.790579169,-0.6814907916,3.8693688
16.23624054,0.695811646,-3.039121326,-0.3900209054,3.142058017
16.24620675,1.10369119,-2.544135225,-0.1369108003,2.776599152
16.25617375,1.57645027,-2.092248366,0.1876255289,2.626385733
16.26614075,2.196459782,-1.673951422,0.5088218556,2.808104097
16.27610675,2.85503402,-1.238788185,0.7879678577,3.210406324
16.28607375,3.408820891,-0.6852755481,1.094144441,3.645108298
16.29603975,3.91123471,-0.1042248648,1.393062876,4.153220913
16.30600675,4.281201493,0.4381681216,1.665127974,4.614469492
16.31597275,4.564563995,0.9911241031,1.889311976,5.038558444
16.32593975,4.8020662,1.422933962,2.028802568,5.403759868
16.33590675,4.96166946,1.7425416,2.044411125,5.642183257
16.34587275,5.095324531,1.918471456,1.99047173,5.796968389
16.35583975,5.22911818,2.069450072,1.947207597,5.951295487
16.36580575,5.361140708,2.29685706,1.915882308,6.139054249
16.37577275,5.434548408,2.571418918,1.869264797,6.29608311
16.38573875,5.42967066,2.838896289,1.816911167,6.39076066
16.39570575,5.432063341,3.167322114,1.782706125,6.535845977
16.40567275,5.425742501,3.528469541,1.723156326,6.697615002
16.41563875,5.395145191,3.75574789,1.647921957,6.777084965
16.42560575,5.419904641,3.797153778,1.568864678,6.801108697
16.43557175,5.487513072,3.696129094,1.554340194,6.796333087
16.44553875,5.53500942,3.364776739,1.539233912,6.657874497
16.45550475,5.554237989,3.032638518,1.716136159,6.556796423
16.46547175,5.541210977,2.922448323,1.971218019,6.567451847
16.47543775,5.735242642,2.531207031,2.187509449,6.63966978
16.48540475,6.084098053,2.198702774,2.519748827,6.942598732
16.49537175,6.528582337,2.057355691,2.88218732,7.427119463
16.50533775,7.100969201,1.962615595,3.15619837,8.01481202
16.51530475,7.598202971,2.019585017,3.216270325,8.494457419
16.52527075,7.972658662,2.117458636,2.986801025,8.773134991
16.53523775,8.392192876,1.959015464,2.860316395,9.080091009
16.54520375,8.961181338,1.554434334,2.941651164,9.558888463
16.55517075,9.50968408,0.9946762866,3.0283911,10.02968718
16.56513775,9.984968573,0.345654645,3.121241376,10.46714967
16.57510375,10.26392871,-0.268808198,3.400247118,10.81582964
16.58507075,10.27985418,-0.4503215593,3.826959375,10.97833364
16.59503675,10.2287542,-0.2342417979,4.101349325,11.02285571
16.60500375,10.28749649,0.1658083248,4.19250157,11.11022709
16.61496975,10.27734924,0.7763564569,4.107737993,11.09505061
16.62493675,10.10008271,1.201961251,3.766878065,10.84646264
16.63490375,9.843596932,1.051346331,3.218677039,10.40968835
16.64486975,9.500110434,0.506615628,2.586161503,9.85885333
16.65483675,8.903335419,-0.241765995,2.041011554,9.137481083
16.66480275,8.172529356,-1.256746153,1.571850851,8.416671674
16.67476975,7.467898355,-2.27429207,1.276552427,7.910214685
16.68473575,6.781535225,-3.112324957,1.042434005,7.534086229
16.69470275,6.005817284,-3.664740656,0.8672462348,7.088884352
16.70466875,5.143902029,-3.962447548,0.8150773767,6.544086627
16.71463575,4.272284489,-4.173715636,0.8299514508,6.030019599
16.72460275,3.458455566,-4.290182231,0.8040272355,5.568935111
16.73456875,2.723578672,-4.179226636,0.7668465453,5.046966384
16.74453575,2.079252929,-3.855720075,0.7461917677,4.443722785
16.75450175,1.615860504,-3.566993337,0.8478019039,4.006646316
16.76446875,1.353045702,-3.355166255,1.055287939,3.768488544
16.77443475,1.243963555,-3.20948697,1.273937552,3.670309091
16.78440175,1.066201183,-2.990367242,1.460845554,3.494731883
16.79436875,0.7266369975,-2.630606189,1.5711907,3.149084067
16.80433475,0.3707421237,-2.349620579,1.577510955,2.854243753
16.81430175,-0.03411967278,-2.184874109,1.426037664,2.609295392
16.82426775,-0.4772789776,-2.115227923,1.16623067,2.462128828
16.83423475,-0.9825479919,-2.201939793,0.9601736212,2.595356004
16.84420075,-1.530361932,-2.409639909,0.7983133364,2.964064156
16.85416775,-2.073228543,-2.643987542,0.6989726508,3.431837624
16.86413375,-2.557214277,-2.899996769,0.634604162,3.918169032
16.87410075,-3.020896139,-3.194779469,0.6206141138,4.440449438
16.88406775,-3.442989095,-3.543404792,0.6625842583,4.984868035
16.89403375,-3.822734177,-3.945735913,0.7749981487,5.548220491
16.90400075,-4.194546926,-4.290842382,0.9260691512,6.07150363
16.91396675,-4.590219823,-4.530386435,1.071546707,6.537792565
16.92393375,-4.948069421,-4.758183432,1.19939023,6.968661097
16.93389975,-5.226702111,-5.000623026,1.314415487,7.352029222
16.94386675,-5.418038794,-5.282862278,1.393730628,7.69456063
16.95383375,-5.573589934,-5.590833957,1.466951802,8.029587578
16.96379975,-5.743158603,-5.819828464,1.481314902,8.309546794
16.97376675,-5.851816826,-6.056774014,1.457612629,8.547099286
16.98373275,-5.868382573,-6.405727658,1.443660003,8.806555232
16.99369975,-5.809073095,-6.806228601,1.395745579,9.056389111
17.00366575,-5.697557922,-7.161211894,1.314648206,9.245183718
17.01363275,-5.651440347,-7.475579842,1.219567802,9.450418912
17.02359875,-5.709885607,-7.664658916,1.159521575,9.627786881
17.03356575,-5.797872169,-7.775257246,1.145476563,9.766374122
17.04353275,-5.865112225,-7.796962695,1.135252122,9.822472503
17.05349875,-6.03857631,-7.648568548,1.14292133,9.811792591
17.06346575,-6.241738987,-7.465019771,1.191068473,9.803288727
17.07343175,-6.29854878,-7.337967961,1.262702127,9.752533373
17.08339875,-6.164048202,-7.39349546,1.270421621,9.709440583
17.09336475,-5.947587202,-7.668446158,1.164670633,9.774216986
17.10333175,-5.775555101,-8.131791805,1.008354678,10.02496154
17.11329875,-5.575826494,-8.690861635,0.8325511229,10.3592499
17.12326475,-5.492515365,-8.86504902,0.6568130565,10.44931685
17.13323175,-5.670078932,-8.405773619,0.5172804377,10.15255654
17.14319775,-5.990101138,-7.504214827,0.4996586108,9.614791237
17.15316475,-6.190706243,-6.417567101,0.5278497916,8.932448526
17.16313075,-6.101107603,-5.452013456,0.560109392,8.201322286
17.17309775,-5.681786227,-4.761485647,0.6086787772,7.438073013
17.18306375,-4.902006226,-4.527612516,0.6139154705,6.701181413
17.19303075,-3.81789853,-4.723255089,0.3598551198,6.083994044
17.20299775,-2.42998705,-5.330842776,-0.05550476767,5.858822624
17.21296375,-1.101347626,-6.210829436,-0.48355304,6.326230506
17.22293075,-0.2409111321,-7.090723709,-0.9517875445,7.15837275
17.23289675,-0.008860285878,-7.611518251,-1.396472973,7.738567396
17.24285967,-0.1926283336,-7.609719647,-1.760807717,7.813154459
17.25282567,-0.5021097636,-7.268975494,-1.94082653,7.540353212
17.26279267,-0.7665898526,-6.717461436,-1.9160051,7.027305578
17.27275867,-0.9369297695,-5.953633808,-1.8218392,6.296244197
17.28272567,-0.7474121547,-5.188287073,-1.597023114,5.479729055
17.29269267,-0.3629904699,-4.348562002,-1.281585125,4.547990105
17.30265867,0.2222550058,-3.699155613,-1.0684126,3.856767432
17.31262567,0.9492855209,-3.290303092,-0.7497533798,3.505619427
17.32259167,1.727263995,-2.876394483,-0.3902712758,3.377780011
17.33255867,2.43801937,-2.42313002,-0.007514859829,3.437376037
17.34252467,3.071921867,-1.857379746,0.4270572058,3.615099077
17.35249167,3.654626727,-1.274222896,0.7991910034,3.952043366
17.36245767,4.085891041,-0.5681663436,1.098405308,4.268935794
17.37242467,4.401608527,0.148761937,1.237702357,4.574734403
17.38239167,4.601078687,0.775371201,1.302094234,4.844231103
17.39235767,4.685992538,1.176581996,1.148132368,4.965992267
17.40232467,4.702122667,1.396891049,0.9439546144,4.995228973
17.41229067,4.811237558,1.580273765,0.7788935637,5.123665406
17.42225767,4.960428681,1.751280264,0.661259864,5.301895875
17.43222367,5.135449879,1.894766259,0.6319968885,5.510209134
17.44219067,5.419710513,1.876979613,0.6712159181,5.774672746
17.45215767,5.6903179,1.842419645,0.7254932821,6.024995307
17.46212367,5.887870758,1.997130539,0.7828632385,6.26645253
17.47209067,5.93135884,2.199555298,0.8515832251,6.383122683
17.48205667,5.883845535,2.352966356,0.9268322128,6.40430378
17.49202367,5.780614112,2.594862744,1.068951713,6.425843909
17.50198967,5.620653588,2.839181049,1.224471277,6.414984465
17.51195667,5.496086259,2.988682074,1.398827646,6.410608668
17.52192267,5.452328621,3.021875548,1.615987973,6.439800956
17.53188967,5.401185949,2.939390046,1.867398366,6.426507618
17.54185667,5.486420227,2.820478145,2.080886056,6.510452416
17.55182267,5.683295978,2.693360261,2.168825841,6.652657229
17.56178967,5.762192459,2.577101242,2.269169909,6.707715321
17.57175567,6.057516611,2.307225342,2.47790966,6.939512415
17.58172267,6.679455703,1.937584834,2.714238914,7.465685258
17.59168867,7.277522954,1.833195662,2.930525082,8.056731592
17.60165567,7.963210731,1.97241202,3.006275761,8.737323862
17.61162167,8.660182464,2.115469998,3.060997514,9.425692516
17.62158867,9.401046907,2.054574755,2.952752688,10.06576916
17.63155567,9.958596461,1.783941057,2.898577065,10.52415499
17.64152167,10.33966418,1.57591642,2.957612894,10.86920613
17.65148867,10.72940333,1.365583887,2.972511599,11.21698446
17.66145467,11.00075623,1.074539897,3.0313112,11.46124431
17.67142167,11.14865103,0.7291372669,3.16835824,11.61303383
17.68138767,11.11312802,0.6494098967,3.277511723,11.60454354
17.69135467,11.02810366,1.031114965,3.241647241,11.54082082
17.70132167,11.01135489,1.31727653,3.018239164,11.49325549
17.71128767,11.06424647,1.022417817,2.745047894,11.44544346
17.72125467,10.93901782,0.3147965491,2.50681771,11.22699171
17.73122067,10.58150736,-0.5571706545,2.227099777,10.8276826
17.74118767,10.10761626,-1.479918002,1.690528278,10.35432034
17.75115367,9.435730251,-2.371977409,1.433249035,9.834301449
17.76112067,8.736133118,-3.134345571,1.580713475,9.415030489
17.77108667,8.012298106,-3.801548545,1.811734042,9.051578455
17.78105367,7.249005498,-4.301872569,1.960041651,8.654244715
17.79101967,6.499487761,-4.643511347,2.02668646,8.240934218
17.80098667,5.755093355,-4.715743171,2.024952761,7.711015942
17.81095367,5.049254318,-4.738548481,2.073032076,7.228158332
17.82091967,4.288600559,-4.656025558,2.199318486,6.701318568
17.83088667,3.498732941,-4.381561933,2.254095202,6.043191404
17.84085267,2.791106411,-4.067524937,2.287643017,5.437678244
17.85081967,2.207326248,-3.759574893,2.321907116,4.939427618
17.86078567,1.667067495,-3.480457469,2.332195877,4.509083702
17.87075267,1.098909338,-3.270741817,2.217941283,4.10178221
17.88071867,0.4193202066,-3.156499502,2.038103734,3.780632933
17.89068567,-0.235176183,-3.223937779,1.811705976,3.705585134
17.90065267,-0.7673336184,-3.466430583,1.591450717,3.890714235
17.91061867,-1.331572387,-3.662135137,1.438862947,4.15387113
17.92058567,-1.931804277,-3.883363664,1.250618271,4.514025606
17.93055167,-2.529806038,-4.153685414,1.069330612,4.97960732
17.94051867,-3.136402037,-4.381725362,0.9105424547,5.464944872
17.95048467,-3.72365837,-4.59530924,0.8117852481,5.970049745
17.96045167,-4.24552763,-4.830372864,0.7565788347,6.475292919
17.97041767,-4.713216589,-5.039253241,0.7542381211,6.94099121
17.98038467,-5.146990528,-5.197843763,0.7888595581,7.3574038
17.99035167,-5.507451493,-5.359597628,0.8544863677,7.732234841
18.00031767,-5.780757369,-5.5376126,0.9258609903,8.058506539
18.01028467,-5.994951403,-5.686397341,1.020336792,8.325601733
18.02025067,-6.128419948,-5.868251011,1.121242193,8.558684773
18.03021767,-6.180646693,-6.078605763,1.211449528,8.753139524
18.04018367,-6.202015343,-6.233249999,1.288398886,8.886977639
18.05015067,-6.177811378,-6.380680525,1.329147547,8.980260051
18.06011667,-6.143126864,-6.595750473,1.338808901,9.112318105
18.07008367,-6.089206765,-6.863828353,1.287470348,9.265428139
18.08005067,-5.99941049,-7.170844597,1.229860071,9.430084531
18.09001667,-5.977566462,-7.406907218,1.205244462,9.594070541
18.09998367,-5.918875619,-7.603126912,1.185983734,9.708098931
18.10994967,-5.841187173,-7.731995451,1.191891761,9.763392199
18.11991667,-5.819798058,-7.818804384,1.242759029,9.825894435
18.12988267,-5.860643783,-7.792312989,1.362400078,9.844969337
18.13984967,-5.84217009,-7.766261305,1.49830808,9.833142586
18.14981567,-5.717984585,-7.776773429,1.596474645,9.78377657
18.15978267,-5.527688706,-7.815521758,1.650044496,9.713926581
18.16974967,-5.309364783,-7.998351327,1.623499306,9.736463853
18.17971567,-5.147234357,-8.230619105,1.501098372,9.822953156
18.18968267,-5.055388048,-8.420698053,1.253726066,9.901360162
18.19964867,-5.020566124,-8.541382245,0.9962562042,9.957601181
18.20961567,-5.193474138,-8.194444721,0.8263273466,9.73673019
18.21958167,-5.500791514,-7.366591251,0.6827279162,9.219082999
18.22954867,-5.608154579,-6.48092636,0.5821008066,8.590264584
18.23951467,-5.485516248,-5.711226958,0.5152952349,7.935649378
18.24948213,-5.226974591,-5.095585316,0.4093493883,7.311211939
18.25944913,-4.659981199,-4.728048636,0.2008985623,6.6415532
18.26941512,-3.862826196,-4.704137617,-0.1077280048,6.087852024
18.27938213,-2.862627214,-5.110637804,-0.4907334208,5.878271227
18.28934812,-1.841009881,-5.829585128,-0.8482310164,6.171942644
18.29931513,-1.089477779,-6.526669128,-1.185292666,6.722298003
18.30928112,-0.6527258527,-7.024339685,-1.537651656,7.220233491
18.31924813,-0.4178630805,-7.201279939,-1.867458592,7.451204192
18.32921413,-0.2736274731,-7.111683639,-2.09269217,7.41823946
18.33918113,-0.2854406029,-6.691307425,-2.089415975,7.015748749
18.34914813,-0.2741683406,-6.128322884,-1.954602571,6.438321276
18.35911412,-0.1576327479,-5.426503224,-1.846326755,5.734170193
18.36908113,0.1522322595,-4.68835452,-1.836996353,5.037697725
18.37904712,0.6250077116,-3.984017926,-1.667872657,4.364038574
18.38901413,1.194535872,-3.211980808,-1.484695178,3.734709685
18.39898012,1.783713015,-2.566417794,-1.356213723,3.406970513
18.40894713,2.319700377,-2.080541071,-1.210109931,3.342757399
18.41891312,2.736385244,-1.588499628,-1.069153369,3.339794035
18.42888013,3.13253235,-1.115752242,-0.900915672,3.445186648
18.43884713,3.585217354,-0.6145745248,-0.7106566302,3.706280908
18.44881313,3.806832674,0.06394690454,-0.5322919945,3.84439839
18.45878013,3.89933621,0.6682648283,-0.360398984,3.972566952
18.46874612,4.056199465,1.055635264,-0.1791896778,4.195143484
18.47871313,4.229391654,1.383574015,-0.007433126718,4.44995349
18.48867912,4.461372918,1.647534871,0.06576955475,4.756316337
18.49864613,4.708980866,1.8348399,0.1508594064,5.056075238
18.50861212,4.900942032,1.962926667,0.2485376555,5.285270558
18.51857913,5.053457297,2.043244606,0.4295306146,5.467794411
18.52854513,5.130335319,2.171058308,0.61340859,5.604471854
18.53851213,5.070690211,2.330914752,0.759463193,5.632215118
18.54847913,4.904503571,2.4509347,0.8435707124,5.547327981
18.55844512,4.608597037,2.715784918,0.8818285328,5.421464372
18.56841213,4.255814636,2.993947492,0.8554359555,5.273277015
18.57837812,3.990750995,3.175040438,0.8145288348,5.164342409
18.58834513,3.802794587,3.217374864,0.8148744053,5.047451633
18.59831112,3.717387232,3.188091424,0.9258071959,4.983975694
18.60827813,3.803600333,3.102703364,1.124853433,5.035815615
18.61824413,4.041512136,2.94873799,1.333728256,5.177615971
18.62821113,4.12010193,2.819977039,1.588696679,5.23941481
18.63817813,4.230360245,2.50375026,1.956045663,5.29063586
18.64814412,4.579622329,2.036952417,2.326136407,5.525669771
18.65811113,4.73897065,2.036646608,2.787481722,5.86309019
18.66807712,5.107444054,1.729536223,3.131215557,6.235526536
18.67804413,5.782304542,1.035972247,3.566547779,6.872302916
18.68801012,6.478854107,0.7450007629,3.967220045,7.633440349
18.69797713,7.214829108,0.5104239196,4.227594219,8.377758919
18.70794313,7.935179179,0.03076980293,4.326668272,9.03814548
18.71791013,8.413825235,-0.3280007315,4.408780721,9.504598204
18.72787713,8.813255553,-0.304013114,4.509439369,9.904591907
18.73784312,9.298622984,-0.2051589167,4.578346467,10.36666465
18.74781013,9.663980992,-0.1795083511,4.651783987,10.72678172
18.75777612,9.775983823,-0.01808543801,4.835788847,10.90665121
18.76774313,9.699910963,0.5390214819,5.018531878,10.93455436
18.77770912,9.573562573,1.170164677,5.006169695,10.86665177
18.78767613,9.264906185,1.516142088,4.851881554,10.56777782
18.79764212,8.85849663,1.368267758,4.557095346,10.05545808
18.80760913,8.403947534,0.7394961941,4.112621588,9.385459237
18.81757513,7.876572536,-0.1660018677,3.603270632,8.663227504
18.82754213,7.332658104,-1.124643518,3.250696392,8.099365713
18.83750913,6.610166198,-2.008830233,2.890469316,7.488959136
18.84747512,5.842330304,-2.67994441,2.535885388,6.909822004
18.85744213,5.036574631,-3.061638368,2.293642845,6.324674776
18.86740812,4.16265972,-3.218277674,2.192730428,5.700273139
18.87737513,3.470528896,-3.336424175,2.106238414,5.254763301
18.88734112,2.996297488,-3.427234358,1.945608383,4.950669243
18.89730813,2.775142928,-3.305938547,1.828879248,4.687797697
18.90727413,2.583358347,-2.990004714,1.748646094,4.321068352
18.91724113,2.275539865,-2.632759718,1.614180014,3.836024313
18.92720813,2.041746549,-2.310642455,1.435866834,3.401398402
18.93717412,1.791081676,-1.940257012,1.267005678,2.928800818
18.94714113,1.470121577,-1.550857008,1.061761976,2.386158713
18.95710712,1.092811276,-1.297430495,0.8173179567,1.882968671
18.96707413,0.6202855003,-1.170059427,0.6198095369,1.462175443
18.97704012,0.1174343097,-1.194230062,0.443165079,1.27920739
18.98700713,-0.4177601695,-1.309961663,0.288825556,1.404970932
18.99697313,-0.9520144165,-1.443699764,0.1169279408,1.733283762
19.00694013,-1.523189152,-1.652484539,-0.03383608282,2.247655496
19.01690613,-2.139306757,-1.910846979,-0.06261783242,2.869127145
19.02687312,-2.728689723,-2.188181879,-0.02141484261,3.497763019
19.03684013,-3.262621204,-2.481558323,-0.02477816105,4.099200262
19.04680612,-3.720580981,-2.803352527,-0.02457701683,4.658552592
19.05677313,-4.18810154,-3.078643241,0.006963887662,5.197911813
19.06673912,-4.611448724,-3.32034901,0.09693272911,5.683271315
19.07670613,-4.938668852,-3.577991365,0.1948811927,6.101676075
19.08667213,-5.228206599,-3.816157521,0.3031500649,6.479899878
19.09663913,-5.460540451,-4.054198255,0.4161913615,6.813753793
19.10660513,-5.602174047,-4.324490477,0.5338776863,7.097224621
19.11657212,-5.691701351,-4.586574669,0.6581466602,7.339297547
19.12653813,-5.744379501,-4.872297985,0.7467245221,7.56933161
19.13650512,-5.677489108,-5.330228233,0.7866627592,7.82713574
19.14647213,-5.542542388,-5.871998491,0.7736246377,8.111635931
19.15643812,-5.43302053,-6.405017222,0.7648853892,8.433682905
19.16640513,-5.345684763,-6.89834973,0.733519755,8.757946438
19.17637112,-5.288711833,-7.241440955,0.7297559023,8.996748504
19.18633813,-5.285140938,-7.377312706,0.7719926798,9.10787737
19.19630413,-5.270366778,-7.448900167,0.8209256887,9.161702825
19.20627113,-5.272731392,-7.405476404,0.8828196359,9.133572555
19.21623713,-5.301492677,-7.246561362,0.9546035635,9.029382268
19.22620412,-5.231212653,-7.155771645,1.001815152,8.920442099
19.23617113,-4.999392772,-7.229853528,1.010195966,8.847892744
19.24613704,-4.768680353,-7.381899846,0.9925075543,8.844084401
19.25610404,-4.668188936,-7.459686525,0.953386758,8.8514325
19.26607004,-4.637189337,-7.366581895,0.8576345086,8.746747437
19.27603704,-4.510184305,-7.29034005,0.7081633043,8.601878619
19.28600304,-4.413112924,-7.165772722,0.6160696578,8.438211079
19.29597004,-4.588137045,-6.548302072,0.5318756727,8.013373403
19.30593604,-4.828509064,-5.597606202,0.4309421325,7.40495821
19.31590304,-4.726092158,-4.779015892,0.3777294733,6.731836267
19.32586904,-4.41820234,-4.071310424,0.3307856872,6.017100602
19.33583604,-4.082362247,-3.398575984,0.2070265174,5.31590634
19.34580304,-3.61784891,-2.955974211,-0.03552892484,4.672031312
19.35576904,-2.923736465,-2.896203973,-0.3539022157,4.130554339
19.36573604,-1.950021277,-3.31980668,-0.6403601611,3.903045031
19.37570204,-1.020277151,-4.107625726,-0.939192642,4.335393568
19.38566904,-0.4009014773,-4.926668612,-1.297878976,5.110506378
19.39563504,-0.08668731093,-5.516487195,-1.636736233,5.754828508
19.40560204,0.0419590348,-5.785365559,-1.799932607,6.059040568
19.41556804,0.04656079352,-5.76920561,-1.799478278,6.043510846
19.42553504,-0.05015039921,-5.506089091,-1.790408077,5.79008577
19.43550104,-0.1970809883,-4.99168848,-1.552652249,5.231302305
19.44546804,-0.2422314334,-4.181100377,-1.343892471,4.398445566
19.45543504,0.0074563694,-3.420947431,-1.066687671,3.583400552
19.46540104,0.4434259379,-2.733854569,-0.7427582826,2.867451348
19.47536804,0.9210142332,-2.094084392,-0.5784376357,2.3596709
19.48533404,1.383762295,-1.51309335,-0.4379249505,2.096670655
