"Time (s)","Linear Acceleration x (m/s^2)","Linear Acceleration y (m/s^2)","Linear Acceleration z (m/s^2)","Absolute acceleration (m/s^2)"
2.104125000E-2,-1.253640112E-1,-1.503976956E-1,-2.780041140E0,2.786927402E0
3.112425000E-2,2.425729108E-1,-1.244398588E-1,-8.916828454E-1,9.324297251E-1
4.120625000E-2,1.145957789E0,1.438596314E-1,1.660584102E0,2.022734389E0
5.128925000E-2,1.495736475E0,2.742727134E-1,2.514528433E0,2.938589179E0
6.137125000E-2,1.160802992E0,3.225783160E-1,1.686688412E0,2.072785120E0
7.145425000E-2,6.126762262E-1,2.334609023E-1,2.271912253E-1,6.938962486E-1
8.153625000E-2,2.322970140E-1,-1.647394538E-2,-6.679455703E-1,7.073786670E-1
9.161925000E-2,4.082789093E-2,-1.312328616E-1,-1.387305123E0,1.394096297E0
1.017022500E-1,-1.592784467E-1,-2.573932636E-1,-2.509764122E0,2.527951120E0
1.117842500E-1,-3.213667729E-1,-8.809648991E-2,-2.679215262E0,2.699857777E0
1.218672500E-1,-6.694623381E-2,2.600823981E-1,-2.613903033E0,2.627663166E0
1.319492500E-1,8.257759541E-2,5.085481328E-1,-2.064764698E0,2.128072725E0
1.420322500E-1,4.608483016E-2,4.872046262E-1,-1.073141828E0,1.179459852E0
1.521142500E-1,-3.120085967E-1,3.048516047E-1,3.020899647E-1,5.306055146E-1
1.621972500E-1,-7.980553280E-1,-1.821080232E-1,1.724046857E0,1.908505490E0
1.722792500E-1,-1.312388111E0,-7.673391733E-1,1.654210637E0,2.246683065E0
1.823622500E-1,-1.471939623E0,-1.027311351E0,1.011602806E0,2.060416245E0
1.924442500E-1,-1.071970630E0,-8.657817265E-1,3.827593213E-1,1.430106195E0
2.025272500E-1,-4.501870733E-1,-4.797099575E-1,-2.607624292E-1,7.076631182E-1
2.126092500E-1,6.849533665E-1,-1.587793869E-1,-1.049955279E0,1.263636853E0
2.226922500E-1,6.839513730E-1,5.357394397E-2,-1.108696407E0,1.303789619E0
2.327742500E-1,3.701129633E-1,7.380472541E-1,-9.241196895E-1,1.239231437E0
2.428572500E-1,8.619431756E-2,1.055300803E0,-6.155024779E-1,1.224717333E0
2.529392500E-1,-2.961458315E-1,9.142101207E-1,7.659747255E-1,1.228901859E0
2.630222500E-1,7.707726583E-4,2.198632023E-1,2.046710250E0,2.058485674E0
2.731052500E-1,-1.583491780E-2,-6.717719883E-1,2.275037005E0,2.372197657E0
2.831872500E-1,2.356093155E-1,-1.005196597E0,1.559291031E0,1.870112421E0
2.932702500E-1,5.446551280E-1,-7.426013580E-1,8.249678689E-1,1.236397173E0
3.033522500E-1,7.599873228E-1,-2.013477015E-1,3.659029680E-1,8.671831466E-1
3.134352500E-1,6.929042642E-1,2.726121041E-1,-2.888881212E-1,7.986801771E-1
3.235172500E-1,3.400612716E-1,6.793181124E-1,-9.743174511E-1,1.235479365E0
3.336002500E-1,-6.766011306E-1,9.268895155E-1,-6.771069878E-1,1.332436541E0
3.436822500E-1,-1.862112483E0,9.203565677E-1,1.594448585E0,2.618546429E0
3.537652500E-1,-1.948256003E0,6.589315027E-2,1.840008838E0,2.680611103E0
3.638472500E-1,-1.775942212E0,-9.767919928E-1,1.927880210E0,2.797287158E0
3.739302500E-1,-9.170001928E-1,-1.765178657E0,1.924744933E0,2.767921260E0
3.840122500E-1,-5.889855011E-1,-2.170784804E0,2.146461995E0,3.109101106E0
3.940952500E-1,-4.470969661E-1,-1.188172055E0,1.814387509E0,2.214418786E0
4.041772500E-1,-3.931359364E-1,2.623142803E-1,1.330763133E0,1.412195157E0
4.142602500E-1,-2.197412878E-2,1.062182976E0,6.798165876E-1,1.261295417E0
4.243432500E-1,5.267385283E-1,1.260604146E0,-9.063359678E-2,1.369229980E0
4.344252500E-1,1.024782577E0,1.262089047E0,-4.227998847E-1,1.679823751E0
4.445082500E-1,4.443246549E-1,9.653978160E-1,-5.700240040E-1,1.205962150E0
4.545902500E-1,-2.457611344E0,-3.658895195E-3,-3.929673904E-1,2.488833115E0
4.646732500E-1,-2.183511123E0,-1.343175602E-1,4.070667815E-1,2.225188845E0
4.747552500E-1,-5.463945284E-2,1.837233165E-1,3.554680270E-1,4.038529993E-1
4.848382500E-1,4.307674469E-1,3.110476068E-1,-2.062944460E-1,5.699724602E-1
4.949202500E-1,1.857012834E-1,3.643174955E-1,-3.661374414E-1,5.488796136E-1
5.050032500E-1,1.065934257E-1,9.352668214E-1,-8.229078948E-1,1.250305398E0
5.150852500E-1,4.818208024E-2,1.421437660E0,-1.050152915E0,1.767944478E0
5.251682500E-1,-1.476626605E-1,1.531589555E0,-1.106217188E0,1.895069205E0
5.352502500E-1,-3.538650128E-1,1.281545949E0,-1.288359709E0,1.851337681E0
5.453332500E-1,-4.873943684E-1,9.148267096E-1,-1.133103270E0,1.535703161E0
5.554152500E-1,-7.840744892E-1,6.229152855E-1,-9.058974266E-1,1.350350475E0
5.654982500E-1,-7.624045618E-1,5.041162357E-1,-5.887117052E-1,1.087186905E0
5.755802500E-1,-5.276774450E-1,5.365051326E-1,-2.266725773E-1,7.859145631E-1
5.856632500E-1,-3.589716786E-1,5.708227336E-1,-7.213183701E-2,6.781609405E-1
5.957462500E-1,-3.397777547E-1,6.994341423E-1,-5.117635167E-1,9.308914754E-1
6.058282500E-1,-6.455647677E-1,9.122328848E-1,-1.011381197E0,1.507254003E0
6.159112500E-1,-1.084413067E0,1.088955184E0,-1.349670104E0,2.045332365E0
6.259932500E-1,-1.181716144E0,1.032956838E0,-1.509173377E0,2.177396876E0
6.360762500E-1,-1.213012635E0,9.151963998E-1,-1.482241686E0,2.122739861E0
6.461582500E-1,-1.292042871E0,8.421189219E-1,-1.391951905E0,2.077515142E0
6.562412500E-1,-1.283914071E0,5.148553781E-1,-1.360163518E0,1.939988711E0
6.663232500E-1,-1.203832360E0,-3.286339849E-2,-1.519796598E0,1.939091038E0
6.764062500E-1,-1.057413402E0,-1.812712866E-1,-1.442334439E0,1.797584773E0
6.864882500E-1,-7.711714384E-1,7.824305445E-2,-1.304674026E0,1.517564390E0
6.965712500E-1,-6.524805620E-1,5.704319935E-1,-9.396697748E-1,1.278320315E0
7.066532500E-1,-8.192528003E-1,8.514738822E-1,-8.110076416E-1,1.433149091E0
7.167362500E-1,-9.995531568E-1,9.306827505E-1,-5.794871378E-1,1.483604475E0
7.268182500E-1,-7.052434972E-1,8.517222427E-1,-1.242576596E0,1.663368800E0
7.369012500E-1,-5.156016290E-1,2.373770750E-1,-2.717349048E0,2.776000498E0
7.469832500E-1,-7.632139626E-1,-3.122237742E-1,-4.475300986E0,4.550637115E0
7.570662500E-1,-1.025968246E0,1.422181864E0,-2.038045846E0,2.688650771E0
7.671492500E-1,-3.264827943E-1,2.271208102E0,2.887553895E-1,2.312651494E0
7.772312500E-1,5.579892647E-1,2.081685956E0,1.072401570E0,2.407241900E0
7.873142500E-1,8.887121674E-1,1.493830283E0,9.539159310E-1,1.982749060E0
7.973962500E-1,6.941662395E-1,9.141286983E-1,1.956554371E-1,1.164379275E0
8.074792500E-1,1.461596337E-1,7.878645082E-1,-6.179986542E-1,1.011936489E0
8.175612500E-1,-3.393925694E-1,1.012181096E0,-1.011953055E0,1.470968005E0
8.276442500E-1,-5.959259999E-1,1.087847575E0,-1.072022671E0,1.639442817E0
8.377262500E-1,-5.248381832E-1,1.089230295E0,-1.112236896E0,1.642847731E0
8.478092500E-1,-2.059061909E-1,1.297340886E0,-9.276689494E-1,1.608123259E0
8.578912500E-1,4.916143039E-1,1.417309379E0,1.244527227E-1,1.505303618E0
8.679742500E-1,1.635543694E0,1.021847274E0,2.645854558E0,3.274098558E0
8.780562500E-1,2.613187918E-1,8.310785016E-1,-5.458241326E-1,1.028057863E0
8.881392500E-1,-2.139566374E-1,5.631427082E-1,-1.232973129E0,1.372271798E0
8.982212500E-1,-3.967891306E-1,4.394822833E-1,3.694855571E-3,5.921148059E-1
9.083042500E-1,-1.595599902E-1,-2.983892620E-2,2.191284996E-1,2.727032294E-1
9.183862500E-1,-4.293581218E-2,-7.277986930E-1,5.600574249E-1,9.193469099E-1
9.284692500E-1,-3.072325909E-1,-1.090808313E0,8.331931472E-1,1.406579347E0
9.385516250E-1,-2.519126683E-1,-7.201612061E-1,6.737594569E-1,1.017862447E0
9.486346250E-1,-6.051809728E-2,-6.942252964E-2,2.533288640E-1,2.695504425E-1
9.587166250E-1,7.827755302E-2,2.696906890E-1,-3.793808001E-1,4.720066043E-1
9.687996250E-1,1.480196330E-1,1.065937181E-1,-1.149618146E0,1.163999104E0
9.788816250E-1,2.818621069E-1,-1.902942713E-1,-1.938460162E0,1.968066553E0
9.889646250E-1,4.051696524E-1,-5.840557136E-1,-2.720981923E0,2.812299086E0
9.990476250E-1,4.972787941E-1,-1.031576603E0,-3.237382282E0,3.433959890E0
1.009129625E0,7.327309656E-1,-1.164252411E0,-3.108497955E0,3.399284907E0
1.019212625E0,9.519500971E-1,-1.017793254E0,-2.620162477E0,2.967720253E0
1.029294625E0,8.451220518E-1,-1.113187507E0,-2.226107504E0,2.628492406E0
1.039377625E0,7.043450725E-1,-1.426692260E0,-1.777320254E0,2.385460139E0
1.049459625E0,5.915826881E-1,-1.837436356E0,-1.279157946E0,2.315682942E0
1.059542625E0,5.080172056E-1,-1.961945212E0,-9.410204816E-1,2.234464151E0
1.069624625E0,2.257662588E-1,-1.542160151E0,-6.720514852E-1,1.697315980E0
1.079707625E0,1.034425074E-1,-1.254140926E0,-1.019821653E0,1.619754926E0
1.089789625E0,1.995987993E-1,-1.326653417E0,-1.192949522E0,1.795265310E0
1.099872625E0,5.298308283E-1,-1.522531048E0,-7.682539701E-1,1.785787127E0
1.109954625E0,8.858286130E-1,-1.544380924E0,2.103307790E-1,1.792775448E0
1.120037625E0,8.264413673E-1,-1.487332564E0,9.298230636E-1,1.939003461E0
1.130119625E0,7.196571761E-1,-1.348157137E0,1.263850520E0,1.983116803E0
1.140202625E0,7.063500828E-1,-1.102862055E0,1.495516620E0,1.987914765E0
1.150284625E0,3.488472247E-1,-1.090813867E0,1.342410201E0,1.764549356E0
1.160367625E0,8.507347941E-2,-1.207346244E0,8.773700309E-1,1.494891508E0
1.170449625E0,-4.302030444E-2,-1.470350788E0,2.099881321E-1,1.485892729E0
1.180532625E0,3.259822726E-3,-1.697545522E0,-3.686032122E-1,1.737106719E0
1.190614625E0,1.937586004E-1,-1.746952740E0,-6.493812454E-1,1.873788214E0
1.200697625E0,3.834615719E-1,-1.580776625E0,-8.925347847E-1,1.855401805E0
1.210779625E0,7.784281254E-1,-1.345030339E0,-9.910211921E-1,1.843144043E0
1.220862625E0,1.683002912E0,-1.200416124E0,-6.638092500E-1,2.171207128E0
1.230944625E0,2.565222623E0,-1.284435935E0,1.151860553E-1,2.871134028E0
1.241027625E0,3.049203680E0,-1.320868767E0,1.148869117E0,3.515997387E0
1.251109625E0,3.328876004E0,-1.134524143E0,2.187661477E0,4.141789857E0
1.261192625E0,3.334108678E0,-9.346160263E-1,2.904689160E0,4.519624642E0
1.271274625E0,3.106880615E0,-7.500746112E-1,3.371114244E0,4.645398833E0
1.281357625E0,2.729424718E0,-2.701486722E-1,3.595426008E0,4.522148579E0
1.291439625E0,2.236667576E0,4.238039978E-1,3.553283370E0,4.219966159E0
1.301522625E0,1.785513958E0,9.798503789E-1,3.370855504E0,3.938379577E0
1.311604625E0,1.603711159E0,1.345178273E0,3.135217976E0,3.769746122E0
1.321687625E0,1.733207690E0,1.729079410E0,2.966391318E0,3.846193177E0
1.331769625E0,1.595357827E0,2.074226078E0,2.795397098E0,3.829076306E0
1.341852625E0,1.281933035E0,2.291995246E0,2.612799371E0,3.704499300E0
1.351935625E0,1.142039570E0,2.400447648E0,2.616496565E0,3.729940692E0
1.362017625E0,7.564852792E-1,2.218868067E0,2.667011538E0,3.550858490E0
1.372100625E0,1.807023525E-1,1.979985334E0,2.533716071E0,3.220669556E0
1.382182625E0,-2.281951922E-1,1.859242669E0,2.180423208E0,2.874561135E0
1.392265625E0,-4.094261330E-1,1.874727704E0,1.725941355E0,2.580912103E0
1.402347625E0,-5.087124395E-1,2.013452750E0,1.326936715E0,2.464455592E0
1.412430625E0,-5.565906107E-1,2.146068478E0,1.063309734E0,2.458867750E0
1.422512625E0,-4.765755576E-1,2.293663603E0,8.080770171E-1,2.478105214E0
1.432595625E0,-2.523319137E-1,2.521038723E0,6.928614333E-1,2.626664159E0
1.442677625E0,2.353387356E-2,2.756574802E0,8.191341019E-1,2.875802351E0
1.452760625E0,1.698154217E-1,3.005812662E0,1.074122698E0,3.196480346E0
1.462842625E0,2.077316916E-1,3.203668406E0,1.351976539E0,3.483458665E0
1.472925625E0,2.449082887E-1,3.182339810E0,1.441938583E0,3.502349727E0
1.483007625E0,3.019350135E-1,3.037533514E0,1.321296490E0,3.326198884E0
1.493090625E0,3.680483115E-1,2.899525484E0,1.236819135E0,3.173709055E0
1.503172625E0,3.410201418E-1,2.952540726E0,1.323504399E0,3.253529679E0
1.513255625E0,1.079103649E-1,3.238902266E0,1.464409432E0,3.556209713E0
1.523337625E0,-7.052443743E-2,3.513410622E0,1.515364993E0,3.826925523E0
1.533420625E0,-2.124901557E-1,3.603967035E0,1.439041287E0,3.886459865E0
1.543502625E0,-2.816019058E-1,3.475316012E0,1.262664120E0,3.708293637E0
1.553585625E0,-1.395262599E-1,3.309958800E0,1.173044431E0,3.514445628E0
1.563667625E0,2.048139310E-1,3.257863324E0,1.289504594E0,3.509764135E0
1.573750625E0,4.832150710E-1,3.204993677E0,1.285793366E0,3.486939325E0
1.583832625E0,6.210064620E-1,2.888328651E0,9.624537429E-1,3.107154426E0
1.593915625E0,6.352227974E-1,2.559293254E0,5.274703074E-1,2.689184800E0
1.603997625E0,5.716571313E-1,2.370320454E0,2.695037243E-1,2.453129264E0
1.614080625E0,5.510579753E-1,2.181306723E0,1.608972484E-1,2.255582372E0
1.624162625E0,6.960262388E-1,1.997286368E0,1.274023506E-1,2.118923481E0
1.634245625E0,8.209882540E-1,1.842739342E0,2.294704700E-1,2.030361222E0
1.644327625E0,8.767899871E-1,1.713219568E0,5.627377886E-1,2.005132362E0
1.654410625E0,9.453363115E-1,1.679627899E0,8.962281784E-1,2.125567117E0
1.664492625E0,1.090758904E0,1.683091351E0,1.089151504E0,2.282280106E0
1.674575625E0,1.135474901E0,1.674315119E0,1.184090990E0,2.344078890E0
1.684657625E0,1.196242674E0,1.618537359E0,1.370150854E0,2.434742919E0
1.694740625E0,1.319621848E0,1.366430271E0,1.730353957E0,2.569563839E0
1.704822625E0,1.364872280E0,8.675478780E-1,1.832099310E0,2.443788768E0
1.714905625E0,1.251023483E0,2.882624692E-1,1.850732047E0,2.252412954E0
1.724987625E0,9.334711415E-1,-3.454052612E-1,2.083814342E0,2.309319246E0
1.735070625E0,4.452976316E-1,-8.875307375E-1,2.437258648E0,2.631773263E0
1.745152625E0,-8.328890920E-2,-1.141141437E0,2.981882055E0,3.193863086E0
1.755235625E0,-6.003500032E-1,-1.148827602E0,3.432771086E0,3.669351757E0
1.765317625E0,-9.751927793E-1,-1.027980565E0,3.831630716E0,4.085234258E0
1.775400625E0,-9.103050578E-1,-8.746300256E-1,4.135409356E0,4.323799663E0
1.785482625E0,-5.040083545E-1,-8.882818124E-1,4.184031293E0,4.306876695E0
1.795565625E0,-1.146896267E-1,-1.125072412E0,3.888780817E0,4.049883688E0
1.805647625E0,-1.376130509E-1,-1.510406554E0,3.262318903E0,3.597636715E0
1.815730625E0,-4.347662115E-1,-1.701636526E0,2.413939367E0,2.985245684E0
1.825812625E0,-8.787774557E-1,-1.725354587E0,1.528680273E0,2.466974188E0
1.835895625E0,-1.199027703E0,-1.839525273E0,1.041994295E0,2.430488176E0
1.845977625E0,-1.265752035E0,-2.203832829E0,1.025173609E0,2.740435783E0
1.856060625E0,-9.361971134E-1,-2.556392451E0,1.326340883E0,3.028330817E0
1.866142625E0,-2.506666267E-1,-2.410454134E0,1.725547838E0,2.975002224E0
1.876225625E0,3.799082190E-1,-2.028162590E0,1.874757087E0,2.787918198E0
1.886307625E0,5.883070779E-1,-1.661703113E0,1.588800759E0,2.373109839E0
1.896390625E0,3.712438148E-1,-1.240033349E0,9.389944214E-1,1.599129513E0
1.906472625E0,1.459155124E-1,-1.077871348E0,5.703824383E-1,1.228183254E0
1.916555625E0,9.791221082E-2,-1.098328709E0,7.455170721E-1,1.331055393E0
1.926637625E0,2.516425270E-1,-1.050616014E0,1.143055816E0,1.572798324E0
1.936720292E0,4.759183306E-1,-6.276684871E-1,1.428841404E0,1.631580138E0
1.946802292E0,6.378347486E-1,-2.180150801E-2,1.465551394E0,1.598483456E0
1.956885292E0,5.630611396E-1,1.286590634E-1,1.352536994E0,1.470696203E0
1.966967292E0,5.756835240E-1,-1.259225665E-1,1.273332950E0,1.403084037E0
1.977050292E0,4.545631295E-1,-4.060824028E-1,1.347530608E0,1.478975759E0
1.987132292E0,2.487323678E-1,-5.992790126E-1,1.360110308E0,1.506951617E0
1.997215292E0,-2.004893303E-2,-6.996009341E-1,1.155389348E0,1.350839728E0
2.007297292E0,-3.272236365E-1,-7.287452111E-1,5.733522391E-1,9.832993853E-1
2.017380292E0,-6.712545097E-1,-8.133036239E-1,-2.247658002E-1,1.078223106E0
2.027462292E0,-9.562238270E-1,-9.434059994E-1,-8.356840611E-1,1.582007186E0
2.037545292E0,-1.153439301E0,-1.094569388E0,-1.053073014E0,1.907214497E0
2.047627292E0,-1.222969712E0,-1.248085257E0,-1.048299932E0,2.037720411E0
2.057710292E0,-1.212756380E0,-1.471152149E0,-1.124713100E0,2.213604807E0
2.067792292E0,-1.179841234E0,-1.703215128E0,-1.287040578E0,2.439147507E0
2.077875292E0,-1.132704490E0,-1.933405829E0,-1.248069470E0,2.564908373E0
2.087957292E0,-1.324400192E0,-2.194357123E0,-1.212373388E0,2.835328603E0
2.098040292E0,-1.451823301E0,-2.290885444E0,-1.301676158E0,3.008372955E0
2.108122292E0,-1.509777394E0,-2.334947869E0,-1.432468432E0,3.127838733E0
2.118205292E0,-1.553802250E0,-2.329766213E0,-1.587151845E0,3.218876048E0
2.128287292E0,-1.648704899E0,-2.325290754E0,-1.877347403E0,3.413156634E0
2.138370292E0,-1.722518980E0,-2.299241993E0,-2.310424939E0,3.686685337E0
2.148452292E0,-1.809688686E0,-2.170262063E0,-2.600811117E0,3.840472501E0
2.158535292E0,-1.927732860E0,-2.025860395E0,-2.688985375E0,3.879549802E0
2.168617292E0,-1.648248231E0,-2.046489079E0,-2.211644416E0,3.434561225E0
2.178700292E0,-1.330357921E0,-2.004652398E0,-1.601540673E0,2.890227666E0
2.188782292E0,-1.135704111E0,-1.808459894E0,-1.364721422E0,2.534327441E0
2.198865292E0,-9.361152524E-1,-1.709415370E0,-1.029281278E0,2.204049142E0
2.208947292E0,-8.445496094E-1,-1.757323800E0,-5.678125870E-1,2.030729454E0
2.219030292E0,-8.100504524E-1,-1.645475043E0,-2.272105211E-1,1.848078590E0
2.229112292E0,-7.169282806E-1,-1.433728069E0,-1.112812847E-1,1.606843446E0
2.239195292E0,-7.157950902E-1,-1.284011427E0,-2.547906679E-1,1.491967239E0
2.249277292E0,-6.958402973E-1,-1.157667277E0,-6.436147213E-1,1.496204248E0
2.259359292E0,-4.684578681E-1,-8.511807905E-1,-1.118341974E0,1.481435211E0
2.269442292E0,-1.672496635E-1,-5.192783582E-1,-1.309509088E0,1.418603721E0
2.279524292E0,9.964883387E-2,-2.970375319E-1,-1.173015195E0,1.214135838E0
2.289607292E0,3.510416847E-1,-1.523870645E-1,-9.031047964E-1,9.808416565E-1
2.299689292E0,7.771943629E-1,-4.847049415E-2,-4.565739870E-1,9.026850348E-1
2.309772292E0,1.289892265E0,9.795445696E-2,9.536925673E-2,1.297116967E0
2.319854292E0,1.730008094E0,4.398455416E-1,4.896774137E-1,1.850993267E0
2.329937292E0,2.056458728E0,9.418108790E-1,6.942071700E-1,2.365999541E0
2.340019292E0,2.160561386E0,1.320940834E0,5.767488867E-1,2.597219565E0
2.350102292E0,2.065131903E0,1.547128969E0,2.684924483E-1,2.594314171E0
2.360184292E0,1.972474000E0,1.568806205E0,7.383863926E-2,2.521360493E0
2.370267292E0,2.017813895E0,1.502643645E0,-8.388415575E-2,2.517249966E0
2.380349292E0,2.011818745E0,1.397258254E0,-3.107988077E-1,2.469076991E0
2.390432292E0,1.882183635E0,1.190904897E0,-6.616194677E-1,2.323490915E0
2.400514292E0,1.760702468E0,7.774161185E-1,-8.994192964E-1,2.124477364E0
2.410597292E0,1.457116785E0,2.242993386E-1,-1.002695743E0,1.782946514E0
2.420679292E0,1.008983254E0,-1.710358818E-1,-1.067082358E0,1.478501011E0
2.430762292E0,5.722447765E-1,-3.806666028E-1,-1.147947596E0,1.337966678E0
2.440844292E0,3.188042307E-1,-4.545036341E-1,-1.209797105E0,1.331096813E0
2.450927292E0,2.544994766E-1,-3.476941538E-1,-1.163756129E0,1.240963148E0
2.461009292E0,2.142033899E-1,-1.321906355E-1,-1.166103786E0,1.192960810E0
2.471092292E0,1.452202785E-1,1.494476692E-1,-1.160661782E0,1.179219788E0
2.481174292E0,1.361044693E-1,4.120611808E-1,-1.225218551E0,1.299799731E0
2.491257292E0,8.551786780E-2,5.331327510E-1,-1.240114333E0,1.352563268E0
2.501339292E0,5.898788095E-2,5.244247851E-1,-1.284559604E0,1.388738385E0
2.511422292E0,6.941697478E-2,4.817915663E-1,-1.310693150E0,1.398162495E0
2.521504292E0,1.584326470E-1,2.803573260E-1,-1.142975124E0,1.187473481E0
2.531587292E0,1.896614563E-1,-1.520355007E-1,-6.065620852E-1,6.534552966E-1
2.541669292E0,-2.116165817E-2,-4.919477414E-1,-1.956343871E-1,5.298426270E-1
2.551752292E0,-3.066344208E-1,-5.241175139E-1,-3.282018757E-1,6.902465556E-1
2.561834292E0,-5.546294546E-1,-3.866105899E-1,-5.592335522E-1,8.773960030E-1
2.571917292E0,-7.187894493E-1,-3.044072163E-1,-6.761053598E-1,1.032686053E0
2.581999292E0,-8.598985505E-1,-2.997519556E-1,-5.302255154E-1,1.053762710E0
2.592082292E0,-8.495875704E-1,-1.569442382E-1,-5.471730852E-1,1.022657772E0
2.602164292E0,-8.017310339E-1,6.667477682E-2,-6.611107600E-1,1.041290360E0
2.612247292E0,-7.163464826E-1,1.282088278E-1,-8.088810092E-1,1.088061705E0
2.622329292E0,-4.680930018E-1,5.135682598E-2,-7.692573524E-1,9.019453731E-1
2.632412292E0,-2.513794023E-1,-1.289407530E-1,-5.488506514E-1,6.172960062E-1
2.642494292E0,-8.340059102E-2,-2.577117907E-1,-2.897043926E-1,3.966102125E-1
2.652576292E0,4.632281184E-2,-3.377100331E-1,-1.970985299E-1,3.937533490E-1
2.662659292E0,1.453360534E-1,-5.844125399E-1,-3.531957990E-1,6.981460145E-1
2.672741292E0,2.916620404E-1,-1.163804514E0,-4.899902397E-1,1.295993105E0
2.682824292E0,3.481174922E-1,-1.830601984E0,-5.558363199E-1,1.944541958E0
2.692906292E0,4.496029365E-1,-2.350107068E0,-4.696659029E-1,2.438387191E0
2.702989292E0,6.173174536E-1,-2.613603070E0,-1.595108736E-1,2.690250094E0
2.713071292E0,6.792271882E-1,-2.589386827E0,2.788051826E-1,2.691469123E0
2.723154292E0,5.745509183E-1,-2.283747310E0,5.118716902E-1,2.409901068E0
2.733236292E0,5.395617646E-1,-1.736217106E0,6.947509611E-1,1.946344172E0
2.743319292E0,5.659227669E-1,-9.865179589E-1,9.310135567E-1,1.469786551E0
2.753401292E0,5.045936608E-1,-2.368223204E-1,1.132114506E0,1.261896520E0
2.763484292E0,6.041536170E-1,2.291101353E-1,1.215209287E0,1.376309071E0
2.773566292E0,7.903412426E-1,3.156902960E-1,1.265116442E0,1.524735799E0
2.783649292E0,9.090964383E-1,1.485173407E-1,1.419354297E0,1.692063933E0
2.793731292E0,1.010637431E0,-1.314122249E-1,1.674032114E0,1.959857318E0
2.803814292E0,1.155333799E0,-3.056278226E-1,1.890100181E0,2.236220751E0
2.813896292E0,1.155018634E0,-3.683430111E-1,1.852817749E0,2.214199230E0
2.823979292E0,1.163022888E0,-4.880197281E-1,1.752679503E0,2.159321869E0
2.834061292E0,1.179974551E0,-5.737893185E-1,1.614273570E0,2.080253177E0
2.844144292E0,1.194565108E0,-5.722716737E-1,1.309251811E0,1.862423413E0
2.854226292E0,1.316407049E0,-5.024258056E-1,8.302508283E-1,1.635443562E0
2.864309292E0,1.377090037E0,-2.142867127E-1,1.477626479E-1,1.401474069E0
2.874391292E0,1.278317701E0,1.685187651E-1,-6.915040022E-1,1.463103723E0
2.884474292E0,1.198041862E0,4.397483316E-1,-1.431462711E0,1.917750868E0
2.894556292E0,1.319769782E0,5.492716509E-1,-1.646640247E0,2.180576926E0
2.904639292E0,1.601241880E0,4.557190875E-1,-1.264018335E0,2.090310455E0
2.914721292E0,1.679603925E0,1.460225165E-1,-7.114570409E-1,1.829907933E0
2.924803292E0,1.381119938E0,-1.900015085E-1,-3.106643218E-1,1.428322505E0
2.934886292E0,1.017783898E0,-3.889077051E-1,-2.165223956E-3,1.089558605E0
2.944968542E0,8.817642134E-1,-4.676550819E-1,-3.676144481E-2,9.987796592E-1
2.955051542E0,8.323394537E-1,-4.674892768E-1,-1.338199621E-1,9.639724957E-1
2.965133542E0,7.862096000E-1,-3.719963515E-1,-3.032067829E-1,9.211086656E-1
2.975216542E0,7.209622747E-1,-1.430132470E-1,-5.078926599E-1,8.934172286E-1
2.985298542E0,6.759550864E-1,9.650098532E-2,-8.380001432E-1,1.080958815E0
2.995381542E0,7.025961703E-1,3.126409365E-1,-1.236585538E0,1.456203807E0
3.005463542E0,8.262659508E-1,4.943873094E-1,-1.641108196E0,1.902727081E0
3.015546542E0,9.987675834E-1,4.451102284E-1,-1.785554304E0,2.093767889E0
3.025628542E0,1.036044753E0,1.383913153E-1,-1.750141811E0,2.038513489E0
3.035711542E0,9.757628828E-1,-3.091428763E-1,-1.527597368E0,1.838813814E0
3.045793542E0,8.634349465E-1,-6.799861568E-1,-1.460794684E0,1.828065149E0
3.055876542E0,6.750610471E-1,-8.571776218E-1,-1.699287992E0,2.019415899E0
3.065958542E0,5.649778569E-1,-7.367617437E-1,-1.928582461E0,2.140431768E0
3.076041542E0,4.642367631E-1,-4.556925192E-1,-2.008172421E0,2.110906895E0
3.086123542E0,4.299831891E-1,-2.529996657E-1,-2.202329802E0,2.258129963E0
3.096206542E0,4.186553782E-1,-3.293113118E-1,-2.450980893E0,2.508191700E0
3.106288542E0,4.303240818E-1,-5.053000776E-1,-2.418086212E0,2.507518278E0
3.116371542E0,6.287148464E-1,-6.041436768E-1,-2.087999779E0,2.262745018E0
3.126453542E0,7.710816836E-1,-6.006479920E-1,-1.547541929E0,1.830363623E0
3.136535542E0,6.224530631E-1,-5.737802553E-1,-1.259511302E0,1.517577120E0
3.146618542E0,4.556384325E-1,-7.070502868E-1,-1.156529555E0,1.430065418E0
3.156700542E0,6.573925155E-1,-7.660548323E-1,-1.324204311E0,1.665089181E0
3.166783542E0,8.118180656E-1,-7.877594045E-1,-1.562616343E0,1.929088719E0
3.176865542E0,9.227812618E-1,-7.963995427E-1,-1.620521904E0,2.027774329E0
3.186948542E0,1.035448337E0,-5.960879678E-1,-1.264179718E0,1.739432230E0
3.197030542E0,1.045730081E0,-3.102004914E-1,-7.110632309E-1,1.302070146E0
3.207113542E0,1.077252420E0,-7.762573466E-2,-2.907498747E-1,1.118496321E0
3.217195542E0,1.260541581E0,-2.111955822E-2,-1.361962706E-1,1.268053838E0
3.227278542E0,1.508695074E0,-1.180608389E-1,-1.573088121E-1,1.521461551E0
3.237360542E0,1.570139955E0,-2.303153926E-1,-9.858464062E-2,1.590001129E0
3.247443542E0,1.531184635E0,-3.511837721E-1,-6.968536198E-2,1.572486082E0
3.257525542E0,1.502920364E0,-5.178463751E-1,-4.409326851E-2,1.590244857E0
3.267608542E0,1.638627807E0,-6.320824040E-1,1.516682956E-1,1.762847846E0
3.277690542E0,1.851408570E0,-7.384439877E-1,3.594798017E-1,2.025398465E0
3.287773542E0,2.044646183E0,-7.937595248E-1,5.173031688E-1,2.253493902E0
3.297855542E0,2.065479228E0,-8.012202796E-1,6.082414055E-1,2.297415066E0
3.307938542E0,1.898693833E0,-8.385252231E-1,6.429054540E-1,2.172899042E0
3.318020542E0,1.576918048E0,-1.031412588E0,6.081665611E-1,1.979987127E0
3.328103542E0,1.247663673E0,-1.357228800E0,4.826829743E-1,1.905706565E0
3.338185542E0,9.184864819E-1,-1.536909352E0,2.726106423E-1,1.811083746E0
3.348267542E0,6.556944841E-1,-1.454993076E0,-8.113888800E-3,1.595934192E0
3.358350542E0,5.068489319E-1,-1.280013978E0,-4.671887299E-1,1.453821493E0
3.368432542E0,5.295150787E-1,-1.345431750E0,-8.976823810E-1,1.701883213E0
3.378515542E0,5.419515216E-1,-1.584985743E0,-8.034737965E-1,1.857810916E0
3.388597542E0,4.188068211E-1,-1.745845570E0,-4.526896816E-1,1.851567945E0
3.398680542E0,2.598426622E-1,-1.609229469E0,-7.520542592E-2,1.631806836E0
3.408762542E0,2.048303032E-1,-1.331144371E0,2.639035535E-1,1.372423359E0
3.418845542E0,9.104231715E-2,-1.152559880E0,2.673136497E-1,1.186650567E0
3.428927542E0,-6.131565750E-2,-1.062825585E0,-2.112388515E-1,1.085347726E0
3.439010542E0,-2.605016434E-1,-8.450925234E-1,-6.679005468E-1,1.108211902E0
3.449092542E0,-4.173853630E-1,-5.994118175E-1,-1.046216861E0,1.275960340E0
3.459175542E0,-5.926322633E-1,-5.782773489E-1,-1.438194610E0,1.659524459E0
3.469257542E0,-6.685747308E-1,-7.575854328E-1,-1.656813233E0,1.940607623E0
3.479340542E0,-6.313642198E-1,-1.045534784E0,-1.503418839E0,1.937016254E0
3.489422542E0,-3.721869707E-1,-1.140524556E0,-9.646981966E-1,1.539468095E0
3.499504542E0,-1.949754059E-2,-1.089535666E0,-2.982565302E-1,1.129789839E0
3.509587542E0,5.151572406E-2,-1.178992803E0,-1.317067784E-1,1.187444557E0
3.519669542E0,1.938059628E-2,-1.394980178E0,-1.462929502E-1,1.402764033E0
3.529752542E0,-5.554679453E-2,-1.663817028E0,-5.565935344E-2,1.665674191E0
3.539834542E0,-3.720413750E-1,-1.716624402E0,1.460631546E-1,1.762540373E0
3.549917542E0,-7.222638649E-1,-1.558899268E0,2.179932627E-1,1.731864048E0
3.559999542E0,-8.071239209E-1,-1.275627397E0,2.101521465E-1,1.524086023E0
3.570082542E0,-5.549750251E-1,-8.910045683E-1,3.618023157E-2,1.050331104E0
3.580164542E0,-1.831219304E-1,-6.128522274E-1,-1.563396361E-1,6.584554471E-1
3.590247542E0,3.633617681E-1,-3.114680216E-1,-3.582647502E-2,4.799246184E-1
3.600329542E0,9.650186241E-1,8.272757649E-2,3.706295648E-1,1.037049213E0
3.610412542E0,1.308848353E0,5.182542184E-1,6.790380308E-1,1.562934449E0
3.620494542E0,1.339752642E0,9.279709581E-1,6.080078092E-1,1.739465647E0
3.630577542E0,1.076630861E0,1.263618093E0,1.329443416E-1,1.665394516E0
3.640659542E0,5.979415351E-1,1.442808064E0,-4.240851027E-1,1.618356377E0
3.650742542E0,2.790700614E-2,1.414042102E0,-8.343871486E-1,1.642101026E0
3.660824542E0,-4.787267482E-1,1.186205928E0,-9.094385004E-1,1.569503804E0
3.670906542E0,-8.729004192E-1,9.524465257E-1,-9.113616496E-1,1.581040664E0
3.680989542E0,-1.045804925E0,7.826451373E-1,-9.855540454E-1,1.636324579E0
3.691071542E0,-1.220365947E0,5.402160680E-1,-1.029752271E0,1.685679740E0
3.701154542E0,-1.388275761E0,2.114189458E-1,-8.919179034E-1,1.663588022E0
3.711236542E0,-1.437332146E0,-9.036813319E-2,-5.158697239E-1,1.529775039E0
3.721319542E0,-1.514653387E0,-2.767972487E-1,-2.563094822E-1,1.560924774E0
3.731401542E0,-1.532848753E0,-3.698024762E-1,-3.073922199E-1,1.606508371E0
3.741484542E0,-1.627906353E0,-3.986041063E-1,-4.385458517E-1,1.732422232E0
3.751566542E0,-1.755094403E0,-4.941479024E-1,-6.145830032E-1,1.924123380E0
3.761649542E0,-1.914007106E0,-7.286496091E-1,-7.198641676E-1,2.170842665E0
3.771731542E0,-2.054821508E0,-9.010141245E-1,-7.541639346E-1,2.367040583E0
3.781814542E0,-1.997606503E0,-8.278096157E-1,-6.899439651E-1,2.269740773E0
3.791896542E0,-1.734681773E0,-6.335949326E-1,-5.577612233E-1,1.929160692E0
3.801978542E0,-1.472590272E0,-3.806633869E-1,-6.232421449E-1,1.643732793E0
3.812061542E0,-1.303589952E0,-2.067712864E-1,-1.023215377E0,1.670051147E0
3.822143542E0,-1.095984560E0,-6.990550965E-2,-1.535101393E0,1.887486483E0
3.832226542E0,-9.028024954E-1,9.726550877E-2,-1.739602205E0,1.962327383E0
3.842308542E0,-1.093957915E0,1.761508799E-1,-1.669933215E0,2.004108280E0
3.852391542E0,-1.562387132E0,1.602230644E-1,-1.340306958E0,2.064739141E0
3.862473542E0,-1.849754393E0,-1.009141713E-2,-7.985808465E-1,2.014801359E0
3.872556542E0,-1.942291843E0,-2.361459437E-1,-1.748905125E-1,1.964395378E0
3.882638542E0,-1.990923135E0,-4.264584875E-1,3.128991276E-2,2.036325325E0
3.892721542E0,-1.986569299E0,-6.155913556E-1,1.626087284E-1,2.086109272E0
3.902803542E0,-1.795920247E0,-6.067073885E-1,3.527949724E-1,1.928182482E0
3.912886542E0,-1.259505454E0,-1.858628127E-1,3.837387300E-1,1.329719665E0
3.922968542E0,1.444145322E-2,8.473957416E-1,1.085892266E-1,8.544470251E-1
3.933050542E0,1.619705048E0,1.900204754E0,-4.217681435E-1,2.532214627E0
3.943134000E0,2.526839161E0,2.142898410E0,-1.287873806E0,3.554651696E0
3.953216000E0,2.491639507E0,1.797904792E0,-2.147340978E0,3.748573376E0
3.963299000E0,1.748471847E0,1.320335793E0,-2.487761634E0,3.315026146E0
3.973381000E0,6.945199960E-1,7.289200428E-1,-2.303100863E0,2.513554463E0
3.983464000E0,-2.764364755E-1,1.980364233E-1,-1.982725924E0,2.011675331E0
3.993546000E0,-1.022193283E0,-1.060676149E-1,-1.464103184E0,1.788778237E0
4.003629000E0,-1.750113745E0,-3.079927289E-1,-1.067398254E0,2.072943963E0
4.013711000E0,-2.398291048E0,-4.190942118E-1,-8.392931087E-1,2.575238403E0
4.023794000E0,-2.865893469E0,-5.045901525E-1,-7.642936510E-1,3.008671032E0
4.033876000E0,-2.920030500E0,-6.011016628E-1,-7.579988310E-1,3.076111759E0
4.043959000E0,-3.017805301E0,-7.542826331E-1,-1.020736742E0,3.273834849E0
4.054041000E0,-3.130853614E0,-8.297079143E-1,-1.727418508E0,3.670781154E0
4.064123000E0,-3.282491212E0,-7.968819380E-1,-2.637399484E0,4.285515770E0
4.074206000E0,-3.432447735E0,-6.397435722E-1,-3.243330070E0,4.765517730E0
4.084288000E0,-3.395096306E0,-4.773099679E-1,-3.167903327E0,4.667988348E0
4.094371000E0,-3.233321975E0,-5.644521922E-1,-2.648643680E0,4.217616699E0
4.104453000E0,-3.004090072E0,-9.436745328E-1,-1.990592183E0,3.725256504E0
4.114536000E0,-2.738196126E0,-1.372695563E0,-1.358790007E0,3.350868755E0
4.124618000E0,-2.354152172E0,-1.573911409E0,-7.049306712E-1,2.918245504E0
4.134701000E0,-1.972824833E0,-1.666856703E0,-1.301071264E-1,2.585996318E0
4.144783000E0,-1.743237419E0,-1.625882924E0,2.397263400E-1,2.395796465E0
4.154866000E0,-1.628413306E0,-1.590395295E0,2.465934563E-1,2.289518601E0
4.164948000E0,-1.567247922E0,-1.881292520E0,4.231863856E-2,2.448942315E0
4.175031000E0,-1.547693664E0,-2.590793667E0,-6.172788620E-2,3.018505894E0
4.185113000E0,-1.463788458E0,-3.496017202E0,1.984790576E-1,3.795287454E0
4.195195000E0,-1.261794639E0,-4.324347220E0,6.077652960E-1,4.545490429E0
4.205278000E0,-1.289563651E0,-4.917694305E0,9.455564591E-1,5.171147717E0
4.215360000E0,-1.309673395E0,-5.065995482E0,1.103086588E0,5.347555950E0
4.225443000E0,-1.056541582E0,-4.731578600E0,1.487832501E0,5.071268255E0
4.235525000E0,-7.703782636E-1,-4.280846859E0,1.859879577E0,4.730569156E0
4.245608000E0,-4.659967750E-1,-4.145532348E0,1.975247189E0,4.615646531E0
4.255690000E0,2.772545010E-1,-4.039750078E0,2.058981071E0,4.542670338E0
4.265773000E0,1.183203383E0,-3.835480815E0,2.017398743E0,4.492302418E0
4.275855000E0,1.700240504E0,-3.668586077E0,1.910570698E0,4.472093690E0
4.285938000E0,1.995772816E0,-3.628991657E0,1.691787184E0,4.473794078E0
4.296020000E0,2.195852256E0,-3.841561042E0,1.168227494E0,4.576473954E0
4.306102000E0,2.425349624E0,-3.836901396E0,6.928874534E-1,4.591756324E0
4.316185000E0,3.066685100E0,-3.187453200E0,4.304170525E-1,4.444060558E0
4.326267000E0,3.365537462E0,-2.630363529E0,1.024693845E-1,4.272722162E0
4.336350000E0,3.022955528E0,-2.538800225E0,-2.844272804E-1,3.957861239E0
4.346432000E0,2.548310137E0,-2.547674837E0,-4.058242482E-1,3.626186006E0
4.356515000E0,2.289089618E0,-2.432615081E0,-3.651074544E-2,3.340491049E0
4.366597000E0,2.250044251E0,-2.558464996E0,8.180726860E-1,3.503952795E0
4.376680000E0,2.499093538E0,-2.830732115E0,1.848556883E0,4.204244922E0
4.386762000E0,2.769501534E0,-2.943769611E0,2.467561843E0,4.735480938E0
4.396845000E0,2.904908431E0,-2.776906740E0,2.911535080E0,4.962533683E0
4.406927000E0,3.033361818E0,-2.049886458E0,3.175719885E0,4.846495146E0
4.417009000E0,2.805626802E0,-1.258167027E0,2.954827865E0,4.264449991E0
4.427092000E0,2.443731515E0,-8.760571848E-1,2.268434183E0,3.447476403E0
4.437174000E0,2.013715582E0,-8.320076242E-1,1.509398494E0,2.650579360E0
4.447257000E0,1.462898512E0,-7.331838325E-1,9.946387182E-1,1.914924742E0
4.457339000E0,8.814648360E-1,-6.065949757E-1,6.362318806E-1,1.244881009E0
4.467422000E0,4.996896011E-1,-2.228704253E-1,5.708233184E-1,7.906960128E-1
4.477504000E0,5.154110098E-1,2.522803120E-1,8.936134498E-1,1.061997581E0
4.487587000E0,7.474027991E-1,6.474436243E-1,1.404383817E0,1.717582049E0
4.497669000E0,1.095672319E0,9.599613672E-1,1.852062873E0,2.356302303E0
4.507752000E0,1.545157142E0,1.414825336E0,2.004304634E0,2.899392763E0
4.517834000E0,2.107291498E0,2.145455689E0,2.024016037E0,3.624954964E0
4.527917000E0,2.617863936E0,2.826632924E0,2.057054998E0,4.367440960E0
4.537999000E0,2.903953580E0,3.148079804E0,2.153432461E0,4.793811032E0
4.548081000E0,2.732184019E0,3.164830615E0,1.870341269E0,4.580301169E0
4.558164000E0,2.048264440E0,2.976159092E0,1.141740192E0,3.788994699E0
4.568246000E0,1.210774759E0,2.680363947E0,3.789200395E-1,2.965452209E0
4.578329000E0,5.541692787E-1,2.573346745E0,-4.618072450E-2,2.632745661E0
4.588411000E0,2.378916299E-1,2.824161014E0,-9.396621734E-3,2.834178215E0
4.598494000E0,4.704587853E-1,3.351628690E0,5.604585439E-1,3.430577229E0
4.608576000E0,1.141730837E0,3.877034345E0,1.313583867E0,4.249758486E0
4.618659000E0,1.791426077E0,4.257262699E0,1.750171632E0,4.939290822E0
4.628741000E0,2.151608714E0,4.535504795E0,1.933350719E0,5.379411567E0
4.638823000E0,2.294622838E0,4.641506336E0,2.030234551E0,5.561540018E0
4.648906000E0,2.529908364E0,4.712029604E0,2.080912515E0,5.738802682E0
4.658988000E0,2.546881077E0,4.753348661E0,2.154179150E0,5.807014253E0
4.669071000E0,2.186869179E0,4.438252735E0,2.187218404E0,5.409658815E0
4.679153000E0,1.607154585E0,3.771923043E0,1.930798556E0,4.531923693E0
4.689236000E0,1.170336585E0,3.269422100E0,1.617837301E0,3.830953683E0
4.699318000E0,8.702183014E-1,3.089853523E0,1.499120259E0,3.542857072E0
4.709401000E0,7.551427585E-1,3.098281992E0,1.583855330E0,3.560644548E0
4.719483000E0,8.851865888E-1,3.170024697E0,1.902364277E0,3.801526235E0
4.729566000E0,1.133059416E0,3.373052596E0,2.098458547E0,4.130960630E0
4.739648000E0,1.316715782E0,3.598879081E0,2.124002840E0,4.381444870E0
4.749730000E0,1.464405339E0,3.691219480E0,2.038756137E0,4.463867251E0
4.759813000E0,1.658730535E0,3.754414725E0,1.921567556E0,4.532045762E0
4.769895000E0,1.683792286E0,3.652129966E0,1.764181561E0,4.391531206E0
4.779978000E0,1.415742472E0,3.381054803E0,1.477745177E0,3.952162589E0
4.790060000E0,1.135871927E0,3.079516230E0,1.148870287E0,3.477575043E0
4.800143000E0,9.039473802E-1,2.820133452E0,8.504085195E-1,3.081147222E0
4.810225000E0,8.321026415E-1,2.720917896E0,7.023897636E-1,2.930723526E0
4.820308000E0,1.065052789E0,2.768976454E0,7.306199746E-1,3.055384361E0
4.830390000E0,1.490126656E0,2.964538921E0,8.047938055E-1,3.414185339E0
4.840472000E0,1.925496885E0,3.185025144E0,1.000823318E0,3.854033048E0
4.850555000E0,2.233731689E0,3.416019398E0,1.130299384E0,4.235129571E0
4.860637000E0,2.475743852E0,3.657821646E0,1.126045096E0,4.558173359E0
4.870720000E0,2.537551260E0,3.634230762E0,9.636310798E-1,4.536009754E0
4.880802000E0,2.511723524E0,3.335523704E0,7.339489406E-1,4.239475732E0
4.890885000E0,2.457157892E0,3.013762244E0,5.775020081E-1,3.931144406E0
4.900967000E0,2.370978119E0,2.807724783E0,4.026544726E-1,3.696888736E0
4.911050000E0,2.282294569E0,2.658169963E0,2.195927685E-1,3.510406962E0
4.921132000E0,2.253140352E0,2.377311823E0,1.426615369E-1,3.278506560E0
4.931215000E0,2.350581277E0,1.947244727E0,1.465065198E-1,3.055889155E0
4.941296417E0,2.639609731E0,1.474671296E0,2.184701031E-1,3.031488768E0
4.951378417E0,3.017943295E0,1.085482961E0,5.319951752E-1,3.251041965E0
4.961461417E0,3.294187982E0,8.285326239E-1,8.942877799E-1,3.512533474E0
4.971543417E0,3.415737562E0,8.304201052E-1,1.285617365E0,3.742949726E0
4.981626417E0,3.200570551E0,1.123270592E0,1.676986127E0,3.783869864E0
4.991708417E0,2.766479693E0,1.543325209E0,1.803994375E0,3.645498361E0
5.001791417E0,2.226598670E0,1.792037696E0,1.521575906E0,3.237952128E0
5.011873417E0,1.758961751E0,1.723744264E0,1.082927435E0,2.690348037E0
5.021956417E0,1.395049176E0,1.401895973E0,6.600041744E-1,2.084965235E0
5.032038417E0,1.145530357E0,8.674803427E-1,4.220201585E-1,1.497619097E0
5.042120417E0,1.091700305E0,1.526754785E-1,2.710810107E-1,1.135167068E0
5.052203417E0,1.250592543E0,-6.504490931E-1,1.826333955E-1,1.421415031E0
5.062285417E0,1.600093487E0,-1.565317318E0,2.793542361E-1,2.255782849E0
5.072368417E0,1.979930955E0,-2.495612690E0,4.430330050E-1,3.216284740E0
5.082450417E0,2.244954835E0,-3.334660070E0,5.691910681E-1,4.060019515E0
5.092533417E0,2.397197034E0,-3.884682503E0,5.360782859E-1,4.596160539E0
5.102615417E0,2.436154693E0,-4.111098388E0,3.383213595E-1,4.790661853E0
5.112698417E0,2.293259853E0,-4.304217888E0,2.260036558E-2,4.877073216E0
5.122780417E0,2.043752729E0,-4.368612104E0,-1.893761122E-1,4.826754628E0
5.132862417E0,1.791217332E0,-4.394695948E0,-3.279931301E-1,4.757036000E0
5.142945417E0,1.510033502E0,-4.481752511E0,-4.409844330E-1,4.749818314E0
5.153027417E0,1.246219411E0,-4.643098533E0,-5.972851852E-1,4.844396392E0
5.163110417E0,1.033321704E0,-4.832921957E0,-6.321527168E-1,4.982419638E0
5.173192417E0,8.300853521E-1,-4.994924330E0,-5.474818182E-1,5.092940908E0
5.183275417E0,4.841102797E-1,-5.197064914E0,-4.632479990E-1,5.240080647E0
5.193357417E0,4.830267906E-2,-5.450132407E0,-4.785232651E-1,5.471312541E0
5.203440417E0,-3.314558512E-1,-5.765385039E0,-5.696255162E-1,5.802930368E0
5.213522417E0,-5.367398983E-1,-5.963281714E0,-6.925079691E-1,6.027303361E0
5.223605417E0,-6.499174351E-1,-6.073155574E0,-8.840074977E-1,6.171473126E0
5.233687417E0,-7.318088597E-1,-6.133733897E0,-1.255418251E0,6.303515742E0
5.243769417E0,-6.624807626E-1,-6.139876982E0,-1.759701424E0,6.421333134E0
5.253852417E0,-5.448803920E-1,-6.031066146E0,-2.052344920E0,6.393963807E0
5.263934417E0,-5.900004315E-1,-5.835187345E0,-2.182372963E0,6.257816201E0
5.274017417E0,-8.455956763E-1,-5.693457270E0,-2.089829373E0,6.123550811E0
5.284099417E0,-1.224721538E0,-5.646336898E0,-1.930332533E0,6.091571792E0
5.294182417E0,-1.599001812E0,-5.750572872E0,-1.803341534E0,6.235217385E0
5.304264417E0,-1.890822896E0,-5.930359551E0,-1.602461609E0,6.427461306E0
5.314347417E0,-2.191602500E0,-6.121466439E0,-1.353809056E0,6.641405863E0
5.324429417E0,-2.439917961E0,-6.305650223E0,-1.182181875E0,6.863816605E0
5.334511417E0,-2.545652577E0,-6.406562056E0,-1.083914153E0,6.978485102E0
5.344594417E0,-2.691199715E0,-6.337056203E0,-1.141920871E0,6.978883901E0
5.354676417E0,-2.852252499E0,-6.069828508E0,-1.463283405E0,6.864354358E0
5.364759417E0,-2.830756965E0,-5.727822526E0,-1.925875346E0,6.673090118E0
5.374841417E0,-2.685861207E0,-5.394066964E0,-2.244935685E0,6.430361193E0
5.384924417E0,-2.490123324E0,-5.184152507E0,-2.328095809E0,6.204529111E0
5.395006417E0,-2.277668837E0,-5.223789613E0,-2.277405420E0,6.136964127E0
5.405089417E0,-2.089286166E0,-5.451117663E0,-2.093814981E0,6.201924027E0
5.415171417E0,-1.911924328E0,-5.659855660E0,-1.777796803E0,6.232975389E0
5.425253417E0,-1.832286420E0,-5.946752805E0,-1.466619680E0,6.393130355E0
5.435336417E0,-1.553385928E0,-6.279361142E0,-1.100791702E0,6.561640539E0
5.445418417E0,-1.289965355E0,-6.656810607E0,-5.270450686E-1,6.801096571E0
5.455501417E0,-1.372539150E0,-6.679920557E0,-9.520319581E-2,6.820136803E0
5.465583417E0,-1.519328821E0,-6.156265558E0,-3.741633296E-3,6.340976241E0
5.475666417E0,-1.440686109E0,-5.497434043E0,-8.168384850E-2,5.683663411E0
5.485748417E0,-1.059161720E0,-4.936820548E0,-1.568762644E-1,5.051596859E0
5.495831417E0,-4.401590985E-1,-4.586697460E0,-1.911524963E-1,4.611732093E0
5.505913417E0,2.943195999E-1,-4.319521220E0,-1.705983639E-1,4.332896422E0
5.515995417E0,7.371497065E-1,-4.115805396E0,-2.059104301E-1,4.186363918E0
5.526078417E0,8.912390417E-1,-4.044843003E0,-1.005861425E-1,4.143088162E0
5.536160417E0,9.976566124E-1,-4.188278126E0,1.930895327E-1,4.309788388E0
5.546243417E0,1.243174766E0,-4.575092199E0,6.753323579E-1,4.788843902E0
5.556325417E0,1.495442360E0,-5.048973652E0,1.235400162E0,5.408761074E0
5.566408417E0,1.702086470E0,-5.322481842E0,1.804138948E0,5.872037862E0
5.576490417E0,1.798055066E0,-5.408683249E0,2.265287796E0,6.133382860E0
5.586573417E0,1.802417089E0,-5.248128063E0,2.555604538E0,6.109228272E0
5.596655417E0,1.735245445E0,-4.899001634E0,2.690476999E0,5.852346559E0
5.606737417E0,1.677418236E0,-4.494007106E0,2.823525714E0,5.566159292E0
5.616820417E0,1.594167334E0,-4.082677704E0,3.111230358E0,5.374884284E0
5.626902417E0,1.344049761E0,-3.719733135E0,3.446203310E0,5.245874723E0
5.636985417E0,9.392540377E-1,-3.459917369E0,3.754648029E0,5.191397516E0
5.647067417E0,5.452113444E-1,-3.232979329E0,4.028024071E0,5.193687387E0
5.657150417E0,1.601283395E-1,-2.984976693E0,4.241014749E0,5.188634989E0
5.667232417E0,-2.604384935E-1,-2.738967666E0,4.369929189E0,5.163918397E0
5.677315417E0,-5.097842342E-1,-2.442863496E0,4.385738014E0,5.046004355E0
5.687397417E0,-4.460349655E-1,-2.103764457E0,4.239717836E0,4.753943564E0
5.697479417E0,-2.552327174E-1,-1.657033527E0,4.131063413E0,4.458316809E0
5.707562417E0,-1.633788067E-1,-1.137530343E0,4.043390847E0,4.203531545E0
5.717644417E0,-7.014202952E-2,-6.528368036E-1,3.869471264E0,3.924783263E0
5.727727417E0,8.694809675E-2,-3.691130894E-1,3.424627669E0,3.445559333E0
5.737809417E0,3.337052751E-1,-2.593900877E-1,2.944733816E0,2.974911709E0
5.747892417E0,5.144959205E-1,-1.260764945E-1,2.598939423E0,2.652373929E0
5.757974417E0,5.794152170E-1,3.052670494E-2,2.436909861E0,2.505031646E0
5.768057417E0,6.353619611E-1,7.005037442E-2,2.530032033E0,2.609531369E0
5.778139417E0,7.044456446E-1,-1.133281025E-1,2.775225958E0,2.865478327E0
5.788221417E0,8.131886530E-1,-3.376629630E-1,3.087532178E0,3.210630314E0
5.798304417E0,8.800965875E-1,-4.126589124E-1,3.249810539E0,3.392068089E0
5.808386417E0,9.533774024E-1,-2.174664286E-1,3.350865628E0,3.490633263E0
5.818469417E0,9.494568443E-1,9.315170020E-2,3.461835841E0,3.590884700E0
5.828551417E0,8.258899748E-1,3.040844500E-1,3.595479217E0,3.701625643E0
5.838634417E0,6.999052817E-1,3.860008715E-1,3.631014501E0,3.717947065E0
5.848716417E0,7.042146796E-1,4.852469784E-1,3.611585373E0,3.711459531E0
5.858798417E0,8.061404192E-1,5.707926205E-1,3.353126162E0,3.495586023E0
5.868881417E0,6.401426446E-1,5.325413051E-1,2.804212360E0,2.925233291E0
5.878963417E0,2.252581358E-1,4.139273196E-1,2.331806452E0,2.378949008E0
5.889046417E0,-1.695844567E-1,1.880028936E-1,2.059176514E0,2.074683564E0
5.899128417E0,-5.586178404E-1,-1.628956805E-1,1.922899991E0,2.009013008E0
5.909211417E0,-9.751658821E-1,-3.820070770E-1,1.799667436E0,2.082229762E0
5.919293417E0,-1.213993067E0,-4.350881007E-1,1.755972655E0,2.178651139E0
5.929376417E0,-1.293543266E0,-4.790498069E-1,1.934902716E0,2.376255756E0
5.939458417E0,-1.093264436E0,-4.435759190E-1,2.307540800E0,2.591665732E0
5.949540375E0,-8.950198513E-1,-3.119039315E-1,2.751553506E0,2.910221863E0
5.959623375E0,-7.769031715E-1,-1.842064427E-1,3.010615565E0,3.114693665E0
5.969705375E0,-6.207333970E-1,-7.037065566E-2,2.946114636E0,3.011619735E0
5.979788375E0,-5.078879821E-1,1.019339257E-1,2.584613452E0,2.636013548E0
5.989870375E0,-5.205764401E-1,2.646560901E-1,2.086965114E0,2.167133144E0
5.999953375E0,-5.354523414E-1,3.681519534E-1,1.623853502E0,1.749041242E0
6.010035375E0,-6.594127285E-1,3.848032156E-1,1.128530163E0,1.362526693E0
6.020117375E0,-8.951929289E-1,5.138155970E-1,9.758511758E-1,1.420444425E0
6.030200375E0,-1.041007869E0,6.818335846E-1,1.256559335E0,1.768484035E0
6.040282375E0,-1.150449035E0,8.061405654E-1,1.759186138E0,2.251251088E0
6.050365375E0,-1.217928243E0,9.654779229E-1,2.105045290E0,2.616622345E0
6.060447375E0,-1.150544930E0,1.202917563E0,2.169490377E0,2.734493151E0
6.070530375E0,-9.792542553E-1,1.429727550E0,1.911374982E0,2.580002730E0
6.080612375E0,-8.821898907E-1,1.646077599E0,1.543596958E0,2.422916019E0
6.090694375E0,-7.942764187E-1,1.838395007E0,1.237483086E0,2.354131606E0
6.100777375E0,-6.907093656E-1,2.021140523E0,1.103321500E0,2.404039678E0
6.110859375E0,-5.968463516E-1,2.089893107E0,1.075572515E0,2.425022681E0
6.120942375E0,-5.841181326E-1,2.022072715E0,1.095739562E0,2.372892169E0
6.131024375E0,-5.659397238E-1,1.897523221E0,1.070255642E0,2.250850791E0
6.141107375E0,-4.963718909E-1,1.845216953E0,1.160165353E0,2.235440517E0
6.151189375E0,-4.490679163E-1,1.868325003E0,1.424307912E0,2.391851446E0
6.161272375E0,-4.351264000E-1,1.899370064E0,1.758330252E0,2.624627002E0
6.171354375E0,-4.265257305E-1,2.037457032E0,1.849017351E0,2.784245054E0
6.181436375E0,-4.252440208E-1,2.209808829E0,1.809975054E0,2.887922650E0
6.191519375E0,-3.954963112E-1,2.329267591E0,1.782773952E0,2.959761445E0
6.201601375E0,-3.887112021E-1,2.401966316E0,1.758746574E0,3.002287144E0
6.211684375E0,-3.765694588E-1,2.335779197E0,1.696197592E0,2.911143295E0
6.221766375E0,-3.213009918E-1,2.312048126E0,1.466686338E0,2.756804251E0
6.231849375E0,-3.431157839E-1,2.337035617E0,1.198528058E0,2.648760734E0
6.241931375E0,-3.689248091E-1,2.287419361E0,1.098069093E0,2.564010254E0
6.252013375E0,-4.891125727E-1,1.990678137E0,1.219017287E0,2.384959895E0
6.262096375E0,-7.314153421E-1,1.729080141E0,1.342862484E0,2.308238763E0
6.272178375E0,-9.959445477E-1,1.634638545E0,1.405894591E0,2.374971224E0
6.282261375E0,-1.215111054E0,1.638452391E0,1.380609477E0,2.463149130E0
6.292343375E0,-1.294527352E0,1.638879822E0,1.306249850E0,2.463334490E0
6.302426375E0,-1.191656703E0,1.639702233E0,1.200218781E0,2.355672777E0
6.312508375E0,-9.891500831E-1,1.660930550E0,1.176623511E0,2.263084414E0
6.322590375E0,-7.206588042E-1,1.728788365E0,1.194783209E0,2.221613206E0
6.332673375E0,-4.863386536E-1,1.826015574E0,1.078249663E0,2.175656337E0
6.342755375E0,-2.977367127E-1,1.757156716E0,9.546801621E-1,2.021796500E0
6.352838375E0,-1.469785362E-1,1.492446393E0,9.013358675E-1,1.749687193E0
6.362920375E0,1.941275597E-2,1.166313701E0,9.366233754E-1,1.495970538E0
6.373003375E0,1.159456086E-1,8.347113767E-1,1.031522516E0,1.332000438E0
6.383085375E0,1.308916765E-1,5.780656797E-1,1.131980312E0,1.277760536E0
6.393167375E0,9.467928529E-2,4.918777210E-1,1.276446592E0,1.371212515E0
6.403250375E0,1.167379063E-1,6.058896554E-1,1.321847591E0,1.458770395E0
6.413332375E0,1.486128330E-1,7.855643597E-1,1.124400128E0,1.379664012E0
6.423415375E0,2.083438951E-1,1.042164448E0,7.031082402E-1,1.274313585E0
6.433497375E0,3.627992660E-1,1.227395177E0,4.865848213E-1,1.369265137E0
6.443580375E0,4.673428041E-1,1.146895097E0,4.921262276E-1,1.332653700E0
6.453662375E0,5.855857837E-1,8.980229813E-1,3.977987985E-1,1.143503331E0
6.463744375E0,9.827052820E-1,6.076616541E-1,4.232213227E-1,1.230479031E0
6.473827375E0,1.692129831E0,3.365566698E-1,8.488268477E-1,1.922779440E0
6.483909375E0,2.456914648E0,-4.265923887E-2,1.349155549E0,2.803296291E0
6.493992375E0,2.949288797E0,-2.245824900E-1,1.717281483E0,3.420204292E0
6.504074375E0,3.047044888E0,-1.033074367E-1,1.967429608E0,3.628489249E0
6.514157375E0,2.818650305E0,2.724153453E-1,1.929144963E0,3.426455888E0
6.524239375E0,2.521496560E0,7.992594159E-1,1.597939373E0,3.090335055E0
6.534321375E0,2.236265287E0,1.316947331E0,1.104164815E0,2.820356830E0
6.544404375E0,1.881023548E0,1.679346063E0,7.374046451E-1,2.627207338E0
6.554486375E0,1.512068918E0,1.813320976E0,6.613469875E-1,2.451910523E0
6.564569375E0,1.105683922E0,1.710155042E0,5.423962024E-1,2.107453640E0
6.574651375E0,7.309130663E-1,1.497934736E0,4.555827378E-1,1.727888311E0
6.584734375E0,3.896116734E-1,1.224955719E0,4.331994501E-1,1.356456978E0
6.594816375E0,8.289422214E-2,9.426123860E-1,3.445574149E-1,1.007029977E0
6.604898375E0,-1.879417902E-1,7.282993609E-1,4.099743095E-1,8.566335331E-1
6.614981375E0,-4.609395182E-1,6.010700879E-1,6.275834101E-1,9.836724184E-1
6.625063375E0,-7.042936170E-1,6.396874389E-1,8.526111656E-1,1.277566170E0
6.635146375E0,-8.234721512E-1,8.424396417E-1,6.484946613E-1,1.344751375E0
6.645228375E0,-8.642822081E-1,1.061451197E0,2.729034416E-1,1.395757381E0
6.655311375E0,-8.095943695E-1,1.203062866E0,4.736580893E-2,1.450877949E0
6.665393375E0,-8.007644892E-1,1.235052983E0,-1.020879999E-1,1.475466570E0
6.675475375E0,-8.183856583E-1,1.291956624E0,-1.803278384E-1,1.539943224E0
6.685558375E0,-8.487929338E-1,1.267350664E0,-1.459098114E-1,1.532291363E0
6.695640375E0,-8.859145671E-1,1.130437524E0,-5.134045377E-2,1.437139332E0
6.705723375E0,-8.427474976E-1,9.303338179E-1,5.334911853E-2,1.256419709E0
6.715805375E0,-7.895851976E-1,6.968483573E-1,1.882515465E-1,1.069804217E0
6.725887375E0,-7.900301707E-1,4.661868095E-1,2.628276658E-1,9.542306817E-1
6.735970375E0,-8.973762792E-1,2.482628363E-1,1.398284148E-1,9.415256810E-1
6.746052375E0,-9.929384941E-1,1.116040510E-1,6.082127541E-2,1.001040231E0
6.756135375E0,-1.018766230E0,5.909196138E-3,7.379741639E-2,1.021452696E0
6.766217375E0,-1.171960942E0,-9.619956136E-2,1.175804901E-1,1.181766464E0
6.776300375E0,-1.296214859E0,-1.616149941E-1,1.032112500E-1,1.310322452E0
6.786382375E0,-1.305801369E0,-2.100088897E-1,1.815048829E-1,1.334977517E0
6.796464375E0,-1.238124526E0,-2.232469860E-1,2.495024461E-1,1.282592308E0
6.806547375E0,-1.111303096E0,-9.599695534E-2,2.157166493E-1,1.136109000E0
6.816629375E0,-8.835727572E-1,6.579228580E-2,1.643275174E-1,9.011287229E-1
6.826712375E0,-5.859184903E-1,1.782766351E-1,1.436660886E-1,6.290651643E-1
6.836794375E0,-3.724793315E-1,2.856782922E-1,3.005936623E-2,4.703791072E-1
6.846877375E0,-2.427851647E-1,3.394191742E-1,-1.861548811E-1,4.569503822E-1
6.856959375E0,-1.991082180E-1,3.341213045E-1,-3.587255108E-1,5.291173033E-1
6.867041375E0,-1.602224797E-1,3.506496289E-1,-4.980061877E-1,6.297908925E-1
6.877124375E0,-1.222220099E-1,3.505668908E-1,-6.512193176E-1,7.496145438E-1
6.887206375E0,-3.179365039E-2,4.063563448E-1,-5.597071767E-1,6.923932689E-1
6.897289375E0,1.128261191E-1,4.601747024E-1,-3.193573773E-1,5.713839552E-1
6.907371375E0,1.517878711E-1,4.904053921E-1,-1.071139741E-1,5.244143494E-1
6.917454375E0,1.243749547E-1,5.774657553E-1,3.867611557E-2,5.919726935E-1
6.927536375E0,1.568761182E-1,6.844902670E-1,-2.039508820E-3,7.022401311E-1
6.937618375E0,2.981927955E-1,7.362542054E-1,-1.702551323E-1,8.123890745E-1
6.947702125E0,4.675293303E-1,7.390465432E-1,-4.928477740E-1,1.003828868E0
6.957784125E0,5.543218911E-1,7.198410711E-1,-8.383527303E-1,1.236235911E0
6.967867125E0,6.298842895E-1,6.332636878E-1,-1.177816051E0,1.478183942E0
6.977949125E0,7.235812426E-1,4.353561956E-1,-1.348453299E0,1.591047181E0
6.988032125E0,9.137642705E-1,2.965254620E-1,-1.395269908E0,1.694010215E0
6.998114125E0,1.132396926E0,1.500421849E-1,-1.380420904E0,1.791758167E0
7.008196125E0,1.328675677E0,2.057342827E-3,-1.239057741E0,1.816768387E0
7.018279125E0,1.497749087E0,-1.879853520E-1,-8.951321179E-1,1.754950805E0
7.028361125E0,1.646876475E0,-4.731891426E-1,-4.611903638E-1,1.774487712E0
7.038444125E0,1.615917222E0,-6.545250410E-1,-1.172656175E-1,1.747381676E0
7.048526125E0,1.609006398E0,-6.953760284E-1,4.359625518E-2,1.753382458E0
7.058608125E0,1.617298919E0,-6.791979522E-1,1.439593264E-1,1.760025551E0
7.068691125E0,1.620887940E0,-6.208550191E-1,2.674998835E-1,1.756216062E0
7.078773125E0,1.613085415E0,-4.235723019E-1,2.841539231E-1,1.691804216E0
7.088856125E0,1.749084050E0,-1.432205307E-1,2.418583810E-1,1.771525504E0
7.098938125E0,2.073234390E0,1.979282498E-3,2.030360851E-1,2.083153476E0
7.109020125E0,2.335328230E0,-1.203006148E-1,3.650539523E-1,2.366747678E0
7.119103125E0,2.394853470E0,-4.460279489E-1,5.333172306E-1,2.493730407E0
7.129185125E0,2.263871747E0,-6.546107027E-1,7.074633926E-1,2.460515172E0
7.139268125E0,2.036539603E0,-6.992799219E-1,8.676800251E-1,2.321498351E0
7.149350125E0,1.683198794E0,-6.210953397E-1,9.727015731E-1,2.040849321E0
7.159433125E0,1.210190037E0,-3.483189288E-1,1.035565866E0,1.630424075E0
7.169515125E0,6.742289883E-1,4.152634084E-2,1.035724325E0,1.236541161E0
7.179597125E0,2.232765144E-1,4.943429071E-1,9.313754994E-1,1.077816140E0
7.189680125E0,-2.278952301E-2,9.931969410E-1,8.021058404E-1,1.276845059E0
7.199762125E0,-3.488098025E-1,1.443111826E0,6.954152048E-1,1.639464037E0
7.209845125E0,-8.082039016E-1,1.853124143E0,6.210009071E-1,2.114924292E0
7.219927125E0,-1.277008510E0,2.076128762E0,4.523406029E-1,2.479046871E0
7.230010125E0,-1.598443987E0,2.132001539E0,2.421419710E-1,2.675646927E0
7.240092125E0,-1.759373980E0,2.007068760E0,5.462322682E-2,2.669589014E0
7.250174125E0,-1.687402357E0,1.673929787E0,-7.533494174E-2,2.378033431E0
7.260257125E0,-1.491055194E0,1.270799644E0,-5.011619300E-2,1.959767578E0
7.270339125E0,-1.290702689E0,8.507342094E-1,7.315919280E-2,1.547583404E0
7.280422125E0,-1.042926341E0,5.237418303E-1,-4.757674724E-2,1.168017296E0
7.290504125E0,-6.931657809E-1,3.440975314E-1,-3.984146565E-1,8.704114829E-1
7.300586125E0,-2.342856520E-1,1.538656792E-1,-6.810991743E-1,7.365191778E-1
7.310669125E0,1.722893786E-1,-5.931240141E-2,-7.818192181E-1,8.027719980E-1
7.320751125E0,5.691188550E-1,-1.729220474E-1,-7.344018075E-1,9.450631304E-1
7.330834125E0,9.124334443E-1,-1.665132067E-1,-6.182401443E-1,1.114666907E0
7.340916125E0,1.133625426E0,-1.068958730E-1,-4.862649786E-1,1.238138508E0
7.350998125E0,1.295276965E0,-6.871413946E-2,-1.644280896E-1,1.307478737E0
7.361081125E0,1.372161419E0,-2.172737628E-2,1.655133328E-1,1.382278446E0
7.371163125E0,1.373288763E0,-2.675101161E-2,4.845710403E-1,1.456518704E0
7.381246125E0,1.325114722E0,-6.827559829E-2,7.893273354E-1,1.543900329E0
7.391328125E0,1.267902056E0,-6.550372571E-2,9.894167161E-1,1.609599888E0
7.401411125E0,1.111115985E0,1.232856184E-2,1.063938310E0,1.538406791E0
7.411493125E0,8.660276020E-1,7.841467023E-2,1.043266064E0,1.358144598E0
7.421575125E0,5.028067517E-1,-6.625333875E-2,1.011050537E0,1.131117732E0
7.431658125E0,3.669537127E-2,-4.063513747E-1,9.378805268E-1,1.022784372E0
7.441740125E0,-4.376401180E-1,-7.374680874E-1,8.473875555E-1,1.205592685E0
7.451823125E0,-8.905204189E-1,-9.402580047E-1,7.217326453E-1,1.482568630E0
7.461905125E0,-1.309608491E0,-9.414900130E-1,6.471136951E-1,1.737882038E0
7.471987125E0,-1.618734410E0,-8.230789259E-1,5.804142138E-1,1.906473359E0
7.482070125E0,-1.793372616E0,-7.508234203E-1,5.025293013E-1,2.008097818E0
7.492152125E0,-1.863752042E0,-6.763237533E-1,2.873204827E-1,2.003381779E0
7.502235125E0,-1.962332005E0,-5.376245821E-1,-1.634647608E-2,2.034712337E0
7.512317125E0,-1.974922814E0,-3.639570147E-1,-2.147311011E-1,2.019627262E0
7.522400125E0,-1.878096431E0,-1.183610934E-1,-2.869924539E-1,1.903580895E0
7.532482125E0,-1.815293827E0,1.238691705E-1,-3.562173477E-1,1.854056647E0
7.542564125E0,-1.624211497E0,3.650197461E-1,-2.889112177E-1,1.689607083E0
7.552647125E0,-1.391113415E0,4.996518865E-1,-1.864267766E-1,1.489833374E0
7.562729125E0,-1.303894007E0,5.992609593E-1,-6.573118240E-2,1.436514486E0
7.572812125E0,-1.268034788E0,7.251634991E-1,-1.103740892E-1,1.464908449E0
7.582894125E0,-1.261947252E0,9.176859981E-1,-2.753714052E-1,1.584451914E0
7.592976125E0,-1.125076212E0,1.152480943E0,-4.390472504E-1,1.669362541E0
7.603059125E0,-8.964097345E-1,1.351271072E0,-6.565779984E-1,1.749450940E0
7.613141125E0,-5.916879380E-1,1.648874468E0,-8.068488094E-1,1.928700762E0
7.623224125E0,-3.143603468E-1,2.090592727E0,-8.447969466E-1,2.276638368E0
7.633306125E0,-1.003849983E-1,2.461791810E0,-8.558847293E-1,2.608262781E0
7.643388125E0,1.136359584E-1,2.565299514E0,-8.484973571E-1,2.704370998E0
7.653471125E0,3.988339019E-1,2.327722172E0,-7.800130132E-1,2.487122694E0
7.663553125E0,6.910748166E-1,1.954570703E0,-6.642890140E-1,2.176972882E0
7.673636125E0,8.332820249E-1,1.599571915E0,-6.001371646E-1,1.900829782E0
7.683718125E0,8.205608225E-1,1.420230210E0,-6.264639607E-1,1.755799250E0
7.693800125E0,7.820522296E-1,1.393035687E0,-6.903307584E-1,1.740319129E0
7.703883125E0,8.277774560E-1,1.399817288E0,-7.378086877E-1,1.785795513E0
7.713965125E0,1.005521702E0,1.418002713E0,-7.067070553E-1,1.876496856E0
7.724048125E0,1.133351192E0,1.426839610E0,-6.157857755E-1,1.923420993E0
7.734130125E0,1.200470211E0,1.465304641E0,-4.878592220E-1,1.956081041E0
7.744213125E0,1.442917407E0,1.504987647E0,-2.827090761E-1,2.104025400E0
7.754295125E0,1.756541004E0,1.537329474E0,-4.203270972E-2,2.334648787E0
7.764377125E0,1.976864090E0,1.517184062E0,1.307370177E-1,2.495381990E0
7.774460125E0,1.995291005E0,1.482549542E0,2.586814052E-1,2.499210957E0
7.784542125E0,1.875227787E0,1.421332118E0,3.924972743E-1,2.385522658E0
7.794625125E0,1.711884649E0,1.332325216E0,6.313425851E-1,2.259254964E0
7.804707125E0,1.570115397E0,1.272118776E0,8.884234612E-1,2.207452103E0
7.814789125E0,1.383354160E0,1.262970807E0,1.116750947E0,2.180801840E0
7.824872125E0,1.183907973E0,1.311119996E0,1.251800871E0,2.165104882E0
7.834954125E0,1.160706806E0,1.292505678E0,1.365618970E0,2.209689206E0
7.845037125E0,1.358806379E0,1.067731107E0,1.451735592E0,2.256976013E0
7.855119125E0,1.649369143E0,7.207520673E-1,1.585646625E0,2.398786637E0
7.865201125E0,1.895674331E0,4.056330442E-1,1.804867072E0,2.648709966E0
7.875284125E0,2.026633835E0,2.453716806E-1,2.010822380E0,2.865459580E0
7.885366125E0,1.957481740E0,1.764330080E-1,2.143761166E0,2.908362994E0
7.895449125E0,1.732941057E0,2.090180790E-1,2.178828527E0,2.791785632E0
7.905531125E0,1.485519635E0,4.062879324E-1,2.178441587E0,2.667854235E0
7.915613125E0,1.213485528E0,6.590051776E-1,2.261945674E0,2.650138333E0
7.925696125E0,1.013102033E0,8.839440554E-1,2.341656087E0,2.700201113E0
7.935778125E0,8.095920306E-1,1.033914612E0,2.295368943E0,2.644454058E0
7.945860125E0,6.328207612E-1,1.032393166E0,2.216689686E0,2.525868352E0
7.955942125E0,5.617572105E-1,8.038807628E-1,2.113039018E0,2.329534146E0
7.966024125E0,4.728877187E-1,4.018146662E-1,2.019866122E0,2.113039747E0
7.976107125E0,3.715455312E-1,-1.637752479E-1,2.123829178E0,2.162294797E0
7.986189125E0,1.892129749E-1,-7.512292171E-1,2.249698388E0,2.379346491E0
7.996272125E0,-6.283534884E-2,-1.241895103E0,2.433099816E0,2.732439650E0
8.006354125E0,-3.901759297E-1,-1.668316022E0,2.607219665E0,3.119793260E0
8.016437125E0,-7.618179399E-1,-2.026662633E0,2.817172129E0,3.553053167E0
8.026519125E0,-1.166665118E0,-2.336455720E0,2.970690776E0,3.955393345E0
8.036601125E0,-1.465822120E0,-2.498671369E0,3.158663557E0,4.285924470E0
8.046684125E0,-1.703763451E0,-2.602788645E0,3.299652790E0,4.534867932E0
8.056766125E0,-1.944828950E0,-2.687977315E0,3.388049827E0,4.741989384E0
8.066849125E0,-2.090376087E0,-2.780416824E0,3.379780694E0,4.850083241E0
8.076931125E0,-2.163293205E0,-2.821766871E0,3.309569083E0,4.857515135E0
8.087013125E0,-2.156849574E0,-2.724446983E0,3.116727326E0,4.667826119E0
8.097096125E0,-2.230322762E0,-2.596309345E0,2.775039432E0,4.406359687E0
8.107178125E0,-2.445521348E0,-2.695207104E0,2.441747409E0,4.382561626E0
8.117261125E0,-2.568496479E0,-2.950959055E0,2.231637655E0,4.503947172E0
8.127343125E0,-2.642767228E0,-3.168981553E0,2.033067527E0,4.600002856E0
8.137425125E0,-2.734350412E0,-3.277349463E0,1.831982950E0,4.644766217E0
8.147508125E0,-2.731048490E0,-3.318072396E0,1.765959699E0,4.646164433E0
8.157590125E0,-2.625979287E0,-3.271192637E0,1.756277879E0,4.547634602E0
8.167673125E0,-2.374073635E0,-3.233810803E0,1.847401765E0,4.416633471E0
8.177755125E0,-2.147605711E0,-3.207183752E0,1.887264573E0,4.296510849E0
8.187837125E0,-1.908797822E0,-3.136600842E0,1.807179938E0,4.092392124E0
8.197920125E0,-1.622753202E0,-3.019548648E0,1.626671713E0,3.794346170E0
8.208002125E0,-1.343569704E0,-2.847748097E0,1.426655423E0,3.456905331E0
8.218085125E0,-1.269711769E0,-2.757325585E0,1.299474974E0,3.302067165E0
8.228167125E0,-1.285662974E0,-2.806917282E0,1.202919317E0,3.313416484E0
8.238249125E0,-1.325214125E0,-2.930353467E0,1.195067968E0,3.430940303E0
8.248332125E0,-1.343334646E0,-3.063589584E0,1.280588175E0,3.581903849E0
8.258414125E0,-1.351639447E0,-3.222965972E0,1.533774075E0,3.816661075E0
8.268497125E0,-1.292202500E0,-3.362547488E0,1.859004980E0,4.053691210E0
8.278579125E0,-1.274480174E0,-3.376308325E0,2.061313087E0,4.156052124E0
8.288661125E0,-1.399385471E0,-3.311892474E0,1.992044047E0,4.110371144E0
8.298744125E0,-1.476450604E0,-3.267123852E0,1.737089364E0,3.983903125E0
8.308826125E0,-1.422219433E0,-3.225520036E0,1.442556049E0,3.808891646E0
8.318909125E0,-1.210088296E0,-3.122058817E0,1.206160136E0,3.558986824E0
8.328991125E0,-1.046334683E0,-2.970865315E0,1.011094976E0,3.308046257E0
8.339073125E0,-1.037396044E0,-2.830500857E0,7.832392144E-1,3.114705335E0
8.349156125E0,-1.056905864E0,-2.716673695E0,5.217379895E-1,2.961347075E0
8.359238125E0,-1.005888907E0,-2.591020246E0,2.680708641E-1,2.792321686E0
8.369321125E0,-8.510324174E-1,-2.488923476E0,-6.594782174E-3,2.630406762E0
8.379403125E0,-8.138757008E-1,-2.365895427E0,-4.502370670E-1,2.542158187E0
8.389485125E0,-8.159654957E-1,-2.168446357E0,-9.844661710E-1,2.517366269E0
8.399568125E0,-7.704852676E-1,-1.891300614E0,-1.417006347E0,2.485673460E0
8.409650125E0,-6.325716698E-1,-1.617038133E0,-1.603964928E0,2.363823753E0
8.419733125E0,-4.734502208E-1,-1.381571636E0,-1.572142042E0,2.145815905E0
8.429815125E0,-2.019961578E-1,-1.102464152E0,-1.448960504E0,1.831861402E0
8.439897125E0,9.249651968E-2,-8.713102689E-1,-1.330170225E0,1.592824541E0
8.449980125E0,3.679734671E-1,-6.930301255E-1,-1.296454010E0,1.515416849E0
8.460062125E0,5.509498018E-1,-5.682195532E-1,-1.197172966E0,1.435145378E0
8.470145125E0,6.448601782E-1,-4.352135235E-1,-9.427114964E-1,1.222276739E0
8.480227125E0,5.468199134E-1,-3.311557429E-1,-6.733650622E-1,9.284915997E-1
8.490309125E0,3.226248014E-1,-2.087833133E-1,-5.936216122E-1,7.071519305E-1
8.500392125E0,2.291132051E-1,-7.625777856E-2,-6.089416096E-1,6.550709835E-1
8.510474125E0,3.753304338E-1,2.155970737E-2,-6.139456567E-1,7.199076503E-1
8.520557125E0,6.091658503E-1,1.609418334E-1,-5.548133495E-1,8.395255563E-1
8.530639125E0,7.283373678E-1,3.066531318E-1,-4.630211270E-1,9.159148588E-1
8.540721125E0,7.437383491E-1,3.692731570E-1,-4.967376342E-1,9.676040893E-1
8.550804125E0,7.061179483E-1,3.747784567E-1,-6.401730502E-1,1.024149883E0
8.560886125E0,6.493052316E-1,3.947203857E-1,-5.964768076E-1,9.660155530E-1
8.570969125E0,5.755940616E-1,3.973919785E-1,-4.134367383E-1,8.125015968E-1
8.581051125E0,5.458539534E-1,3.640442844E-1,-2.428117695E-1,6.996015543E-1
8.591133125E0,5.421596825E-1,3.325182903E-1,-2.151716888E-1,6.714196827E-1
8.601216125E0,6.144289291E-1,3.486223993E-1,-1.793329346E-1,7.288489470E-1
8.611298125E0,6.046301651E-1,4.177019897E-1,-5.899372816E-2,7.372468031E-1
8.621381125E0,6.423195630E-1,5.185652903E-1,1.529280782E-2,8.256623107E-1
8.631463125E0,8.208777416E-1,7.022301346E-1,9.244360238E-2,1.084210887E0
8.641545125E0,9.721452105E-1,9.785634068E-1,1.777825454E-1,1.390776504E0
8.651628125E0,9.675990003E-1,1.154039372E0,2.575818363E-1,1.527875355E0
8.661710125E0,9.370209861E-1,1.238945182E0,2.405158603E-1,1.571891018E0
8.671793125E0,9.597742563E-1,1.232256114E0,2.131774959E-1,1.576409337E0
8.681875125E0,9.297879803E-1,1.110249135E0,1.634986746E-1,1.457357419E0
8.691957125E0,9.220281404E-1,9.491096659E-1,1.058951220E-1,1.327463305E0
8.702040125E0,9.424963188E-1,7.719570118E-1,4.634006113E-2,1.219165428E0
8.712122125E0,8.831809938E-1,6.297460029E-1,5.092106223E-2,1.085901308E0
8.722205125E0,8.997964418E-1,6.353075820E-1,1.400373065E-1,1.110342203E0
8.732287125E0,8.726443112E-1,6.852147371E-1,1.672256899E-1,1.122048021E0
8.742369125E0,7.792432272E-1,7.890039843E-1,1.181029388E-1,1.115211011E0
8.752452125E0,7.484523743E-1,8.814844242E-1,2.405807644E-2,1.156622038E0
8.762534125E0,8.019017726E-1,9.471322837E-1,-1.094858971E-1,1.245830317E0
8.772617125E0,8.239808589E-1,9.968450189E-1,-1.985082936E-1,1.308453282E0
8.782699125E0,8.555552387E-1,1.011484108E0,-2.741747725E-1,1.352866096E0
8.792781125E0,9.033895558E-1,9.565483475E-1,-2.391391334E-1,1.337267720E0
8.802864125E0,9.550146228E-1,7.697341928E-1,-1.946888924E-1,1.241953068E0
8.812946125E0,1.031809030E0,4.474207556E-1,-2.056383884E-1,1.143285770E0
8.823029125E0,1.058920814E0,1.158801198E-1,-2.526347995E-1,1.094790316E0
8.833111125E0,1.082685068E0,-1.456845474E-1,-2.009723103E-1,1.110774871E0
8.843193125E0,1.102821125E0,-3.260635489E-1,1.227321795E-1,1.156544448E0
8.853276125E0,1.035757654E0,-4.612456200E-1,6.419925575E-1,1.302956593E0
8.863358125E0,9.698706436E-1,-4.403035247E-1,1.098824553E0,1.530337106E0
8.873441125E0,7.836988056E-1,-2.414014211E-1,1.338387756E0,1.569630609E0
8.883523125E0,5.350944918E-1,5.357131273E-2,1.306116826E0,1.412493244E0
8.893605125E0,2.367970312E-1,5.017218009E-1,1.056168530E0,1.193017000E0
8.903688125E0,2.700536549E-2,9.119469559E-1,8.085949342E-1,1.219098974E0
8.913770125E0,-1.348660290E-1,1.239060372E0,5.132405233E-1,1.347915163E0
8.923853125E0,-3.481935060E-1,1.362658232E0,2.411210471E-1,1.426960243E0
8.933935125E0,-4.666364604E-1,1.368962992E0,-5.786419228E-2,1.447465898E0
8.944018042E0,-5.253308111E-1,1.263016415E0,-1.764293535E-1,1.379242634E0
8.954101042E0,-5.566350496E-1,1.174508573E0,-1.317867391E-1,1.306399905E0
8.964183042E0,-5.551422554E-1,1.137372614E0,3.636968136E-2,1.266144597E0
8.974266042E0,-4.721644181E-1,1.055337348E0,3.441554189E-1,1.206283179E0
8.984348042E0,-3.849455953E-1,9.453643781E-1,7.129321472E-1,1.245057896E0
8.994430042E0,-1.946602410E-1,7.646193409E-1,1.072912617E0,1.331794590E0
9.004513042E0,5.879492283E-2,5.471686998E-1,1.384271003E0,1.489649838E0
9.014595042E0,3.397512960E-1,3.236895794E-1,1.717758177E0,1.780701840E0
9.024678042E0,6.007932222E-1,8.936270446E-2,2.000127822E0,2.090322820E0
9.034760042E0,7.810973793E-1,-9.102594495E-2,2.148241157E0,2.287649210E0
9.044842042E0,7.920246559E-1,-1.025429133E-1,2.164745654E0,2.307366865E0
9.054925042E0,6.418646497E-1,6.749382555E-2,2.149317191E0,2.244127900E0
9.065007042E0,4.753113896E-1,3.555221137E-1,2.150680761E0,2.231085975E0
9.075090042E0,3.559901834E-1,6.802250156E-1,2.081750275E0,2.218810332E0
9.085172042E0,3.098609143E-1,9.899301016E-1,1.921172869E0,2.183318709E0
9.095254042E0,3.276925832E-1,1.281881579E0,1.685417666E0,2.142716855E0
9.105337042E0,3.513053942E-1,1.481970375E0,1.425957411E0,2.086385921E0
9.115419042E0,3.427111566E-1,1.545076450E0,1.203677409E0,1.988353962E0
9.125502042E0,2.940038502E-1,1.500551072E0,1.031432323E0,1.844436071E0
9.135584042E0,2.493679601E-1,1.303507799E0,8.754065359E-1,1.589859605E0
9.145666042E0,1.236580861E-1,1.011540241E0,7.999236596E-1,1.295524158E0
9.155749042E0,-1.019795340E-1,6.955593386E-1,7.141881292E-1,1.002131380E0
9.165831042E0,-2.699542522E-1,3.954571348E-1,5.019343472E-1,6.936856151E-1
9.175914042E0,-4.051781309E-1,1.252075982E-1,2.540591812E-1,4.943605243E-1
9.185996042E0,-5.813494760E-1,-8.828740150E-2,7.762164161E-2,5.931163442E-1
9.196078042E0,-7.364322531E-1,-2.172085664E-1,-2.241895571E-2,7.681241009E-1
9.206161042E0,-7.901307428E-1,-2.312260965E-1,4.993960708E-3,8.232842996E-1
9.216243042E0,-7.902178663E-1,-1.453617811E-1,1.904050760E-1,8.257290213E-1
9.226326042E0,-6.390363514E-1,-2.116662830E-2,3.100776999E-1,7.106079542E-1
9.236408042E0,-4.031181568E-1,1.362222907E-1,3.828462987E-1,5.723915174E-1
9.246490042E0,-4.177063751E-1,2.533592695E-1,4.284931724E-1,6.498276187E-1
9.256573042E0,-5.226434308E-1,3.182230175E-1,3.703192239E-1,7.152330894E-1
9.266655042E0,-6.326529461E-1,3.015496820E-1,3.223593378E-1,7.714256307E-1
9.276737042E0,-6.854761076E-1,2.411125687E-1,3.144813842E-1,7.917773082E-1
9.286820042E0,-7.973514694E-1,1.784026426E-1,3.158660048E-1,8.759955489E-1
9.296902042E0,-8.471913815E-1,1.332445961E-1,2.325730026E-1,8.885817693E-1
9.306985042E0,-8.716362512E-1,1.045195645E-1,1.427819896E-1,8.894159827E-1
9.317067042E0,-8.607165760E-1,1.313433740E-1,6.732937261E-2,8.732796519E-1
9.327149042E0,-7.648409504E-1,2.858075157E-1,-6.082566082E-4,8.164973885E-1
9.337232042E0,-5.433817506E-1,5.953816241E-1,-1.740868127E-1,8.246509707E-1
9.347314042E0,-2.240424997E-1,9.835177526E-1,-3.749516805E-1,1.076146353E0
9.357397042E0,-2.521377861E-2,1.344299729E0,-6.317602225E-1,1.485563353E0
9.367479042E0,-1.066403496E-1,1.577803608E0,-8.605724421E-1,1.800394768E0
9.377561042E0,-2.407088184E-1,1.610536029E0,-9.717459919E-1,1.896327321E0
9.387644042E0,-2.970192593E-1,1.581462796E0,-1.000148257E0,1.894608548E0
9.397726042E0,-3.803935379E-1,1.512423551E0,-8.544116695E-1,1.778241700E0
9.407809042E0,-3.880913973E-1,1.330416100E0,-6.981962867E-1,1.551805396E0
9.417891042E0,-3.308892560E-1,1.128983614E0,-6.033918710E-1,1.322185105E0
9.427973042E0,-2.026837903E-1,1.031117304E0,-6.047763455E-1,1.212451253E0
9.438056042E0,-1.193814325E-1,9.483827108E-1,-6.029853433E-1,1.130165040E0
9.448138042E0,-6.322711229E-2,8.668754482E-1,-5.609972917E-1,1.034499237E0
9.458221042E0,2.708664179E-2,7.274827972E-1,-3.462908951E-1,8.061527712E-1
9.468303042E0,9.193986475E-2,5.298963171E-1,-2.762633979E-2,5.385222932E-1
9.478385042E0,1.389380300E-1,3.710578734E-1,1.848667395E-1,4.372224067E-1
9.488468042E0,2.136414725E-1,3.369829318E-1,1.034401685E-1,4.121893297E-1
9.498550042E0,2.832186610E-1,4.663502392E-1,-1.651996297E-1,5.700756732E-1
9.508633042E0,2.437721747E-1,7.424864602E-1,-4.795185343E-1,9.168691518E-1
9.518715042E0,2.082368910E-1,9.722147924E-1,-7.594772995E-1,1.251147463E0
9.528797042E0,2.344581449E-1,1.104511847E0,-1.032154454E0,1.529790789E0
9.538880042E0,3.522894806E-1,1.104850986E0,-1.164064131E0,1.643121687E0
9.548962042E0,5.152636600E-1,1.075323131E0,-1.119569889E0,1.635620131E0
9.559045042E0,6.879249215E-1,1.099182695E0,-9.151442134E-1,1.587114434E0
9.569127042E0,8.514563406E-1,1.137457399E0,-6.521002737E-1,1.563336816E0
9.579209042E0,1.045295048E0,1.171121866E0,-3.528690127E-1,1.608938999E0
9.589292042E0,1.258059438E0,1.212503488E0,-2.627044357E-2,1.747446249E0
9.599374042E0,1.412682039E0,1.311619933E0,2.539159244E-1,1.944348397E0
9.609457042E0,1.581277147E0,1.487867292E0,4.217676318E-1,2.211803434E0
9.619539042E0,1.765832230E0,1.742540139E0,5.229076519E-1,2.535358360E0
9.629621042E0,1.905249147E0,2.015094355E0,6.306619692E-1,2.843996148E0
9.639704042E0,2.050943050E0,2.214526801E0,8.129951102E-1,3.125933044E0
9.649786042E0,2.188108789E0,2.380319631E0,9.841116835E-1,3.379677118E0
9.659868042E0,2.255888543E0,2.592332069E0,1.035794346E0,3.589162660E0
9.669951042E0,2.308262054E0,2.735435656E0,1.060304266E0,3.732951523E0
9.680033042E0,2.385984414E0,2.669226463E0,1.094451420E0,3.743730151E0
9.690116042E0,2.569673524E0,2.437099603E0,1.154817344E0,3.725087864E0
9.700198042E0,2.741548335E0,2.072949923E0,1.204515826E0,3.641986688E0
9.710280042E0,2.687263370E0,1.711623278E0,1.172908775E0,3.395107312E0
9.720363042E0,2.505388066E0,1.417942194E0,9.091770568E-1,3.018962131E0
9.730445042E0,2.459589749E0,1.119883300E0,7.275497478E-1,2.798758470E0
9.740528042E0,2.670850820E0,6.178939891E-1,6.918646292E-1,2.827351013E0
9.750610042E0,2.862711414E0,3.434362113E-3,8.313150215E-1,2.980975193E0
9.760692042E0,2.941386285E0,-4.694317219E-1,9.606238568E-1,3.129683309E0
9.770775042E0,2.885539529E0,-7.271401504E-1,1.114321867E0,3.177543767E0
9.780857042E0,2.639324972E0,-7.786605522E-1,1.251809788E0,3.023140140E0
9.790940042E0,2.187458578E0,-6.606190091E-1,1.228881393E0,2.594521533E0
9.801022042E0,1.643479242E0,-3.504052153E-1,9.331222089E-1,1.922114693E0
9.811104042E0,1.122011687E0,-5.667062938E-2,6.046307498E-1,1.275813516E0
9.821187042E0,7.293851888E-1,9.099393144E-2,2.287978940E-1,7.698253864E-1
9.831269042E0,4.320209438E-1,5.168295443E-2,-4.718176782E-2,4.376520797E-1
9.841351042E0,2.091315150E-1,-2.331524616E-1,-4.785726741E-2,3.168380959E-1
9.851434042E0,2.751465797E-2,-7.586193667E-1,7.920229018E-2,7.632387587E-1
9.861516042E0,-1.932826370E-1,-1.557484388E0,3.704114637E-1,1.612550914E0
9.871599042E0,-4.381804007E-1,-2.444046534E0,6.350210685E-1,2.562931385E0
9.881681042E0,-6.250989282E-1,-3.307626930E0,8.822933865E-1,3.479883073E0
9.891763042E0,-9.098478055E-1,-4.169266489E0,9.821419027E-1,4.378950651E0
9.901846042E0,-1.232581950E0,-4.742147443E0,1.127054764E0,5.027670740E0
9.911928042E0,-1.665589904E0,-5.050786874E0,1.021743925E0,5.415588465E0
9.922011042E0,-2.064412111E0,-5.018719574E0,6.266414237E-1,5.462785278E0
9.932093042E0,-2.350715178E0,-4.763883882E0,2.010389686E-2,5.312330530E0
9.942175042E0,-2.470599471E0,-4.408337210E0,-8.098259193E-1,5.117921133E0
9.952257625E0,-2.393023292E0,-4.060994766E0,-1.470625023E0,4.937709684E0
9.962339625E0,-2.303500081E0,-3.831485997E0,-1.892353990E0,4.854626782E0
9.972422625E0,-2.088401483E0,-3.744189991E0,-2.140271256E0,4.791778427E0
9.982504625E0,-1.757784707E0,-3.692730108E0,-2.142618182E0,4.617020186E0
9.992586625E0,-1.419432065E0,-3.671353272E0,-2.041481378E0,4.434102891E0
1.000266962E1,-1.173051447E0,-3.614324208E0,-1.912474113E0,4.254050589E0
1.001275162E1,-1.103312291E0,-3.537626281E0,-1.760481443E0,4.102608027E0
1.002283363E1,-1.128286918E0,-3.488692102E0,-1.640276138E0,4.016778531E0
1.003291663E1,-1.111521197E0,-3.492565590E0,-1.479245134E0,3.952424565E0
1.004299863E1,-1.120839905E0,-3.538041433E0,-1.349211390E0,3.948973367E0
1.005308163E1,-1.033902918E0,-3.686929962E0,-1.259712446E0,4.031039970E0
1.006316363E1,-9.081971365E-1,-3.952422497E0,-1.036555799E0,4.185799034E0
1.007324563E1,-8.869787604E-1,-4.146445099E0,-8.167519462E-1,4.318196617E0
1.008332862E1,-9.659892619E-1,-4.074839804E0,-7.566829151E-1,4.255587352E0
1.009341062E1,-1.198017304E0,-3.834892000E0,-8.169989911E-1,4.099893836E0
1.010349262E1,-1.538367940E0,-3.597786528E0,-9.644409192E-1,4.029986366E0
1.011357563E1,-1.681700152E0,-3.417221001E0,-1.098215565E0,3.963785085E0
1.012365763E1,-1.717452368E0,-3.326295043E0,-1.141684644E0,3.913735450E0
1.013374063E1,-1.891970120E0,-3.358882746E0,-1.123617332E0,4.015490025E0
1.014382263E1,-2.144531245E0,-3.467635987E0,-1.225819937E0,4.257481428E0
1.015390463E1,-2.382404163E0,-3.629988022E0,-1.440661258E0,4.574731413E0
1.016398762E1,-2.610954282E0,-3.761676967E0,-1.746377959E0,4.900727684E0
1.017406962E1,-2.704103351E0,-3.790872407E0,-1.979437742E0,5.059749234E0
1.018415262E1,-2.557774440E0,-3.715375205E0,-2.042788230E0,4.951687263E0
1.019423462E1,-2.258055521E0,-3.553734190E0,-1.928751445E0,4.631190298E0
1.020431663E1,-1.911036136E0,-3.337899720E0,-1.733894738E0,4.219007539E0
1.021439963E1,-1.642374119E0,-3.042469734E0,-1.509097947E0,3.772451649E0
1.022448163E1,-1.461958280E0,-2.718809098E0,-1.240813075E0,3.326989932E0
1.023456363E1,-1.096948766E0,-2.422065535E0,-9.254657185E-1,2.815348086E0
1.024464663E1,-7.114535326E-1,-2.062700046E0,-7.502816758E-1,2.307340504E0
1.025472862E1,-5.015437531E-1,-1.588025711E0,-6.663615596E-1,1.793713891E0
1.026481162E1,-4.375260973E-1,-1.067122411E0,-5.252053884E-1,1.267288454E0
1.027489362E1,-3.416428703E-1,-6.662580639E-1,-2.945578739E-1,8.046017646E-1
1.028497562E1,-1.878359556E-1,-3.394758922E-1,-1.061024058E-1,4.022237538E-1
1.029505863E1,-1.572398150E-1,-4.937557004E-2,1.205900520E-2,1.652504945E-1
1.030514063E1,-3.081155205E-1,2.566720826E-1,8.073981553E-2,4.090655813E-1
1.031522363E1,-3.750433356E-1,4.548492777E-1,6.209187537E-2,5.927906628E-1
1.032530563E1,-2.824918520E-1,5.328047222E-1,4.484580517E-2,6.047261072E-1
1.033538763E1,-6.259327412E-2,4.912792584E-1,2.005150580E-1,5.343028319E-1
1.034547062E1,2.024902475E-1,4.500564612E-1,5.028731176E-1,7.045810748E-1
1.035555262E1,4.003880918E-1,5.377486892E-1,9.368166259E-1,1.152002460E0
1.036563462E1,4.490322483E-1,6.192898656E-1,1.501650057E0,1.685260452E0
1.037571763E1,5.316756248E-1,5.983340295E-1,2.065243877E0,2.214929989E0
1.038579963E1,7.887969929E-1,5.731260981E-1,2.267893754E0,2.468606145E0
1.039588263E1,1.212047113E0,6.324423002E-1,1.890685779E0,2.333181130E0
1.040596463E1,1.548439769E0,7.120799156E-1,1.011942822E0,1.982107918E0
1.041604663E1,1.826560242E0,8.530754346E-1,1.063760555E-1,2.018756023E0
1.042612963E1,2.188801684E0,8.850031324E-1,-4.090013328E-1,2.396114656E0
1.043621162E1,2.615106390E0,6.899623838E-1,-4.975533208E-1,2.749979787E0
1.044629462E1,2.905655705E0,4.595468576E-1,-2.595476702E-1,2.953198839E0
1.045637662E1,3.082294242E0,2.661485919E-1,1.242641500E-1,3.096258137E0
1.046645863E1,3.105401269E0,9.025382012E-2,5.195403135E-1,3.149854748E0
1.047654163E1,3.026260960E0,-9.582475483E-2,8.501664448E-1,3.144872138E0
1.048662363E1,2.858820677E0,-1.535417435E-1,1.033236920E0,3.043683502E0
1.049670563E1,2.784068702E0,-7.186608106E-2,9.789268112E-1,2.952033363E0
1.050678863E1,3.066934776E0,-1.395879480E-1,8.270792985E-1,3.179565046E0
1.051687063E1,3.451051821E0,-2.673656899E-1,7.536371005E-1,3.542486692E0
1.052695362E1,3.695439708E0,-1.918329661E-1,8.733639573E-1,3.802083524E0
1.053703562E1,3.788424470E0,-5.397623241E-2,1.117559617E0,3.950191501E0
1.054711762E1,3.569006533E0,2.605969530E-1,1.305984972E0,3.809372015E0
1.055720063E1,3.029232515E0,7.639670840E-1,1.429444545E0,3.435579578E0
1.056728263E1,2.431357053E0,1.236572382E0,1.546146929E0,3.135471049E0
1.057736463E1,1.697150250E0,1.598436678E0,1.729661354E0,2.902937682E0
1.058744763E1,1.008995533E0,1.936833759E0,1.968546426E0,2.940165306E0
1.059752963E1,2.923724771E-1,2.171387214E0,2.174996261E0,3.087233848E0
1.060761263E1,-5.190590876E-1,2.346200543E0,2.287929823E0,3.317936437E0
1.061769462E1,-1.225925480E0,2.394807277E0,2.317240161E0,3.550717835E0
1.062777662E1,-1.791871635E0,2.399912774E0,2.155844876E0,3.690264544E0
1.063785962E1,-2.191082683E0,2.359601192E0,1.857959059E0,3.717603122E0
1.064794163E1,-2.359759067E0,2.218390057E0,1.426866507E0,3.539161670E0
1.065802363E1,-2.353316604E0,2.030346817E0,1.050614698E0,3.280883796E0
1.066810663E1,-2.170458384E0,1.732618291E0,9.169182587E-1,2.924652942E0
1.067818863E1,-1.817687092E0,1.429400106E0,9.719345646E-1,2.508351615E0
1.068827163E1,-1.362866685E0,1.124056166E0,1.082755089E0,2.072019896E0
1.069835363E1,-9.260592109E-1,9.229745123E-1,1.082427060E0,1.697385034E0
1.070843562E1,-5.216552514E-1,8.000075671E-1,1.000194158E0,1.382940585E0
1.071851862E1,-1.330563158E-1,6.612657112E-1,8.032540874E-1,1.048901069E0
1.072860062E1,1.645640373E-1,6.489333487E-1,5.327806024E-1,8.555997801E-1
1.073868263E1,2.986599880E-1,7.659943137E-1,3.278017800E-1,8.850983471E-1
1.074876563E1,2.921140301E-1,9.475717020E-1,2.837612826E-1,1.031379272E0
1.075884763E1,2.851061422E-1,1.206186449E0,4.861987589E-1,1.331375415E0
1.076893063E1,2.865761322E-1,1.504364626E0,8.191304474E-1,1.736724935E0
1.077901263E1,2.036240226E-1,1.667351085E0,1.240176752E0,2.087956120E0
1.078909463E1,-4.418974757E-2,1.642767929E0,1.655682089E0,2.332792829E0
1.079917762E1,-3.536828721E-1,1.459876963E0,1.909064455E0,2.429168462E0
1.080925962E1,-7.138210702E-1,1.197886326E0,2.016215705E0,2.451448131E0
1.081934162E1,-9.852184153E-1,1.006355515E0,2.104730856E0,2.532449155E0
1.082942463E1,-1.190766172E0,8.410617453E-1,2.209769068E0,2.647336070E0
1.083950663E1,-1.317905690E0,6.750166082E-1,2.234532757E0,2.680608042E0
1.084958963E1,-1.198902572E0,6.185269502E-1,1.941626430E0,2.364287664E0
1.085967163E1,-1.007482858E0,6.644720319E-1,1.498366699E0,1.923966620E0
1.086975363E1,-8.695879716E-1,7.229120287E-1,1.191924505E0,1.643006107E0
1.087983662E1,-8.346245456E-1,6.883254558E-1,1.089815163E0,1.535606445E0
1.088991862E1,-8.419429207E-1,6.218358895E-1,1.148948493E0,1.554229840E0
1.090000062E1,-8.995736629E-1,5.851291162E-1,1.445384785E0,1.800207220E0
1.091008362E1,-9.291401088E-1,6.539523062E-1,1.853839550E0,2.174321972E0
1.092016563E1,-8.582244927E-1,7.705475405E-1,2.236103758E0,2.516039111E0
1.093024863E1,-7.600982738E-1,8.725077787E-1,2.629820323E0,2.873147080E0
1.094033063E1,-5.957558459E-1,9.828573096E-1,2.913896770E0,3.132367780E0
1.095041204E1,-3.309798878E-1,1.205028993E0,3.034203233E0,3.281467936E0
1.096049504E1,-1.003534234E-1,1.373886640E0,2.949391124E0,3.255233219E0
1.097057704E1,8.418002486E-2,1.460118746E0,2.738629990E0,3.104694389E0
1.098065904E1,2.523172957E-1,1.548304406E0,2.415084690E0,2.879851491E0
1.099074204E1,4.070603496E-1,1.729095051E0,2.023221254E0,2.692376658E0
1.100082404E1,4.236149865E-1,1.890724955E0,1.635593833E0,2.535637534E0
1.101090704E1,3.961605549E-1,1.975637344E0,1.241547486E0,2.366754372E0
1.102098904E1,4.022287953E-1,1.998989662E0,9.480559976E-1,2.248679134E0
1.103107104E1,4.217351067E-1,2.016810221E0,8.401488487E-1,2.225136862E0
1.104115404E1,4.904229337E-1,2.088404991E0,8.105606219E-1,2.293241937E0
1.105123604E1,6.171771204E-1,2.099163575E0,8.635856585E-1,2.352270287E0
1.106131804E1,7.177790505E-1,1.988537764E0,1.091468025E0,2.379241823E0
1.107140104E1,7.235286176E-1,1.849548278E0,1.378716294E0,2.417680937E0
1.108148304E1,7.000637412E-1,1.695606585E0,1.613039369E0,2.442758060E0
1.109156604E1,6.063667881E-1,1.602493769E0,1.643667523E0,2.374301979E0
1.110164804E1,4.535404515E-1,1.598724654E0,1.548389044E0,2.271371412E0
1.111173004E1,3.056053108E-1,1.517482270E0,1.433402233E0,2.109689315E0
1.112181304E1,2.999990004E-1,1.372833557E0,1.368234283E0,1.961309876E0
1.113189504E1,3.999308395E-1,1.207176383E0,1.407149988E0,1.896652468E0
1.114197704E1,4.729812741E-1,1.050262257E0,1.312444391E0,1.746216588E0
1.115206004E1,4.285354185E-1,8.848746398E-1,1.151724605E0,1.514303569E0
1.116214204E1,3.488185734E-1,7.068140593E-1,1.097970129E0,1.351591253E0
1.117222404E1,2.894067693E-1,5.227831793E-1,1.139162447E0,1.286370713E0
1.118230704E1,2.785490745E-1,2.937892574E-1,1.250801728E0,1.314688814E0
1.119238904E1,2.851067269E-1,1.212607276E-1,1.377017971E0,1.411441993E0
1.120247204E1,3.271294963E-1,6.814637482E-2,1.587025983E0,1.621822773E0
1.121255404E1,3.086704212E-1,1.201716837E-1,1.848002421E0,1.877453490E0
1.122263604E1,2.139858735E-1,2.149471557E-1,2.057840279E0,2.080071837E0
1.123271904E1,1.680665195E-1,3.433347622E-1,2.134803232E0,2.168757698E0
1.124280104E1,1.537887883E-1,4.154054958E-1,2.164386342E0,2.209248958E0
1.125288304E1,1.650341535E-1,5.205179679E-1,2.100595559E0,2.170409392E0
1.126296604E1,7.558169425E-2,6.280473867E-1,2.053142626E0,2.148383289E0
1.127304804E1,-4.807405293E-2,7.311905167E-1,1.969814541E0,2.101694557E0
1.128313004E1,-2.099360919E-1,7.472063327E-1,1.856453547E0,2.012165560E0
1.129321304E1,-2.782736707E-1,6.393766594E-1,1.812527802E0,1.942033929E0
1.130329504E1,-2.210194892E-1,3.828864983E-1,1.808512226E0,1.861764797E0
1.131337804E1,-9.121656418E-3,6.787857234E-2,1.955817037E0,1.957015838E0
1.132346004E1,1.820103747E-1,-2.836914083E-1,2.165292369E0,2.191369351E0
1.133354204E1,4.007371706E-1,-6.720611331E-1,2.393428942E0,2.518086287E0
1.134362504E1,6.493596107E-1,-1.080235085E0,2.592973509E0,2.883069087E0
1.135370704E1,9.122229445E-1,-1.416102076E0,2.780606566E0,3.251041166E0
1.136378904E1,1.014370294E0,-1.474692931E0,2.889320338E0,3.398799545E0
1.137387204E1,1.009620600E0,-1.230864038E0,2.816966307E0,3.235685277E0
1.138395404E1,8.073390985E-1,-6.589081138E-1,2.461450625E0,2.672956323E0
1.139403604E1,5.657865268E-1,1.735453606E-3,2.031098477E0,2.108430323E0
1.140411904E1,4.705804074E-1,4.137785080E-1,1.709218757E0,1.820463494E0
1.141420104E1,5.345951396E-1,4.694320142E-1,1.583624804E0,1.736095014E0
1.142428404E1,6.242007959E-1,3.373495522E-1,1.597287847E0,1.747787121E0
1.143436604E1,5.144444650E-1,1.887671247E-1,1.754636566E0,1.838215334E0
1.144444804E1,1.420037252E-1,6.376710266E-2,1.890894232E0,1.897290779E0
1.145453104E1,-3.242930120E-1,-1.199702471E-2,1.944440987E0,1.971334735E0
1.146461304E1,-6.575422043E-1,-1.310863888E-1,1.993667087E0,2.103391035E0
1.147469504E1,-8.122080749E-1,-2.905455145E-1,2.139530560E0,2.306878772E0
1.148477804E1,-9.498135245E-1,-4.176788932E-1,2.370719965E0,2.587839744E0
1.149486004E1,-1.118268299E0,-4.683526182E-1,2.512074357E0,2.789336075E0
1.150494204E1,-1.252421553E0,-4.267412004E-1,2.624219860E0,2.938910967E0
1.151502504E1,-1.293615187E0,-3.522842181E-1,2.735576574E0,3.046460834E0
1.152510704E1,-1.333716561E0,-2.893284166E-1,2.824435833E0,3.136869231E0
1.153519004E1,-1.387061879E0,-3.220272160E-1,2.824431447E0,3.163076854E0
1.154527204E1,-1.435625344E0,-3.832180354E-1,2.763167538E0,3.137350958E0
1.155535404E1,-1.500786715E0,-5.583611476E-1,2.732550055E0,3.167168726E0
1.156543704E1,-1.605242545E0,-8.224784169E-1,2.725074974E0,3.267921050E0
1.157551904E1,-1.735350695E0,-1.119302379E0,2.794581996E0,3.474761630E0
1.158560104E1,-1.826480720E0,-1.359058979E0,2.949902170E0,3.726257632E0
1.159568404E1,-1.844638079E0,-1.419130933E0,3.218321528E0,3.971676687E0
1.160576604E1,-1.918585476E0,-1.380192278E0,3.493714276E0,4.218049359E0
1.161584804E1,-2.029119487E0,-1.278622634E0,3.609231284E0,4.333445764E0
1.162593104E1,-2.084600208E0,-1.153638691E0,3.707861533E0,4.407343576E0
1.163601304E1,-2.030719285E0,-1.034398177E0,3.800563290E0,4.431487529E0
1.164609504E1,-1.863079028E0,-9.253478971E-1,3.945826253E0,4.460591554E0
1.165617804E1,-1.631221139E0,-8.903961655E-1,4.130235155E0,4.529076084E0
1.166626004E1,-1.337907261E0,-8.949786285E-1,4.305004923E0,4.596090727E0
1.167634304E1,-1.155057811E0,-8.706609356E-1,4.457655843E0,4.686459711E0
1.168642504E1,-1.132868797E0,-8.359354913E-1,4.561329900E0,4.773668433E0
1.169650704E1,-1.132420315E0,-8.697233346E-1,4.640253278E0,4.854971157E0
1.170659004E1,-1.207389221E0,-9.319008717E-1,4.750864472E0,4.989683476E0
1.171667204E1,-1.298538542E0,-9.436087516E-1,4.860733654E0,5.118918975E0
1.172675404E1,-1.428923265E0,-8.713248870E-1,4.885986609E0,5.164677521E0
1.173683704E1,-1.559431365E0,-8.116713005E-1,4.790905620E0,5.103274747E0
1.174691904E1,-1.560106133E0,-7.831102833E-1,4.603930374E0,4.923755452E0
1.175700104E1,-1.449487338E0,-8.973441195E-1,4.336263553E0,4.659337036E0
1.176708404E1,-1.403239371E0,-1.072053368E0,4.084423975E0,4.449820037E0
1.177716604E1,-1.315303679E0,-1.329613570E0,3.880420468E0,4.307616397E0
1.178724904E1,-1.166731192E0,-1.568895668E0,3.827880896E0,4.298298204E0
1.179733104E1,-1.147872752E0,-1.723448395E0,4.070508186E0,4.566938046E0
1.180741304E1,-1.230227861E0,-1.786989503E0,4.475255962E0,4.973400044E0
1.181749604E1,-1.249956951E0,-1.848015138E0,4.815628232E0,5.307337148E0
1.182757804E1,-1.181085522E0,-1.909905869E0,4.930873929E0,5.418138162E0
1.183766004E1,-1.032308967E0,-1.931696688E0,4.886761365E0,5.355142438E0
1.184774304E1,-8.615071195E-1,-1.898994673E0,4.768503767E0,5.204517601E0
1.185782504E1,-6.933359349E-1,-1.810530978E0,4.725251328E0,5.107517720E0
1.186790704E1,-5.042504293E-1,-1.770131688E0,4.681938663E0,5.030724037E0
1.187799004E1,-2.896418273E-1,-1.833921010E0,4.600722007E0,4.961229852E0
1.188807204E1,-2.155809939E-1,-1.865155666E0,4.363012226E0,4.749858577E0
1.189815404E1,-2.232952255E-1,-1.832776417E0,4.040723639E0,4.442564314E0
1.190823704E1,-2.251330054E-1,-1.828348905E0,3.693341727E0,4.127265160E0
1.191831904E1,-3.574876553E-1,-1.698699762E0,3.309149837E0,3.736823645E0
1.192840204E1,-4.887219787E-1,-1.623703959E0,2.933011318E0,3.387893020E0
1.193848404E1,-6.115579462E-1,-1.625285923E0,2.724560419E0,3.230911161E0
1.194856638E1,-7.591381609E-1,-1.628327352E0,2.569199899E0,3.135048459E0
1.195864938E1,-7.369011998E-1,-1.529558524E0,2.372649107E0,2.917539450E0
1.196873138E1,-6.924804872E-1,-1.395750257E0,2.213769148E0,2.707105806E0
1.197881338E1,-6.517370886E-1,-1.326799890E0,2.080853312E0,2.552471290E0
1.198889637E1,-6.640723747E-1,-1.267714653E0,1.839333923E0,2.330502487E0
1.199897837E1,-6.593548411E-1,-1.259061066E0,1.674600463E0,2.196422155E0
1.200906037E1,-7.544510329E-1,-1.252919443E0,1.651544892E0,2.206038082E0
1.201914338E1,-9.273216248E-1,-1.241519419E0,1.584146083E0,2.216035802E0
1.202922538E1,-1.016178837E0,-1.263430105E0,1.378942874E0,2.128463885E0
1.203930738E1,-1.053675862E0,-1.299290494E0,1.158430338E0,2.034784868E0
1.204939038E1,-1.014272645E0,-1.352707733E0,1.037823037E0,1.983845726E0
1.205947238E1,-8.795212215E-1,-1.271565629E0,9.840804009E-1,1.832716826E0
1.206955438E1,-7.418333262E-1,-1.115887313E0,9.383493273E-1,1.635854712E0
1.207963737E1,-6.603389275E-1,-9.557119033E-1,9.947961545E-1,1.529396002E0
1.208971937E1,-5.713232553E-1,-8.400115854E-1,1.081738112E0,1.483976775E0
1.209980237E1,-5.459404922E-1,-7.317889792E-1,1.112637430E0,1.439280439E0
1.210988438E1,-5.447909296E-1,-5.848575130E-1,1.178910942E0,1.424319654E0
1.211996638E1,-5.675149637E-1,-4.424041370E-1,1.380028117E0,1.556365079E0
1.213004938E1,-6.173958063E-1,-4.178402764E-1,1.652329296E0,1.812721760E0
1.214013138E1,-6.580058885E-1,-3.998831847E-1,1.822961866E0,1.978905828E0
1.215021338E1,-6.751750678E-1,-2.832578373E-1,1.818293741E0,1.960175631E0
1.216029637E1,-6.329710346E-1,-3.306161910E-2,1.661419377E0,1.778218138E0
1.217037837E1,-5.565105039E-1,1.946529320E-1,1.443305077E0,1.559077692E0
1.218046037E1,-4.123041326E-1,4.006181797E-1,1.188536044E0,1.320267985E0
1.219054337E1,-2.587433857E-1,5.585228232E-1,9.705933595E-1,1.149324738E0
1.220062538E1,-2.028779179E-1,5.887058580E-1,7.765426907E-1,9.953655546E-1
1.221070738E1,-1.945380342E-1,5.792254749E-1,6.155106640E-1,8.672949758E-1
1.222079038E1,-1.208537614E-1,5.258301634E-1,5.005947500E-1,7.360014240E-1
1.223087238E1,6.506079912E-2,4.622601119E-1,5.025184840E-1,6.858878519E-1
1.224095438E1,1.496308333E-1,4.058564079E-1,5.627380809E-1,7.097766957E-1
1.225103737E1,2.268982798E-1,4.472859773E-1,5.572425753E-1,7.497111861E-1
1.226111937E1,2.410444486E-1,6.447368020E-1,3.581115532E-1,7.759071172E-1
1.227120237E1,2.213405013E-1,8.774518919E-1,1.518425426E-1,9.175890136E-1
1.228128437E1,1.076466554E-1,1.025732018E0,3.698451608E-2,1.032028018E0
1.229136638E1,-5.821838737E-2,9.768735614E-1,-5.390431166E-2,9.800903073E-1
1.230144938E1,-1.661041939E-1,8.087848225E-1,-1.123285210E-1,8.332713778E-1
1.231153138E1,-1.573930120E-1,6.067907113E-1,-1.774755666E-1,6.515098651E-1
1.232161338E1,6.439538598E-2,2.596307006E-1,-2.686628947E-1,3.791234857E-1
1.233169638E1,2.664494312E-1,-1.981060052E-1,-4.539591122E-1,5.624234741E-1
1.234177837E1,4.473388946E-1,-6.832018331E-1,-7.107118133E-1,1.082583998E0
1.235186037E1,5.459171033E-1,-1.085691414E0,-9.484897149E-1,1.541552487E0
1.236194337E1,7.690737498E-1,-1.338841646E0,-1.199500158E0,1.955191043E0
1.237202537E1,9.920467937E-1,-1.512879634E0,-1.235132213E0,2.190550892E0
1.238210738E1,9.497445273E-1,-1.796632731E0,-1.129035362E0,2.324784868E0
1.239219038E1,6.873822999E-1,-1.947027795E0,-7.895811045E-1,2.210622080E0
1.240227238E1,3.235521698E-1,-1.808240331E0,-3.793077099E-1,1.875711449E0
1.241235438E1,-3.997975230E-2,-1.508978080E0,-7.273234606E-2,1.511258819E0
1.242243738E1,-3.509873056E-1,-1.163834774E0,6.354753971E-3,1.215624881E0
1.243251937E1,-5.840304244E-1,-8.984249774E-1,-3.580600977E-2,1.072166520E0
1.244260137E1,-7.563233113E-1,-6.889060843E-1,-1.985691047E-1,1.042135420E0
1.245268437E1,-8.002744925E-1,-4.985137260E-1,-3.942262959E-1,1.021944015E0
1.246276637E1,-6.573878378E-1,-5.239061370E-1,-6.743029556E-1,1.077645993E0
1.247284938E1,-5.615426177E-1,-8.044537899E-1,-1.052792055E0,1.439043823E0
1.248293138E1,-3.990666211E-1,-1.227798927E0,-1.446266107E0,1.938667075E0
1.249301338E1,-1.837657088E-1,-1.761453981E0,-1.714843632E0,2.465193430E0
1.250309638E1,1.360079902E-1,-2.512560260E0,-1.612405092E0,2.988529306E0
1.251317838E1,4.023141646E-1,-3.290021256E0,-1.220574985E0,3.532123985E0
1.252326037E1,4.674556553E-1,-3.755912197E0,-7.705370155E-1,3.862527477E0
1.253334337E1,3.750825119E-1,-3.833596550E0,-4.160478124E-1,3.874305767E0
1.254342537E1,2.242366272E-1,-3.517388483E0,-2.832616380E-1,3.535893233E0
1.255350737E1,3.105397761E-2,-2.994941518E0,-2.898456028E-1,3.009094469E0
1.256359038E1,-9.673399687E-2,-2.413100876E0,-3.884445691E-1,2.446079003E0
1.257367238E1,-1.692920959E-1,-1.808822421E0,-5.357072800E-1,1.894064586E0
1.258375438E1,-2.837098271E-1,-1.191752012E0,-7.768388522E-1,1.450600816E0
1.259383738E1,-4.126882946E-1,-7.396479294E-1,-9.667318583E-1,1.285286417E0
1.260391938E1,-5.507790631E-1,-4.498784865E-1,-1.107876920E0,1.316487561E0
1.261400137E1,-6.224127173E-1,-3.383027945E-1,-1.126086319E0,1.330382189E0
1.262408437E1,-7.684510213E-1,-3.903071997E-1,-1.125527617E0,1.417627984E0
1.263416637E1,-9.512455076E-1,-4.899816151E-1,-1.101649050E0,1.535767114E0
1.264424837E1,-1.018715360E0,-5.892825396E-1,-1.118816768E0,1.623818295E0
1.265433138E1,-9.642198944E-1,-5.253888448E-1,-1.254951935E0,1.667530450E0
1.266441338E1,-8.614498168E-1,-3.061628428E-1,-1.395082505E0,1.667958833E0
1.267449538E1,-7.593340427E-1,-5.781989962E-2,-1.587647104E0,1.760839191E0
1.268457838E1,-6.379394138E-1,2.034158617E-1,-1.795932527E0,1.916694641E0
1.269466038E1,-4.644700670E-1,4.087341151E-1,-1.881736323E0,1.980840127E0
1.270474238E1,-2.489627481E-1,5.695800541E-1,-1.716396068E0,1.825491537E0
1.271482537E1,7.638802528E-3,7.161517704E-1,-1.339764336E0,1.519177470E0
1.272490737E1,1.836090034E-1,8.358901754E-1,-9.674183214E-1,1.291635730E0
1.273499038E1,2.164136374E-1,9.039861180E-1,-7.004441026E-1,1.163893339E0
1.274507238E1,1.051557416E-1,8.929133919E-1,-4.788390148E-1,1.018645600E0
1.275515438E1,-5.707057893E-2,8.773546819E-1,-3.205101559E-1,9.358071644E-1
1.276523738E1,-2.237401986E-1,9.968023342E-1,-3.384801114E-1,1.076217151E0
1.277531938E1,-2.440598577E-1,1.231516441E0,-4.634108439E-1,1.338262892E0
1.278540138E1,-2.524821872E-1,1.472919324E0,-5.766638097E-1,1.601805150E0
1.279548437E1,-2.102898484E-1,1.652801604E0,-6.218592784E-1,1.778393636E0
1.280556637E1,-1.511838537E-1,1.768376500E0,-5.621510205E-1,1.861726557E0
1.281564837E1,-9.670476079E-2,1.889439153E0,-3.507680351E-1,1.924154447E0
1.282573138E1,9.762862086E-2,2.022191413E0,-1.393297935E-1,2.029335421E0
1.283581338E1,2.592936087E-1,2.127006262E0,-2.732403874E-2,2.142926835E0
1.284589538E1,3.443893075E-1,2.168303977E0,2.405573756E-2,2.195614905E0
1.285597838E1,3.438478553E-1,2.102515492E0,5.431010842E-2,2.131138740E0
1.286606038E1,2.975542796E-1,1.986449138E0,4.733057946E-2,2.009168712E0
1.287614238E1,3.072173882E-1,1.945034479E0,-1.345415086E-2,1.969193404E0
1.288622537E1,3.891257697E-1,1.919651424E0,-1.722031322E-1,1.966248807E0
1.289630737E1,3.929229516E-1,1.872687757E0,-3.529826680E-1,1.945750407E0
1.290638937E1,3.957290304E-1,1.898240966E0,-5.270566168E-1,2.009405113E0
1.291647238E1,5.556866312E-1,2.085145461E0,-4.193251768E-1,2.198284064E0
1.292655438E1,7.593597704E-1,2.284779343E0,1.537583828E-2,2.407712675E0
1.293663638E1,1.036219584E0,2.445848792E0,4.772859943E-1,2.698838502E0
1.294671938E1,1.396839008E0,2.534315703E0,8.506394845E-1,3.016206696E0
1.295680138E1,1.688469474E0,2.498964899E0,1.006020762E0,3.179281759E0
1.296688338E1,1.789737402E0,2.460921160E0,8.906660146E-1,3.170580211E0
1.297696637E1,1.861258205E0,2.449389281E0,6.631631327E-1,3.146994645E0
1.298704837E1,1.966370677E0,2.503938248E0,5.095918608E-1,3.224283526E0
1.299713037E1,2.027697444E0,2.548035025E0,4.649881303E-1,3.289415355E0
1.300721337E1,1.998285949E0,2.473444726E0,4.142927706E-1,3.206667125E0
1.301729538E1,1.845426868E0,2.280758798E0,3.814647478E-1,2.958542948E0
1.302737738E1,1.615346534E0,2.029774375E0,2.839162338E-1,2.609585573E0
1.303746038E1,1.544876475E0,1.875083361E0,2.619687098E-1,2.443605643E0
1.304754238E1,1.500079787E0,1.848292150E0,3.602174279E-1,2.407525666E0
1.305762438E1,1.381782428E0,1.856376803E0,4.401558825E-1,2.355672879E0
1.306770737E1,1.323657596E0,1.863645477E0,5.083928892E-1,2.341731672E0
1.307778937E1,1.267709098E0,1.866440007E0,6.287458366E-1,2.342222445E0
1.308787237E1,1.256815150E0,1.779633267E0,7.621696499E-1,2.308155424E0
1.309795437E1,1.278446340E0,1.551476812E0,7.718628716E-1,2.153433917E0
1.310803638E1,1.311803536E0,1.196526556E0,6.913815030E-1,1.905390432E0
1.311811938E1,1.396259549E0,7.883739468E-1,8.322672406E-1,1.806583230E0
1.312820138E1,1.505493724E0,4.796387677E-1,1.234474986E0,2.005116752E0
1.313828338E1,1.469711103E0,3.292795175E-1,1.616208121E0,2.209209002E0
1.314836638E1,1.311048076E0,2.313842636E-1,1.897291671E0,2.317779415E0
1.315844837E1,1.166662195E0,1.906477354E-1,2.038977015E0,2.356878127E0
1.316853037E1,1.097909464E0,1.430980316E-1,2.014637688E0,2.298836064E0
1.317861337E1,1.097869703E0,5.229501173E-2,1.979295070E0,2.263992408E0
1.318869537E1,1.043014049E0,-3.416805848E-2,1.984716608E0,2.242352733E0
1.319877738E1,9.713710392E-1,-7.747414559E-2,2.092274971E0,2.308068130E0
1.320886038E1,7.683247215E-1,-4.250355676E-2,2.201041660E0,2.331676183E0
1.321894238E1,2.095577770E-1,5.645048171E-2,2.134926901E0,2.145929633E0
1.322902438E1,-4.390095359E-1,1.058065367E-1,2.057745700E0,2.106713498E0
1.323910738E1,-8.862958056E-1,4.250253350E-2,2.089133846E0,2.269759227E0
1.324918937E1,-1.133449425E0,-1.826332493E-1,2.113563513E0,2.405247020E0
1.325927137E1,-1.252070135E0,-4.987815285E-1,2.145212153E0,2.533455706E0
1.326935437E1,-1.253482822E0,-8.296408175E-1,2.266029954E0,2.719267332E0
1.327943637E1,-1.065276738E0,-1.217982476E0,2.297219295E0,2.809895430E0
1.328951838E1,-9.050624442E-1,-1.547588706E0,2.226386709E0,2.858490268E0
1.329960138E1,-8.636448616E-1,-1.779203204E0,2.006903576E0,2.817642357E0
1.330968338E1,-1.013636468E0,-2.033709551E0,1.703186331E0,2.839767086E0
1.331976538E1,-1.163947917E0,-2.342380996E0,1.647327295E0,3.091150384E0
1.332984838E1,-1.361348748E0,-2.590365651E0,2.025014449E0,3.558644143E0
1.333993037E1,-1.409882392E0,-2.748578735E0,2.769468497E0,4.148784060E0
1.335001237E1,-1.315315958E0,-2.843336957E0,3.384930337E0,4.612198447E0
1.336009537E1,-1.155458345E0,-2.860202082E0,3.842200727E0,4.927306197E0
1.337017737E1,-1.023234673E0,-2.766921743E0,3.902883716E0,4.892378402E0
1.338025938E1,-8.490876335E-1,-2.486175577E0,3.537064363E0,4.406000808E0
1.339034238E1,-7.846337754E-1,-2.074944116E0,2.863340575E0,3.622121270E0
1.340042438E1,-9.035328126E-1,-1.667722237E0,2.194971666E0,2.900960120E0
1.341050638E1,-9.587615186E-1,-1.379522772E0,1.650509934E0,2.355098675E0
1.342058938E1,-9.141443396E-1,-1.187661008E0,1.201922659E0,1.921149818E0
1.343067137E1,-8.583198023E-1,-1.112784853E0,8.481155339E-1,1.641433207E0
1.344075337E1,-8.185388553E-1,-1.178588614E0,5.636642799E-1,1.541685571E0
1.345083637E1,-6.956315517E-1,-1.321002960E0,4.355403829E-1,1.555200148E0
1.346091837E1,-6.875442678E-1,-1.479242795E0,4.848446900E-1,1.701749318E0
1.347100038E1,-8.744797522E-1,-1.601084151E0,4.740001515E-1,1.884903563E0
1.348108338E1,-1.093115916E0,-1.678718072E0,2.879660153E-1,2.023838234E0
1.349116538E1,-1.226190943E0,-1.741743017E0,-4.281038940E-2,2.130503625E0
1.350124738E1,-1.377623304E0,-1.790088965E0,-4.195400620E-1,2.297450399E0
1.351133038E1,-1.607142890E0,-1.818960324E0,-7.512151837E-1,2.540836315E0
1.352141237E1,-1.879134312E0,-1.833884318E0,-1.010679239E0,2.813494265E0
1.353149437E1,-2.146639751E0,-1.910763364E0,-1.129752815E0,3.087947583E0
1.354157737E1,-2.341421614E0,-2.105021608E0,-1.162349288E0,3.356251929E0
1.355165937E1,-2.574851818E0,-2.335156614E0,-1.214547967E0,3.682111495E0
1.356174138E1,-2.831355135E0,-2.640930617E0,-1.389584368E0,4.113639647E0
1.357182438E1,-3.088732027E0,-2.936583090E0,-1.512179430E0,4.522219854E0
1.358190638E1,-3.315274796E0,-3.059101554E0,-1.262016249E0,4.684211172E0
1.359198838E1,-3.547372420E0,-3.022112068E0,-8.993444520E-1,4.746138734E0
1.360207138E1,-3.654941892E0,-3.024021768E0,-6.568879008E-1,4.789030132E0
1.361215337E1,-3.574629216E0,-3.035950381E0,-7.014354980E-1,4.742043916E0
1.362223537E1,-3.410708957E0,-2.986916215E0,-8.532099205E-1,4.613303722E0
1.363231837E1,-3.094471069E0,-2.773906534E0,-1.062615962E0,4.289459330E0
1.364240037E1,-2.461412911E0,-2.183645024E0,-1.276723166E0,3.529430712E0
1.365248238E1,-1.695943969E0,-1.414317213E0,-1.343169462E0,2.584690181E0
1.366256538E1,-1.063847678E0,-8.943916411E-1,-1.217521276E0,1.847719229E0
1.367264738E1,-6.550425196E-1,-4.660221008E-1,-8.994017547E-1,1.206308757E0
1.368272938E1,-4.110288548E-1,-1.441818861E-1,-3.582811224E-1,5.640022150E-1
1.369281238E1,-1.423750234E-1,6.478934214E-2,4.108867675E-1,4.396546848E-1
1.370289437E1,3.067537040E-1,1.748185918E-1,1.221259986E0,1.271273113E0
1.371297637E1,7.442020333E-1,1.302415393E-1,1.740372722E0,1.897286677E0
1.372305937E1,1.033869004E0,1.468256316E-1,1.871143507E0,2.142806783E0
1.373314137E1,1.290562940E0,4.073447435E-1,1.597459024E0,2.093647004E0
1.374322338E1,1.513617260E0,8.291823227E-1,1.037518689E0,2.013709405E0
1.375330638E1,1.671487990E0,1.172319961E0,3.239679068E-1,2.067162644E0
1.376338838E1,1.732410130E0,1.278402924E0,-3.672595221E-1,2.184133341E0
1.377347038E1,1.768066451E0,1.056425661E0,-8.346315622E-1,2.222319508E0
1.378355338E1,1.659771924E0,6.885404141E-1,-1.019886849E0,2.066180033E0
1.379363537E1,1.195867283E0,4.427232487E-1,-1.016461258E0,1.630734780E0
1.380371737E1,6.801609886E-1,3.009567744E-1,-8.705805364E-1,1.145034681E0
1.381380037E1,5.738609469E-1,1.381244630E-1,-6.402230439E-1,8.707929143E-1
1.382388237E1,8.755410218E-1,-3.713420480E-2,-5.581138104E-1,1.038962009E0
1.383396438E1,1.142294508E0,4.921301745E-2,-6.368290275E-1,1.308743625E0
1.384404738E1,1.225316784E0,3.329313961E-1,-8.011024582E-1,1.501335967E0
1.385412938E1,1.305806631E0,6.640121484E-1,-7.483708057E-1,1.645023390E0
1.386421138E1,1.381585962E0,1.181794058E0,-5.629626140E-1,1.903245615E0
1.387429438E1,1.638613189E0,1.376939033E0,-7.490838736E-2,2.141640855E0
1.388437637E1,2.265452834E0,1.266256649E0,8.342389217E-1,2.726102900E0
1.389445837E1,2.432357512E0,1.074572934E0,1.346720476E0,2.980725767E0
1.390454137E1,2.067992361E0,1.041777655E0,1.335896988E0,2.673296439E0
1.391462337E1,1.387171807E0,9.632770309E-1,1.005187826E0,1.965337331E0
1.392470538E1,8.597418451E-1,5.289224268E-1,4.447965252E-1,1.103067959E0
1.393478838E1,3.902034116E-1,1.956408191E-1,-1.047116455E-1,4.488859111E-1
1.394487038E1,7.858833253E-2,7.325033627E-2,-6.312098533E-1,6.402871361E-1
1.395495287E1,-6.786863208E-3,1.550040407E-1,-5.668165138E-1,5.876676565E-1
1.396503488E1,-1.813455462E-2,4.199052206E-1,-1.532505521E-1,4.473644913E-1
1.397511788E1,1.579210156E-1,1.077743075E0,4.257854730E-2,1.090083536E0
1.398519988E1,3.868050098E-1,1.802028980E0,-5.388770556E-1,1.920238277E0
1.399528288E1,4.564003247E-1,2.308449165E0,-1.656597471E0,2.877768924E0
1.400536488E1,2.835478592E-1,2.704632524E0,-2.788815180E0,3.895244098E0
1.401544688E1,7.036246955E-2,2.916496735E0,-3.614761580E0,4.645148584E0
1.402552887E1,-1.150346124E-1,2.801847746E0,-3.938419292E0,4.834742007E0
1.403561187E1,-1.985176492E-1,2.390785416E0,-3.910087778E0,4.587379491E0
1.404569387E1,-1.704784960E-1,2.037762987E0,-3.333575704E0,3.910788652E0
1.405577588E1,-1.435432971E-1,1.841925263E0,-2.287034907E0,2.940037758E0
1.406585888E1,-1.882516927E-1,1.686368569E0,-1.094491766E0,2.019205259E0
1.407594088E1,-2.119989896E-1,1.431278524E0,-1.170785066E-1,1.451622940E0
1.408602288E1,-1.612773174E-1,1.209360902E0,5.530317029E-1,1.339555236E0
1.409610588E1,-2.500906760E-1,1.069004996E0,8.167066303E-1,1.368329912E0
1.410618788E1,-6.479258734E-1,9.503881596E-1,8.904303718E-1,1.454617420E0
1.411626987E1,-8.227617145E-1,8.096041636E-1,5.636704195E-1,1.284569999E0
1.412635287E1,-5.708923155E-1,4.413823360E-1,-1.088394874E-1,7.297824583E-1
1.413643487E1,-2.481745434E-1,-4.025113620E-1,-8.172290790E-1,9.441765556E-1
1.414651688E1,-1.137078792E-1,-1.537283720E0,-1.104941618E0,1.896593445E0
1.415659988E1,4.639765620E-3,-2.729669716E0,-1.019566129E0,2.913869143E0
1.416668188E1,-8.778951108E-2,-3.767621538E0,-1.047476644E0,3.911506919E0
1.417676388E1,-2.850722283E-1,-4.527403478E0,-1.090450171E0,4.665589995E0
1.418684688E1,-4.587450582E-1,-4.901365663E0,-1.051489588E0,5.033831815E0
1.419692888E1,-5.599819958E-1,-4.788814071E0,-1.210339726E0,4.971040363E0
1.420701087E1,-3.340297955E-1,-4.160907017E0,-1.212913963E0,4.346939543E0
1.421709387E1,1.020877075E-1,-3.266430080E0,-7.666185039E-1,3.356738193E0
1.422717587E1,5.594955075E-1,-2.368314566E0,-3.338672429E-2,2.433734534E0
1.423725788E1,1.001845558E0,-1.695716951E0,6.186126119E-1,2.064420515E0
1.424734088E1,1.252186494E0,-1.331188225E0,1.027525359E0,2.096626212E0
1.425742288E1,1.298667181E0,-1.173773432E0,1.230314838E0,2.139615647E0
1.426750488E1,1.203613089E0,-1.095470736E0,1.123466912E0,1.977604234E0
1.427758788E1,1.115480931E0,-1.093158601E0,9.639735804E-1,1.835357867E0
1.428766988E1,1.232422321E0,-1.351701866E0,7.863690828E-1,1.991064802E0
1.429775187E1,1.379041838E0,-1.651826581E0,5.146116954E-1,2.212490145E0
1.430783487E1,1.426538771E0,-1.847384516E0,1.249433041E-1,2.337403098E0
1.431791687E1,1.448679253E0,-1.898975962E0,-3.368215486E-1,2.412100752E0
1.432799888E1,1.559917853E0,-1.892501632E0,-6.943223602E-1,2.548919315E0
1.433808188E1,1.623225657E0,-1.938273344E0,-1.050578153E0,2.737787345E0
1.434816388E1,1.696692413E0,-1.849731150E0,-1.292540030E0,2.823283585E0
1.435824588E1,1.745390949E0,-1.721149416E0,-1.410521931E0,2.828129593E0
1.436832888E1,1.584489607E0,-1.631832466E0,-1.327572307E0,2.633615906E0
1.437841088E1,1.135682477E0,-1.521340994E0,-9.815248753E-1,2.137204760E0
1.438849287E1,6.029104990E-1,-1.536901458E0,-6.547082050E-1,1.776009571E0
1.439857587E1,1.743785888E-1,-1.714651259E0,-3.778399126E-1,1.764426205E0
1.440865787E1,-1.851748878E-1,-2.042369862E0,-1.276132889E-1,2.054713981E0
1.441873988E1,-5.576805317E-1,-2.392705203E0,1.886919880E-1,2.464071921E0
1.442882188E1,-1.013912457E0,-2.784400824E0,4.222986321E-1,2.993199384E0
1.443890488E1,-1.599680089E0,-3.193557108E0,3.231557286E-1,3.586392758E0
1.444898688E1,-1.992619997E0,-3.255767682E0,8.886539876E-2,3.818174264E0
1.445906888E1,-1.915094104E0,-3.022778943E0,-1.863146563E-1,3.583223565E0
1.446915188E1,-1.542903625E0,-2.631485902E0,-1.414090633E-2,3.050486783E0
1.447923387E1,-1.025696935E0,-2.098158439E0,3.831193636E-1,2.366665056E0
1.448931587E1,-5.794719350E-1,-1.650185706E0,9.084706400E-1,1.970842331E0
1.449939887E1,-7.315393031E-2,-1.306730345E0,1.423322217E0,1.933582641E0
1.450948088E1,2.727989227E-1,-1.004662892E0,1.835870764E0,2.110494786E0
1.451956288E1,1.530923849E-1,-7.564021026E-1,1.846081464E0,2.000899345E0
1.452964588E1,-2.296663517E-1,-6.131457576E-1,1.356631799E0,1.506367881E0
1.453972788E1,-6.626117402E-1,-5.571001225E-1,7.222034924E-1,1.127383142E0
1.454980988E1,-9.554519945E-1,-4.221841729E-1,3.776623034E-1,1.110746058E0
1.455989288E1,-1.119150644E0,-2.194374519E-1,1.935391836E-1,1.156766344E0
1.456997487E1,-1.278717066E0,-8.891531937E-2,-4.612181380E-2,1.282634200E0
1.458005687E1,-1.296174513E0,5.209627949E-2,-3.344592735E-1,1.339643757E0
1.459013987E1,-1.015987633E0,3.655986205E-1,-5.925498176E-1,1.231668993E0
1.460022187E1,-6.407232732E-1,7.774245239E-1,-7.719374236E-1,1.269173979E0
1.461030388E1,-2.300709790E-1,1.140386269E0,-9.486440814E-1,1.501112618E0
1.462038688E1,1.810251188E-1,1.382244358E0,-1.088608590E0,1.768739161E0
1.463046888E1,2.397697556E-1,1.455209131E0,-1.258968972E0,1.939104439E0
1.464055088E1,1.798393035E-1,1.549805093E0,-1.379072828E0,2.082325591E0
1.465063388E1,1.458149403E-1,1.613646748E0,-1.479186808E0,2.193880452E0
1.466071587E1,5.772429764E-2,1.489958256E0,-1.670070625E0,2.238848720E0
1.467079787E1,-2.184443754E-1,1.276760003E0,-1.698524053E0,2.136075376E0
1.468087987E1,-5.525425833E-1,1.051304524E0,-1.321030442E0,1.776419415E0
1.469096287E1,-7.437810338E-1,9.398244336E-1,-6.567382121E-1,1.366669408E0
1.470104488E1,-8.206841987E-1,9.910173914E-1,-2.843179375E-2,1.287030066E0
1.471112688E1,-9.300744939E-1,1.150797237E0,1.878049654E-1,1.491523902E0
1.472120988E1,-9.045549059E-1,1.400089476E0,-6.856123477E-2,1.668283777E0
1.473129188E1,-7.441540861E-1,1.628054287E0,-6.651105478E-1,1.909632977E0
1.474137388E1,-5.560877502E-1,1.798124940E0,-1.229606887E0,2.248203723E0
1.475145687E1,-3.923078245E-1,1.834264241E0,-1.528476205E0,2.419642586E0
1.476153887E1,-2.553104854E-1,1.726176706E0,-1.613578920E0,2.376658662E0
1.477162087E1,-3.800532299E-1,1.418850852E0,-1.400528894E0,2.029546594E0
1.478170387E1,-7.718593633E-1,9.547658238E-1,-1.165381947E0,1.692766888E0
1.479178588E1,-1.152481527E0,4.377979928E-1,-8.930698049E-1,1.522318767E0
1.480186788E1,-1.321271932E0,-8.714134723E-2,-5.815400952E-1,1.446216448E0
1.481195088E1,-1.395514029E0,-5.460913503E-1,-3.490439835E-1,1.538670488E0
1.482203288E1,-1.423198841E0,-7.603225145E-1,-2.698180121E-1,1.635966695E0
1.483211488E1,-1.306272655E0,-6.582503021E-1,-2.954536673E-1,1.492291720E0
1.484219787E1,-1.081094041E0,-4.830262059E-1,-4.158349738E-1,1.254988990E0
1.485227987E1,-6.318460304E-1,-3.743688592E-1,-6.528205776E-1,9.826271701E-1
1.486236187E1,-7.852635205E-2,-2.784958649E-1,-7.893214881E-1,8.406870680E-1
1.487244487E1,2.348119015E-1,-1.529619738E-1,-7.774560258E-1,8.264211193E-1
1.488252688E1,2.266404176E-1,-1.666719586E-1,-6.683007887E-1,7.251009342E-1
1.489260888E1,-9.250295162E-4,-5.651342699E-1,-6.340238258E-1,8.493313902E-1
1.490269188E1,-1.082746464E-1,-1.209786287E0,-5.657146060E-1,1.339902711E0
1.491277388E1,4.485574543E-2,-1.826278114E0,-2.568652600E-1,1.844799054E0
1.492285588E1,2.800044465E-1,-2.502594851E0,4.077117294E-2,2.518540404E0
1.493293788E1,5.055239528E-1,-2.893055247E0,2.411274791E-2,2.936989029E0
1.494302087E1,7.315457350E-1,-2.803156061E0,-3.851180881E-2,2.897296364E0
1.495310325E1,1.070111216E0,-2.467896596E0,-1.505777898E-1,2.694127928E0
1.496318525E1,1.566852651E0,-2.349761205E0,1.557639778E-2,2.824295943E0
1.497326825E1,2.106397458E0,-2.737019374E0,3.612617406E-1,3.472563225E0
1.498335025E1,2.387311732E0,-3.476842428E0,6.418585101E-1,4.266107467E0
1.499343225E1,2.414198399E0,-4.098200892E0,8.930680507E-1,4.839542850E0
1.500351525E1,2.160370767E0,-4.571356705E0,1.175659890E0,5.191019183E0
1.501359725E1,1.744244894E0,-4.858136905E0,1.438247820E0,5.358399130E0
1.502367925E1,1.359665335E0,-4.647183983E0,1.487400392E0,5.065310328E0
1.503376225E1,1.068323722E0,-3.984193635E0,1.232027341E0,4.304997778E0
1.504384425E1,8.428428072E-1,-2.931811762E0,5.117635167E-1,3.093187046E0
1.505392625E1,7.367316306E-1,-1.851112701E0,-4.406362313E-1,2.040478379E0
1.506400925E1,5.333987993E-1,-1.072250420E0,-1.023922890E0,1.575643781E0
1.507409125E1,1.831663692E-1,-5.668703082E-1,-1.289879108E0,1.420802583E0
1.508417325E1,-2.527388799E-1,-3.999033576E-1,-1.214915757E0,1.303771427E0
1.509425625E1,-6.579287052E-1,-6.893136352E-1,-1.111153407E0,1.463791434E0
1.510433825E1,-8.977563483E-1,-1.328146211E0,-1.019318208E0,1.899723250E0
1.511442025E1,-8.583513772E-1,-2.112134162E0,-8.694420835E-1,2.440042487E0
1.512450225E1,-8.868542147E-1,-2.775610997E0,-6.485120568E-1,2.985145674E0
1.513458525E1,-9.521757996E-1,-3.083626238E0,-1.214361441E-1,3.229572149E0
1.514466725E1,-9.048893666E-1,-2.800974757E0,3.633927584E-1,2.965862211E0
1.515474925E1,-8.313606298E-1,-2.039579571E0,5.245747662E-1,2.264116607E0
1.516483225E1,-7.551515293E-1,-1.285076205E0,4.526431963E-2,1.491215459E0
1.517491425E1,-5.372281408E-1,-7.682516313E-1,-7.650610980E-1,1.210017821E0
1.518499625E1,-3.081143510E-1,-2.905870298E-1,-1.292442235E0,1.360066986E0
1.519507925E1,9.878520012E-2,1.217603722E-1,-1.389020112E0,1.397841541E0
1.520516125E1,4.746103084E-1,5.378856602E-1,-1.087889675E0,1.303103938E0
1.521524325E1,6.234277940E-1,9.104605937E-1,-6.172718453E-1,1.264367525E0
1.522532625E1,6.268671262E-1,9.469358173E-1,-2.961556256E-2,1.136013608E0
1.523540825E1,5.220277190E-1,7.649909315E-1,5.040323281E-1,1.054406303E0
1.524549025E1,3.669601446E-1,6.826220816E-1,1.069285004E0,1.320607085E0
1.525557325E1,2.411917984E-1,7.790531927E-1,1.327454778E0,1.557958134E0
1.526565525E1,2.101594555E-1,9.845553410E-1,1.179776622E0,1.550931686E0
1.527573725E1,2.696466887E-1,1.294797786E0,8.614340293E-1,1.578378672E0
1.528581925E1,7.259253913E-1,1.637995431E0,4.153427844E-1,1.839159138E0
1.529590225E1,1.309206787E0,1.923739212E0,-1.146580517E-1,2.329794291E0
1.530598425E1,1.532401441E0,2.139093334E0,-6.812602651E-1,2.718104122E0
1.531606625E1,1.567601094E0,2.191168344E0,-1.188183603E0,2.944549571E0
1.532614925E1,1.578321379E0,2.034607099E0,-1.546436805E0,3.003696259E0
1.533623125E1,1.472165764E0,2.042972710E0,-1.386376147E0,2.874551852E0
1.534631325E1,1.368132103E0,2.263528223E0,-9.084586532E-1,2.796541184E0
1.535639625E1,1.336833712E0,2.491525487E0,-4.113811496E-1,2.857281588E0
1.536647825E1,1.329564453E0,2.643179749E0,-6.941609770E-2,2.959553922E0
1.537656025E1,1.250698378E0,2.702385731E0,1.202880433E-1,2.980202055E0
1.538664325E1,1.152638233E0,2.623860841E0,2.594117224E-1,2.877588409E0
1.539672525E1,8.863852680E-1,2.461756435E0,2.943769026E-1,2.632979557E0
1.540680725E1,4.013710088E-1,2.143752103E0,1.115058178E-1,2.183851028E0
1.541688925E1,-1.181143409E-1,1.721567638E0,-1.593424737E-1,1.732955901E0
1.542697225E1,-6.205837083E-1,1.226326599E0,-4.039420295E-1,1.432539782E0
1.543705425E1,-1.032549287E0,7.460991624E-1,-5.566774419E-1,1.390220042E0
1.544713625E1,-1.460635055E0,3.670685739E-1,-6.548562858E-1,1.642263942E0
1.545721925E1,-1.696409993E0,1.399463458E-1,-6.297477570E-1,1.814930875E0
1.546730125E1,-1.587267619E0,2.593236487E-2,-3.919099215E-1,1.635140474E0
1.547738325E1,-1.338085016E0,4.745274972E-2,-2.032177873E-1,1.354260220E0
1.548746625E1,-1.161547050E0,1.367652047E-1,-3.096433979E-1,1.209865821E0
1.549754825E1,-1.074175615E0,1.850538504E-1,-5.772195876E-1,1.233402056E0
1.550763025E1,-9.809978950E-1,2.209265184E-1,-7.758611977E-1,1.270088971E0
1.551771325E1,-8.155918586E-1,2.161630842E-1,-6.848305750E-1,1.086696588E0
1.552779525E1,-7.849337375E-1,1.521285080E-1,-6.199729666E-1,1.011746280E0
1.553787725E1,-7.988863635E-1,1.478316450E-1,-7.557491148E-1,1.109608193E0
1.554796025E1,-8.729378414E-1,2.525716130E-1,-7.930400249E-1,1.206119967E0
1.555804225E1,-8.856526119E-1,2.571064577E-1,-7.329309404E-1,1.177994925E0
1.556812425E1,-6.928289813E-1,1.363547301E-1,-7.283701122E-1,1.014459280E0
1.557820625E1,-4.602612412E-1,3.010234326E-2,-7.270743692E-1,8.610364101E-1
1.558828925E1,-3.091586637E-1,-1.248842106E-1,-6.878743431E-1,7.644254426E-1
1.559837125E1,-2.237197334E-1,-2.326794584E-1,-5.727846207E-1,6.574743122E-1
1.560845325E1,-1.077425498E-1,-5.258547217E-2,-3.974095201E-1,4.151000068E-1
1.561853625E1,2.212001681E-2,2.071452159E-1,-2.926519740E-1,3.592264098E-1
1.562861825E1,8.918991923E-2,4.313918199E-1,-1.948470595E-1,4.816836312E-1
1.563870025E1,1.410722637E-1,5.638470054E-1,-2.756786764E-1,6.432911951E-1
1.564878325E1,2.199026710E-1,7.840388212E-1,-5.033495195E-1,9.573060099E-1
1.565886525E1,2.244640839E-1,1.089564025E0,-8.215750220E-1,1.382938685E0
1.566894725E1,2.125480431E-1,1.400087429E0,-1.117460360E0,1.803923262E0
1.567903025E1,1.396396959E-1,1.632324509E0,-1.313397194E0,2.099760638E0
1.568911225E1,5.334882617E-2,1.831768065E0,-1.354419359E0,2.278743544E0
1.569919425E1,-1.097756267E-2,1.988110917E0,-1.036155996E0,2.241946648E0
1.570927725E1,-1.372399986E-2,2.023893830E0,-5.585696009E-1,2.099603435E0
1.571935925E1,9.822445214E-2,1.932209489E0,4.143600136E-2,1.935148184E0
1.572944125E1,2.231613243E-1,1.862737550E0,5.625723124E-1,1.958591270E0
1.573952325E1,5.964007938E-1,2.119464816E0,8.822121102E-1,2.371945029E0
1.574960625E1,1.272344770E0,2.599648106E0,1.171804236E0,3.122524084E0
1.575968825E1,1.777894451E0,2.961928431E0,1.542023765E0,3.783089478E0
1.576977025E1,1.976444260E0,3.051428837E0,1.601370519E0,3.972648663E0
1.577985325E1,2.162786837E0,2.995065772E0,1.547965559E0,4.005529085E0
1.578993525E1,2.378202354E0,2.810804219E0,1.350371039E0,3.921730325E0
1.580001725E1,2.724109599E0,2.457913645E0,1.066982663E0,3.821068515E0
1.581010025E1,3.383522912E0,1.709139381E0,9.077966022E-1,3.897881398E0
1.582018225E1,4.104534304E0,6.020684999E-1,8.800515640E-1,4.240775764E0
1.583026425E1,4.396697450E0,-6.594613335E-1,7.423171833E-1,4.507424156E0
1.584034625E1,3.897849848E0,-1.561365770E0,3.125480023E-1,4.210556111E0
1.585042925E1,3.086270934E0,-1.895470848E0,1.968272191E-1,3.627205393E0
1.586051125E1,2.848160618E0,-1.819689179E0,5.871510834E-1,3.430456822E0
1.587059325E1,2.943821066E0,-1.826487444E0,1.168726262E0,3.656235759E0
1.588067625E1,2.683473204E0,-1.812355894E0,1.795531992E0,3.702647358E0
1.589075825E1,2.157441312E0,-1.684225272E0,2.324676942E0,3.591001346E0
1.590084025E1,1.461696909E0,-1.540504366E0,2.797666695E0,3.512356829E0
1.591092325E1,6.746295226E-1,-1.365395314E0,2.909399677E0,3.283905577E0
1.592100525E1,9.303095520E-2,-1.156965318E0,2.681041055E0,2.921507256E0
1.593108725E1,-2.743279696E-1,-9.262526076E-1,2.171535441E0,2.376713255E0
1.594116925E1,-5.457130355E-1,-5.813224326E-1,1.568630789E0,1.759642304E0
1.595125187E1,-3.653194159E-1,-3.034104122E-1,1.306758851E0,1.390372197E0
1.596133387E1,2.835876203E-1,-1.823942444E-1,1.489184670E0,1.526879360E0
1.597141587E1,8.048101777E-1,-2.621344784E-1,1.988189562E0,2.160863633E0
1.598149888E1,9.480704695E-1,-4.190209754E-1,2.180403620E0,2.414244424E0
1.599158088E1,7.059612429E-1,-8.603581417E-1,1.764839957E0,2.086446137E0
1.600166288E1,4.673656082E-1,-1.297951336E0,1.034986407E0,1.724617390E0
1.601174588E1,1.104942495E-1,-1.670028525E0,5.596136212E-2,1.674615158E0
1.602182788E1,-3.817588627E-1,-2.076299793E0,-8.997853321E-1,2.294858232E0
1.603190988E1,-7.828287399E-1,-2.424895003E0,-1.850141478E0,3.148961749E0
1.604199287E1,-1.070381942E0,-2.623450366E0,-2.728895545E0,3.933837849E0
1.605207487E1,-1.229963567E0,-2.650388781E0,-3.437537736E0,4.511544830E0
1.606215687E1,-1.329788986E0,-2.554285406E0,-3.722417006E0,4.706283147E0
1.607223888E1,-1.275363688E0,-2.418386174E0,-3.724543639E0,4.620321368E0
1.608232188E1,-1.065382572E0,-2.335993643E0,-3.275666342E0,4.161958230E0
1.609240388E1,-8.368108195E-1,-2.317909082E0,-2.499221007E0,3.509851921E0
1.610248588E1,-6.271156329E-1,-2.413823007E0,-1.567369545E0,2.945583612E0
1.611256888E1,-2.861311591E-1,-2.442434603E0,-6.813906580E-1,2.551793694E0
1.612265088E1,-3.942543626E-2,-2.351708620E0,-3.714420354E-1,2.381188146E0
1.613273287E1,-3.276779652E-3,-2.138640175E0,-6.724140126E-1,2.241859304E0
1.614281587E1,-4.663856149E-2,-1.949276634E0,-1.120549298E0,2.248885342E0
1.615289787E1,-1.147498530E-1,-1.770358267E0,-1.513818989E0,2.332162914E0
1.616297988E1,-2.119364244E-1,-1.638949112E0,-1.766864848E0,2.419273162E0
1.617306188E1,-3.495214087E-1,-1.574789369E0,-1.977303216E0,2.551833611E0
1.618314488E1,-3.250964195E-1,-1.480236676E0,-1.850587621E0,2.391957951E0
1.619322688E1,-2.554642671E-1,-1.399839799E0,-1.377008176E0,1.980142665E0
1.620330888E1,-1.665409809E-1,-1.246891256E0,-9.073913902E-1,1.551074736E0
1.621339188E1,-1.796931231E-1,-1.151883650E0,-7.437915587E-1,1.382877957E0
1.622347387E1,-2.901686615E-1,-9.792156637E-1,-8.660913366E-1,1.339094982E0
1.623355587E1,-4.223987657E-1,-8.424814492E-1,-1.088983689E0,1.440167068E0
1.624363887E1,-5.012326813E-1,-7.834824586E-1,-1.282027760E0,1.583879459E0
1.625372088E1,-4.460250252E-1,-7.648798344E-1,-1.493595225E0,1.736319723E0
1.626380288E1,-3.569462031E-1,-7.202746421E-1,-1.591972289E0,1.783418605E0
1.627388488E1,-1.202842426E-1,-5.852413827E-1,-1.404250939E0,1.526072238E0
1.628396788E1,2.217579925E-1,-4.347855073E-1,-1.037750385E0,1.146795931E0
1.629404988E1,3.696352458E-1,-4.275644884E-1,-7.436506408E-1,9.340545392E-1
1.630413188E1,2.920041025E-1,-5.430408579E-1,-6.899620914E-1,9.253147880E-1
1.631421487E1,2.108283770E-1,-6.186857021E-1,-8.490595669E-1,1.071504900E0
1.632429687E1,2.168363911E-1,-5.401324528E-1,-9.959509796E-1,1.153550797E0
1.633437887E1,2.347212696E-1,-3.318809438E-1,-1.019600043E0,1.097644425E0
1.634446187E1,2.344821185E-1,-1.726030818E-1,-1.072492202E0,1.111311482E0
1.635454388E1,2.827304184E-1,4.229875803E-3,-1.048273619E0,1.085740283E0
1.636462588E1,4.158539772E-1,2.287062389E-1,-9.417952377E-1,1.054618103E0
1.637470788E1,5.603831148E-1,3.460148335E-1,-7.674394530E-1,1.011295612E0
1.638479088E1,5.156682873E-1,3.362920833E-1,-7.454375499E-1,9.667901989E-1
1.639487288E1,3.701995021E-1,2.064540750E-1,-6.531573772E-1,7.786433817E-1
1.640495488E1,2.106529605E-1,-3.572356403E-2,-6.446181035E-1,6.791048094E-1
1.641503787E1,2.596982360E-2,-1.378589264E-1,-6.182711345E-1,6.339863650E-1
1.642511987E1,-1.586583495E-2,-1.522819608E-2,-3.976615351E-1,3.982691542E-1
1.643520187E1,1.020146173E-1,1.628306302E-1,-1.580063850E-1,2.487706051E-1
1.644528488E1,2.548666817E-1,3.588079566E-1,-3.323364419E-1,5.514958619E-1
1.645536688E1,3.972218245E-1,5.126949781E-1,-7.930356395E-1,1.024473935E0
1.646544888E1,3.149836600E-1,6.011554572E-1,-1.337114378E0,1.499492398E0
1.647553088E1,1.944316149E-1,5.837398177E-1,-1.657558168E0,1.768065301E0
1.648561388E1,8.359062552E-2,4.716764680E-1,-1.781249583E0,1.844536842E0
1.649569588E1,5.220686495E-2,3.440852523E-1,-1.495117255E0,1.535088214E0
1.650577787E1,-3.130599260E-3,1.801331261E-1,-9.708541453E-1,9.874287393E-1
1.651586087E1,-4.728350937E-2,1.003165859E-1,-5.619682950E-1,5.728066971E-1
1.652594287E1,9.599900186E-2,3.028413320E-1,-3.183674437E-1,4.497627262E-1
