"Time (s)","Linear Acceleration x (m/s^2)","Linear Acceleration y (m/s^2)","Linear Acceleration z (m/s^2)","Absolute acceleration (m/s^2)"
5.617708339E-3,2.408428132E1,-1.782141050E1,-2.738589293E1,4.059116173E1
1.558770834E-2,2.034645339E1,-1.604039422E1,-1.575947293E1,3.032545794E1
2.555870834E-2,1.677773630E1,-9.805117575E0,-2.692615911E0,1.961843384E1
3.552866667E-2,1.183286063E1,-4.622137434E0,1.166261660E0,1.275699460E1
4.549966667E-2,8.218419474E0,-3.336673851E0,-3.954748519E0,9.711634615E0
5.546966667E-2,6.618545843E0,-3.212445661E0,-7.551014771E0,1.054242763E1
6.544066667E-2,6.739404867E0,-2.497424158E0,-6.420734537E0,9.637558684E0
7.541066667E-2,7.377571737E0,-1.955368263E0,-4.669009885E0,8.947160616E0
8.538066667E-2,8.186102498E0,-2.332304050E0,-3.620111783E0,9.249709488E0
9.535166667E-2,8.906825037E0,-3.413008667E0,-4.139933639E0,1.039803880E1
1.053216667E-1,9.412811505E0,-3.776846398E0,-5.589244099E0,1.158038163E1
1.152926667E-1,1.029234150E1,-5.153977366E0,-5.126308926E0,1.260058806E1
1.252626667E-1,9.871486981E0,-5.865380028E0,-2.495910021E0,1.175068104E1
1.352336667E-1,8.558694096E0,-4.747220487E0,-7.106167960E-1,9.812865189E0
1.452036667E-1,5.196204203E0,-4.465066019E0,-2.519366419E0,7.299627376E0
1.551746667E-1,2.406306996E0,-6.521494927E0,-2.319988352E0,7.328202740E0
1.651446667E-1,-1.319722420E0,-1.511030920E1,1.263801988E0,1.522039115E1
1.751156667E-1,-1.401414455E0,-1.433893048E1,1.096880354E0,1.444894585E1
1.850856667E-1,-1.344087183E0,-5.338748211E0,5.192139219E0,7.567503716E0
1.950566667E-1,-1.432511117E0,1.971765903E0,5.188287073E0,5.732213502E0
2.050266667E-1,-1.878268340E0,4.083305402E0,3.792884141E0,5.881092167E0
2.149976667E-1,-2.627886064E0,4.948488666E0,2.278304575E0,6.048470632E0
2.249676667E-1,-3.186900930E0,5.578681104E0,1.308591660E0,6.556708971E0
2.349386667E-1,-3.867126238E0,7.296138734E0,2.028038044E-1,8.260111086E0
2.449086667E-1,-5.421006841E0,9.207000623E0,-1.284039202E0,1.076127001E1
2.548786667E-1,-7.136420285E0,1.084698498E1,-2.327168441E0,1.319095488E1
2.648496667E-1,-6.571799693E0,1.170998490E1,-2.163462775E0,1.360120835E1
2.748196667E-1,-6.213484071E0,1.165078769E1,-7.674682505E-1,1.322638445E1
2.847906667E-1,-6.795492529E0,1.113598479E1,2.124199160E-1,1.304737514E1
2.947606667E-1,-7.625783118E0,1.073299936E1,-3.686014581E-1,1.317139744E1
3.047316667E-1,-8.441210670E0,1.045595829E1,-1.231242060E0,1.349433430E1
3.147016667E-1,-8.991062949E0,1.018633382E1,-2.201224093E0,1.376393828E1
3.246726667E-1,-8.386615802E0,9.303079147E0,-3.062093282E0,1.289414679E1
3.346426667E-1,-7.533777764E0,8.826670235E0,-2.694018073E0,1.191325515E1
3.446136667E-1,-6.921162057E0,8.891216480E0,-1.373046542E0,1.135083572E1
3.545836667E-1,-6.547686945E0,9.607918473E0,9.782161552E-2,1.162728992E1
3.645546667E-1,-6.397210604E0,1.005637009E1,1.313546591E0,1.199084182E1
3.745246667E-1,-6.268051457E0,9.813632290E0,2.299764880E0,1.186948888E1
3.844956667E-1,-5.999367805E0,9.034458060E0,3.025904864E0,1.125921608E1
3.944656667E-1,-5.674607601E0,8.256416436E0,3.431133281E0,1.058972424E1
4.044366667E-1,-5.345149743E0,8.015971912E0,3.585263547E0,1.028010438E1
4.144066667E-1,-4.702344276E0,8.355337876E0,3.214223800E0,1.011211884E1
4.243766667E-1,-3.863498626E0,8.474900572E0,2.554061458E0,9.657835745E0
4.343476667E-1,-3.265903831E0,8.017071188E0,2.116007942E0,8.911624312E0
4.443176667E-1,-3.069967727E0,7.450606969E0,1.909034196E0,8.281343950E0
4.542886667E-1,-2.924229385E0,6.988716109E0,1.258891497E0,7.679718624E0
4.642586667E-1,-2.652859522E0,6.850186214E0,-4.822268915E-1,7.361742837E0
4.742296667E-1,-2.434643188E0,6.839062471E0,-2.107254660E0,7.559152409E0
4.841996667E-1,-2.337799848E0,6.524469405E0,-2.543769189E0,7.382734645E0
4.941706667E-1,-1.864887571E0,5.637875977E0,-2.412827519E0,6.409772837E0
5.041406667E-1,-1.881967288E-1,4.648297877E0,9.408172908E-1,4.746285741E0
5.141116667E-1,3.619093198E-1,3.015490388E0,-3.220977626E0,4.427059691E0
5.240816667E-1,2.066772632E0,-7.413766587E0,-3.211699674E1,3.302630714E1
5.340526667E-1,2.847572388E0,-8.054856480E0,-2.032002632E1,2.204297736E1
5.440226667E-1,1.507867693E0,-6.839571764E0,1.153402698E1,1.349396847E1
5.539936667E-1,6.055301685E0,-1.401839430E1,8.512958345E0,1.748292073E1
5.639636667E-1,8.717354200E0,-1.924598636E1,-3.040359766E0,2.134582026E1
5.739346667E-1,9.244092436E0,-2.067875066E1,-2.693259982E0,2.281047179E1
5.839046667E-1,9.857381158E0,-1.644202660E1,-9.337798744E-1,1.919323180E1
5.938756667E-1,1.029124690E1,-1.235484274E1,6.529673427E-2,1.607968176E1
6.038456667E-1,1.055709641E1,-6.644560105E0,-6.723184106E-1,1.249217657E1
6.138156667E-1,9.357360020E0,-2.710471553E0,-1.393621578E0,9.841190156E0
6.237866667E-1,7.362431542E0,-1.840412296E0,-1.186509399E0,7.681166590E0
6.337566667E-1,6.003194808E0,-4.275435553E0,-3.011782376E-1,7.376205352E0
6.437276667E-1,4.290030203E0,-8.725719227E0,8.778015554E-1,9.762841325E0
6.536976667E-1,1.740153013E0,-1.417438164E1,3.436311575E0,1.468841260E1
6.636686667E-1,-3.305504099E-1,-1.880491451E1,7.266634269E0,2.016278867E1
6.736386667E-1,-2.421341650E0,-2.487940208E1,9.758875455E0,2.683436590E1
6.836096667E-1,-4.503464100E0,-2.634964469E1,9.008019290E0,2.820867554E1
6.935796667E-1,-6.256227803E0,-2.608891969E1,7.839790041E0,2.795057110E1
7.035506667E-1,-8.244481684E0,-2.415044608E1,5.028034773E0,2.600954935E1
7.135206667E-1,-1.014507118E1,-1.712671450E1,-1.364139040E0,1.995263627E1
7.234916667E-1,-1.000004269E1,-7.500154520E0,-9.975037662E0,1.599232779E1
7.334616667E-1,-7.298640173E0,-2.133958894E-1,-1.450657483E1,1.624057879E1
7.434326667E-1,-4.046253936E0,3.703344558E0,-1.311522402E1,1.421604843E1
7.534026667E-1,-1.439218604E0,5.913916596E0,-9.596801162E0,1.136416967E1
7.633736667E-1,2.611796281E-1,7.375417623E0,-5.714475671E0,9.333821945E0
7.733436667E-1,1.176498235E0,8.498416904E0,-2.964911388E0,9.077330969E0
7.833146667E-1,1.742169864E0,9.220304793E0,-1.102315925E0,9.447977387E0
7.932846667E-1,2.120706326E0,9.912583551E0,1.456459649E-1,1.013794460E1
8.032546667E-1,2.181776693E0,1.058203361E1,8.049873483E-1,1.083455534E1
8.132256667E-1,2.233627316E0,1.112314079E1,1.198138268E0,1.140828153E1
8.231956667E-1,2.290210822E0,1.164902884E1,1.151366463E0,1.192772331E1
8.331666667E-1,2.408631118E0,1.190951061E1,5.629559628E-1,1.216366993E1
8.431366667E-1,2.524799067E0,1.201001489E1,-1.375704394E-1,1.227330410E1
8.531076667E-1,2.536928239E0,1.192746390E1,-2.269380409E-1,1.219638884E1
8.630776667E-1,2.667940076E0,1.144627313E1,-3.532759058E-1,1.175839601E1
8.730486667E-1,2.882668546E0,1.074852723E1,-2.129257733E-1,1.113040668E1
8.830186667E-1,2.887593071E0,9.991924421E0,-3.629081704E-2,1.040086844E1
8.929896667E-1,2.606294636E0,9.349881431E0,-2.239150304E-1,9.708923341E0
9.029596667E-1,2.068632924E0,8.558331569E0,-1.437427456E0,8.921349624E0
9.129306667E-1,1.843307837E0,7.652931740E0,-2.994632201E0,8.422171336E0
9.229006667E-1,1.647314431E0,7.042425123E0,-3.997474709E0,8.263728003E0
9.328716667E-1,8.778848782E-1,7.231922273E0,-3.886117995E0,8.256712099E0
9.428416667E-1,-6.028993893E-1,8.653357594E0,-2.786885891E0,9.111027291E0
9.528126667E-1,-1.888128499E0,1.010433129E1,-1.532672167E0,1.039286410E1
9.627826667E-1,-2.137689418E0,1.054455764E1,-5.153501987E-1,1.077139720E1
9.727536667E-1,-1.971963246E0,1.057259036E1,3.532571948E-1,1.076072008E1
9.827236667E-1,-1.816792761E0,1.037879843E1,1.008538281E0,1.058476935E1
9.926936667E-1,-1.646644048E0,1.022932488E1,1.337115548E0,1.044693267E1
1.002664667E0,-1.464644198E0,1.006500643E1,1.429988043E0,1.027104682E1
1.012634667E0,-1.311531348E0,9.687334186E0,1.387873911E0,9.873740533E0
1.022605667E0,-1.190730504E0,8.863365607E0,1.035583919E0,9.002750861E0
1.032575958E0,-6.477858326E-1,7.336514343E0,-1.995045861E-1,7.367758904E0
1.042546958E0,-2.636794589E-2,5.649540587E0,-3.720584197E0,6.764669310E0
1.052516958E0,-2.628381908E-2,3.545123581E0,-8.588444145E0,9.291391977E0
1.062487958E0,4.457665418E-1,1.469714026E0,-1.034813914E1,1.046148893E1
1.072457958E0,6.458334473E-1,-3.774638489E0,-1.608626913E1,1.653581118E1
1.082428958E0,-2.216033702E-1,-7.464557841E0,-8.291535398E0,1.115877641E1
1.092398958E0,7.289758837E-1,-1.078793162E1,2.811185457E0,1.117200242E1
1.102369958E0,1.893928060E0,-1.444953173E1,6.959674743E0,1.614970598E1
1.112339958E0,1.530577402E0,-2.129839414E1,5.882422907E0,2.214875074E1
1.122310958E0,9.279578018E-1,-3.048540371E1,-1.046316556E0,3.051746588E1
1.132280958E0,-3.830247484E-1,-3.197784236E1,-6.704805722E0,3.267542700E1
1.142251958E0,5.744028376E-1,-1.655886800E1,-7.210961759E-1,1.658451168E1
1.152221958E0,2.960488847E0,-8.032368674E0,6.471712902E0,1.073156599E1
1.162192958E0,4.006549295E0,-5.225643765E0,6.923072927E0,9.554513528E0
1.172162958E0,5.119823195E0,-5.625879829E0,5.725789449E-1,7.628299944E0
1.182133958E0,4.959936930E0,-1.310402426E1,-5.771957309E0,1.515361070E1
1.192103958E0,3.404221471E0,-1.929887209E1,-3.396394973E0,1.988895891E1
1.202074958E0,2.729557157E0,-2.124064703E1,5.473828541E-1,2.142230606E1
1.212044958E0,2.267016964E0,-2.053120202E1,8.371879649E-1,2.067294140E1
1.222015958E0,1.611799028E0,-1.795182212E1,-1.530706041E-1,1.802468430E1
1.231985958E0,4.933737311E-1,-1.374184322E1,6.369652677E-1,1.376544215E1
1.241955958E0,-8.857052368E-1,-1.042347349E1,1.214221108E0,1.053126803E1
1.251926958E0,-2.445699688E0,-7.616147491E0,6.271197259E-1,8.023741566E0
1.261896958E0,-4.133991991E0,-5.253302849E0,-1.223475935E0,6.795879190E0
1.271867958E0,-5.149636978E0,-2.955020823E0,-3.510780544E0,6.897571246E0
1.281837958E0,-5.427774993E0,-6.896323085E-1,-5.065990219E0,7.456580382E0
1.291808958E0,-5.074310222E0,1.000147526E0,-5.262273062E0,7.378376318E0
1.301778958E0,-4.102463804E0,1.994646057E0,-4.367629187E0,6.315457773E0
1.311749958E0,-2.682326565E0,2.407606248E0,-3.104887884E0,4.757286245E0
1.321719958E0,-1.459845973E0,3.348771155E0,-1.762201109E0,4.055955037E0
1.331690958E0,-6.877383953E-1,4.502129180E0,-7.958177447E-1,4.623362104E0
1.341660958E0,-2.317903528E-1,6.010955232E0,-3.594482267E-1,6.026152388E0
1.351631958E0,8.200866133E-2,7.709543313E0,-1.001744986E-2,7.709985983E0
1.361601958E0,4.641826764E-1,9.237631847E0,3.615918159E-3,9.249287582E0
1.371572958E0,1.027976472E0,1.038444918E1,5.992634078E-2,1.043537788E1
1.381542958E0,1.650944383E0,1.120889489E1,1.357617859E-1,1.133063870E1
1.391513958E0,2.177090003E0,1.175477691E1,5.586312890E-2,1.195481584E1
1.401483958E0,2.442335200E0,1.202635903E1,9.800982278E-2,1.227224179E1
1.411454958E0,2.489229870E0,1.202485278E1,5.200583402E-1,1.229080187E1
1.421424958E0,2.492690837E0,1.187264040E1,8.885616016E-1,1.216398946E1
1.431395958E0,2.748415890E0,1.146725528E1,7.344161332E-1,1.181486778E1
1.441365958E0,3.108402645E0,1.045160796E1,-3.000242165E-1,1.090817539E1
1.451336958E0,2.597650697E0,8.971639084E0,-2.207423311E0,9.597437922E0
1.461306958E0,2.065445022E0,7.896095220E0,-4.055390210E0,9.113757327E0
1.471276958E0,1.751931059E0,7.060418175E0,-5.537081088E0,9.142102287E0
1.481247958E0,1.157635848E0,7.002731300E0,-6.013368963E0,9.302632568E0
1.491217958E0,2.590933415E-1,8.178026909E0,-5.207264796E0,9.698600937E0
1.501188958E0,-6.154954612E-1,9.259953008E0,-3.683579800E0,9.984704529E0
1.511158958E0,-1.259646372E0,9.421657757E0,-1.855771177E0,9.684948660E0
1.521129958E0,-1.630423287E0,9.007504150E0,-1.296356946E-1,9.154791998E0
1.531099958E0,-1.748592884E0,8.623238001E0,1.090126820E0,8.866013038E0
1.541070958E0,-1.714113023E0,8.382764241E0,1.713155833E0,8.726042785E0
1.551040958E0,-1.430137732E0,8.317411081E0,1.610435457E0,8.591747400E0
1.561011958E0,-8.487394318E-1,8.532031378E0,8.217700267E-1,8.613432767E0
1.570981958E0,-2.236887431E-1,8.789223497E0,-2.938179088E-1,8.796977623E0
1.580952958E0,2.962368836E-1,8.829572793E0,-1.421400822E0,8.948155804E0
1.590922958E0,5.088305533E-1,8.689464735E0,-2.763605787E0,9.132536497E0
1.600893958E0,2.021315208E-1,8.272565276E0,-5.022492782E0,9.679960080E0
1.610863958E0,-9.029314265E-1,6.919434205E0,-6.814319394E0,9.753399596E0
1.620834958E0,-3.163895060E0,5.425584626E0,-5.770427678E0,8.529070059E0
1.630804958E0,-4.696268435E0,4.121813995E0,-5.534832834E0,8.347374577E0
1.640775958E0,-4.557337421E0,1.662557538E0,-2.803912106E0,5.603154918E0
1.650745958E0,-2.866240209E0,-2.008893968E0,3.664298899E0,5.067353780E0
1.660716958E0,1.732772840E-1,-8.076398792E0,9.680918037E0,1.260866434E1
1.670686958E0,3.138136906E0,-1.681394460E1,5.989566118E0,1.812268022E1
1.680657958E0,5.822149224E0,-3.633592187E1,-1.539670348E1,3.989053921E1
1.690627958E0,6.211055723E0,-4.785279897E1,-1.947456805E1,5.203581827E1
1.700598958E0,4.363549292E0,-3.281259788E1,-1.689956128E0,3.314457865E1
1.710568958E0,2.318029974E0,-1.290885122E1,1.202947442E1,1.779662770E1
1.720539958E0,1.807274371E0,-4.969244528E0,1.198703065E1,1.310147075E1
1.730509958E0,1.133022213E0,-6.671614587E-2,8.630600231E0,8.704909576E0
1.740480958E0,9.753952391E-2,8.026847148E-1,4.289375608E0,4.364923804E0
1.750450958E0,-1.860342823E0,-6.039060459E0,3.474038395E-1,6.328650415E0
1.760420958E0,-2.436624810E0,-1.394124848E1,-2.167388888E0,1.431758095E1
1.770391958E0,-1.159398199E0,-1.974062572E1,-3.808342133E0,2.013802319E1
1.780361958E0,5.159669704E-1,-2.285631692E1,-2.684269888E0,2.301918222E1
1.790332958E0,2.104894432E0,-2.031037841E1,3.323612925E-1,2.042186367E1
1.800302958E0,2.991646028E0,-1.515269450E1,1.284673040E0,1.549853159E1
1.810273958E0,2.361512208E0,-1.122086063E1,9.867291896E-1,1.150904374E1
1.820243958E0,1.168832535E0,-8.666068856E0,1.141321678E0,8.818703651E0
1.830214958E0,-6.593231748E-2,-7.053681014E0,1.291952531E-1,7.055172168E0
1.840184958E0,-1.087994048E0,-5.694238458E0,-1.682477978E0,6.036457140E0
1.850155958E0,-1.808531815E0,-3.957486770E0,-3.542357848E0,5.610774276E0
1.860125958E0,-2.229995903E0,-1.912564598E0,-4.806873196E0,5.633543733E0
1.870096958E0,-2.271947044E0,3.164770389E-1,-4.637260673E0,5.173595233E0
1.880066958E0,-2.019103791E0,2.194792741E0,-3.399071828E0,4.521900550E0
1.890037958E0,-1.628449559E0,3.781110772E0,-2.279632916E0,4.705887044E0
1.900007958E0,-1.545367641E0,5.663413106E0,-2.045962976E0,6.216781616E0
1.909978958E0,-1.390511882E0,7.844815139E0,-1.706087719E0,8.147722575E0
1.919948958E0,-1.067690468E0,9.639859473E0,-1.315637555E0,9.787632797E0
1.929919958E0,-6.642095650E-1,1.101041466E1,-1.062574739E0,1.108149225E1
1.939889958E0,-1.004592580E-1,1.214274435E1,-9.042642993E-1,1.217678226E1
1.949860958E0,7.311006157E-1,1.269849530E1,-6.362454754E-1,1.273542693E1
1.959830958E0,1.560102917E0,1.269828947E1,-4.135502108E-1,1.280044923E1
1.969801958E0,2.287000993E0,1.245748125E1,-6.291726103E-1,1.268128822E1
1.979771958E0,2.979484988E0,1.214756947E1,-1.017054093E0,1.254891126E1
1.989742958E0,3.650861120E0,1.163055164E1,-1.251361452E0,1.225415945E1
1.999712958E0,4.265168720E0,1.037539535E1,-8.306542861E-1,1.124857677E1
2.009683958E0,4.262896199E0,8.498032157E0,-2.533464239E-1,9.510679206E0
2.019653958E0,3.537628035E0,7.057952405E0,-9.283483958E-1,7.949297768E0
2.029628167E0,3.045035784E0,6.136748722E0,-2.047473897E0,7.150110290E0
2.039598167E0,2.761177438E0,5.533898449E0,-2.754633819E0,6.770239314E0
2.049569167E0,2.055875469E0,5.606150739E0,-2.947478499E0,6.659067469E0
2.059539167E0,5.443260759E-1,7.519342158E0,-2.533500309E0,7.953327680E0
2.069510167E0,-4.921148255E-1,9.237587993E0,-1.970982376E0,9.458328629E0
2.079480167E0,-9.558127677E-1,9.830462916E0,-1.265908155E0,9.957615309E0
2.089450167E0,-1.389745459E0,1.024592396E1,-7.673301101E-2,1.034003086E1
2.099421167E0,-1.745334377E0,1.052100037E1,1.196865402E0,1.073173461E1
2.109392167E0,-2.037310413E0,1.064273706E1,2.082102277E0,1.103420300E1
2.119362167E0,-2.214773115E0,1.066587801E1,2.518435543E0,1.118072856E1
2.129333167E0,-2.217912047E0,1.059950041E1,2.505679257E0,1.111516853E1
2.139303167E0,-2.128273500E0,1.045750663E1,2.222910247E0,1.090093220E1
2.149273167E0,-1.974594201E0,1.037810144E1,1.650602320E0,1.069245060E1
2.159244167E0,-1.886162958E0,9.690313928E0,6.298177043E-1,9.892242671E0
2.169214167E0,-1.854819689E0,7.868524429E0,-1.174648322E0,8.169077760E0
2.179185167E0,-1.737437127E0,5.959427814E0,-3.596890150E0,7.174335258E0
2.189155167E0,-8.400807287E-1,4.977380928E0,-3.444447391E0,6.110996184E0
2.199126167E0,-6.100546271E-2,3.868048929E0,-2.185196729E0,4.443040505E0
2.209096167E0,2.186504897E-1,1.716651884E0,-1.146844665E0,2.076042970E0
2.219067167E0,5.011133981E-1,-1.659846768E0,2.057622470E0,2.690727813E0
2.229037167E0,1.625339133E0,-7.998958268E0,3.547305762E0,8.899912294E0
2.239008167E0,4.231310710E0,-2.077336563E1,-7.278705261E0,2.241464387E1
2.248978167E0,7.020054846E0,-4.404423142E1,-2.417786484E1,5.073208689E1
2.258949167E0,4.609851557E0,-5.033448827E1,-1.332018179E1,5.227082057E1
2.268919167E0,1.259503554E0,-3.243911985E1,7.295620086E0,3.327324628E1
2.278890167E0,-5.805443144E-1,-1.530930164E1,1.284271102E1,1.999117243E1
2.288860167E0,-1.581409148E0,-5.130771521E0,1.009505293E1,1.143397416E1
2.298831167E0,-3.044147885E0,-1.487245148E-1,6.852150879E0,7.499395108E0
2.308801167E0,-4.762357759E0,6.735220599E-1,3.819962597E0,6.142132987E0
2.318772167E0,-5.754833153E0,-4.259410089E0,1.929401071E0,7.415070291E0
2.328742167E0,-4.981579229E0,-1.209377742E1,-4.644466782E-1,1.308783002E1
2.338713167E0,-2.905679094E0,-1.981629103E1,-3.116978464E0,2.026928504E1
2.348683167E0,6.923443933E-1,-2.599332707E1,-4.323606670E0,2.635955173E1
2.358654167E0,5.731216834E0,-2.517583252E1,-3.498303756E0,2.605585383E1
2.368624167E0,8.079629964E0,-1.738584907E1,-2.730262624E0,1.936498133E1
2.378595167E0,7.016427233E0,-1.039201197E1,-2.950236046E0,1.288130648E1
2.388565167E0,4.927812327E0,-4.830670195E0,-2.434546709E0,7.317494553E0
2.398536167E0,1.528456617E0,-2.330601341E0,-6.662832069E-1,2.865626555E0
2.408506167E0,-1.167315256E0,-1.747968401E0,9.207318127E-1,2.294725585E0
2.418477167E0,-2.639571725E0,-4.020253122E-1,7.241156781E-1,2.766461053E0
2.428447167E0,-3.239674975E0,1.525356131E0,-7.738064861E-1,3.663465811E0
2.438418167E0,-3.187369000E0,3.550449809E0,-2.448637329E0,5.362913365E0
2.448388167E0,-2.761466583E0,5.332957129E0,-3.994592616E0,7.212690177E0
2.458359167E0,-2.361557378E0,7.041070908E0,-4.879381009E0,8.886056033E0
2.468329167E0,-2.030653504E0,8.501443423E0,-4.679374074E0,9.914365116E0
2.478300167E0,-1.640079379E0,9.522042171E0,-3.565008207E0,1.029895291E1
2.488270167E0,-1.162639164E0,1.039866025E1,-2.284543993E0,1.070994893E1
2.498241167E0,-4.114712698E-1,1.119216484E1,-9.195723099E-1,1.123741410E1
2.508211167E0,3.800569575E-1,1.182327704E1,4.523236459E-1,1.183802855E1
2.518182167E0,1.213134988E0,1.215084859E1,1.305682670E0,1.228086418E1
2.528152167E0,1.931478587E0,1.221022355E1,1.566880133E0,1.246095029E1
2.538123167E0,2.710074527E0,1.208214497E1,1.520062646E0,1.247530847E1
2.548093167E0,3.823611259E0,1.130327363E1,1.388725997E0,1.201301618E1
2.558064167E0,4.651804160E0,9.762256315E0,1.896029257E0,1.097888233E1
2.568034167E0,4.377864153E0,8.385813564E0,2.498425201E0,9.784155158E0
2.578005167E0,3.650483975E0,7.469167201E0,2.326060978E0,8.632789329E0
2.587975167E0,3.100238178E0,6.966774432E0,1.399842138E0,7.752869195E0
2.597946167E0,2.678209541E0,7.068402548E0,2.450018807E-1,7.562747309E0
2.607916167E0,2.316619041E0,7.911755818E0,-9.749337476E-1,8.301391432E0
2.617887167E0,1.453080452E0,9.621213872E0,-2.106279345E0,9.955682390E0
2.627857167E0,-3.079494596E-2,1.071720019E1,-2.826380324E0,1.108367060E1
2.637828167E0,-9.435040864E-1,1.026363985E1,-3.004920961E0,1.073601663E1
2.647798167E0,-1.215886614E0,9.462533303E0,-3.027483612E0,1.000917448E1
2.657769167E0,-1.491401203E0,8.920113419E0,-2.976452622E0,9.521132872E0
2.667739167E0,-1.805510558E0,8.431856294E0,-2.536982911E0,8.988456554E0
2.677710167E0,-2.130952402E0,7.752036198E0,-2.037814296E0,8.293835691E0
2.687680167E0,-2.388031231E0,7.014208215E0,-1.754590373E0,7.614486025E0
2.697651167E0,-2.578515099E0,6.458706356E0,-1.827990471E0,7.190631201E0
2.707621167E0,-2.599196700E0,6.159257578E0,-2.207754264E0,7.040344899E0
2.717592167E0,-2.101206446E0,6.560201156E0,-2.262583605E0,7.250558068E0
2.727562167E0,-1.083289963E0,7.332449359E0,-2.032645358E0,7.685699571E0
2.737533167E0,-1.583605070E-1,7.380367876E0,-3.210945851E0,8.050160327E0
2.747503167E0,1.251824643E-1,5.458699163E0,-5.781611062E0,7.952364030E0
2.757474167E0,-9.887684061E-1,2.505150669E0,-5.737703151E0,6.338349965E0
2.767444167E0,-1.557554262E0,-2.063772426E0,-9.995811650E0,1.032479455E1
2.777415167E0,-1.770024245E0,-7.473485954E0,-1.104144350E0,7.759195376E0
2.787385167E0,-1.184933209E0,-1.107978603E1,1.028887878E1,1.516663284E1
2.797356167E0,-8.228714959E-1,-1.366457110E1,1.081396810E1,1.744532965E1
2.807326167E0,-1.899422396E0,-2.332573841E1,7.102926264E0,2.445709384E1
2.817297167E0,1.046269779E0,-4.057865220E1,-1.028468749E1,4.187477154E1
2.827267167E0,9.462844959E0,-4.480194170E1,-1.915756710E1,4.963639584E1
2.837238167E0,6.841835806E0,-2.479802287E1,6.027135648E0,2.642118505E1
2.847208167E0,-1.920816189E-1,-8.056645144E0,1.496982634E1,1.700123898E1
2.857179167E0,-1.549990889E0,1.628952420E-1,9.089600812E0,9.222247532E0
2.867149167E0,-1.734343950E0,4.231133539E0,2.405757650E0,5.167021370E0
2.877120167E0,-1.136734976E0,2.733105540E0,-3.416553249E0,4.520494265E0
2.887090167E0,-1.153861032E-1,-3.113033055E0,-5.438102345E0,6.267156123E0
2.897061167E0,-1.878300353E-1,-9.292682213E0,-2.179079226E0,9.546601967E0
2.907031167E0,-5.507482190E-1,-1.457071878E1,2.649141862E0,1.481982193E1
2.917002167E0,-3.242935602E-1,-1.900197152E1,4.912086825E0,1.962928132E1
2.926972167E0,-7.876851448E-1,-2.076739211E1,3.693522406E0,2.110798737E1
2.936943167E0,-1.234842483E0,-1.782178004E1,7.755686907E-1,1.788133627E1
2.946913167E0,-7.926548396E-1,-1.319243650E1,-2.081069805E0,1.337907075E1
2.956884167E0,1.754993173E-1,-9.036092357E0,-3.930118293E0,9.855333322E0
2.966854167E0,8.032714098E-1,-6.082232791E0,-4.232769005E0,7.453531655E0
2.976825167E0,8.305838272E-1,-4.392678074E0,-3.335773380E0,5.577891555E0
2.986795167E0,9.022651362E-1,-3.074421551E0,-2.780462140E0,4.242301258E0
2.996766167E0,1.237998080E0,-1.387450719E0,-2.532107502E0,3.141532611E0
3.006736167E0,1.390095122E0,6.387621170E-1,-2.570322565E0,2.991143523E0
3.016707167E0,1.374099479E0,2.921570656E0,-2.478651087E0,4.070311498E0
3.026677167E0,1.175222445E0,5.250469873E0,-2.230350244E0,5.824349225E0
3.036644542E0,9.720947783E-1,7.249710088E0,-1.908899564E0,7.559574205E0
3.046614542E0,8.589273280E-1,8.910331028E0,-1.569575114E0,9.088196808E0
3.056585542E0,7.553229258E-1,1.032440529E1,-1.584917039E0,1.047262237E1
3.066555542E0,6.615157527E-1,1.167501387E1,-2.430233803E0,1.194360031E1
3.076526542E0,7.996647010E-1,1.277060901E1,-3.481826302E0,1.326088355E1
3.086496542E0,1.011581976E0,1.334007519E1,-3.772835793E0,1.390018683E1
3.096467542E0,1.253972234E0,1.346897472E1,-3.185798730E0,1.389730333E1
3.106437542E0,1.556318015E0,1.329217480E1,-1.995884498E0,1.353098635E1
3.116408542E0,2.115557414E0,1.292368443E1,-5.784480876E-1,1.310846310E1
3.126378542E0,3.129470163E0,1.174360756E1,1.066546753E0,1.220014033E1
3.136349542E0,3.419976209E0,9.211604721E0,2.080728182E0,1.004387020E1
3.146319542E0,2.527274778E0,7.747714521E0,1.924666581E0,8.373681362E0
3.156290542E0,2.058389479E0,7.379014830E0,1.078296733E0,7.736249153E0
3.166260542E0,1.855644878E0,7.072513726E0,4.721042831E-2,7.312051500E0
3.176231542E0,1.682398894E0,6.755458982E0,-1.072440162E0,7.043920783E0
3.186201542E0,1.040814253E0,7.060470800E0,-2.152205715E0,7.454229113E0
3.196172542E0,-2.557357607E-1,8.820477449E0,-2.643967077E0,9.211774265E0
3.206143542E0,-9.228368104E-1,1.003441263E1,-2.856893435E0,1.047391544E1
3.216113542E0,-1.237043375E0,1.054848463E1,-2.523464148E0,1.091644061E1
3.226083542E0,-1.528488338E0,1.062629002E1,-1.657489171E0,1.086285351E1
3.236054542E0,-1.724262035E0,1.039097818E1,-4.681865573E-1,1.054346744E1
3.246025542E0,-1.781295923E0,1.007336795E1,8.338549789E-1,1.026357984E1
3.255995542E0,-1.762689059E0,9.698467285E0,1.823656515E0,1.002462286E1
3.265966542E0,-1.660910962E0,9.247430611E0,2.204991016E0,9.650677878E0
3.275936542E0,-1.349944631E0,8.654883717E0,1.968342358E0,8.977958248E0
3.285907542E0,-7.002799420E-1,8.083753420E0,1.184753407E0,8.200067194E0
3.295877542E0,-1.863794142E-1,7.445515214E0,-1.080951369E-1,7.448631998E0
3.305848542E0,2.642403897E-1,6.274724300E0,-2.574401582E0,6.787453980E0
3.315818542E0,6.209237239E-1,4.242166650E0,-6.410445192E0,7.712025137E0
3.325789542E0,4.371198985E-1,2.867096241E0,-7.282401870E0,7.838666447E0
3.335759542E0,5.890692990E-1,4.711060721E-1,-8.427000182E0,8.460690021E0
3.345730542E0,-7.359978050E-1,-5.484166126E0,-1.052276857E1,1.188892044E1
3.355700542E0,-1.821941819E0,-1.317681742E1,-1.438171514E0,1.337969830E1
3.365671542E0,1.501118837E0,-1.774560603E1,3.195334662E0,1.809337046E1
3.375641542E0,3.190216886E0,-2.582456239E1,1.754249480E-1,2.602145807E1
3.385612542E0,1.663552295E0,-3.945998161E1,-8.842021515E0,4.047269325E1
3.395582542E0,1.128327849E0,-3.635194324E1,-4.087891374E0,3.659846660E1
3.405553542E0,2.756352023E0,-1.618458071E1,6.088385816E0,1.751018478E1
3.415523542E0,3.195226488E0,-5.413653967E0,8.863540438E0,1.086643781E1
3.425494542E0,2.597579945E0,5.424163753E-1,6.934529961E0,7.424913662E0
3.435464542E0,1.389471078E0,3.139185312E0,3.275259376E0,4.744727418E0
3.445435542E0,-1.589134051E0,-6.891592687E-1,-2.807558137E-1,1.754739683E0
3.455405542E0,-3.540519483E0,-9.671594651E0,-1.948607128E0,1.048198889E1
3.465376542E0,-2.243520951E0,-1.679562176E1,-2.061142640E0,1.706969846E1
3.475346542E0,4.638645148E-1,-2.201763908E1,2.455684394E-2,2.202253855E1
3.485317542E0,2.535544496E0,-2.393050189E1,2.243593310E0,2.416881498E1
3.495287542E0,3.263010628E0,-2.145784303E1,2.489873064E0,2.184687011E1
3.505258542E0,2.776434578E0,-1.646332684E1,8.529636066E-1,1.671757358E1
3.515229542E0,1.698034057E0,-1.247023871E1,-2.249622667E-1,1.258732621E1
3.525199542E0,4.671292345E-1,-9.557803157E0,-7.535236645E-1,9.598833722E0
3.535170542E0,-7.757001069E-1,-7.336314368E0,-1.869062337E0,7.610296524E0
3.545140542E0,-1.711734668E0,-5.749506925E0,-3.115238625E0,6.759554508E0
3.555111542E0,-2.150537066E0,-3.966231281E0,-3.585071758E0,5.762685117E0
3.565081542E0,-2.140029327E0,-1.738086022E0,-3.959024588E0,4.824369827E0
3.575052542E0,-2.064976075E0,6.863023192E-1,-3.857201174E0,4.428672257E0
3.585022542E0,-1.963746154E0,3.019571745E0,-3.402900585E0,4.955183636E0
3.594993542E0,-1.819475463E0,5.175604463E0,-3.241532636E0,6.372197921E0
3.604963542E0,-1.589177759E0,7.115373816E0,-3.085248256E0,7.916614636E0
3.614934542E0,-1.169018038E0,8.733548064E0,-2.763456683E0,9.234617360E0
3.624904542E0,-6.834531903E-1,9.864956810E0,-2.402963558E0,1.017638025E1
3.634875542E0,5.221892484E-2,1.056693142E1,-1.775567844E0,1.071519518E1
3.644845542E0,1.140603420E0,1.102038300E1,-1.081789275E0,1.113193988E1
3.654816542E0,2.016145539E0,1.136781169E1,-7.665196860E-1,1.157063256E1
3.664786542E0,2.319661932E0,1.192989283E1,-1.318393933E0,1.222462012E1
3.674757542E0,2.527244081E0,1.234513519E1,-1.863963857E0,1.273827644E1
3.684727542E0,2.775480604E0,1.226543062E1,-1.700167413E0,1.268994288E1
3.694698542E0,3.051982276E0,1.165701614E1,-6.848434389E-1,1.206936749E1
3.704668542E0,3.374424060E0,1.064611208E1,5.671285359E-1,1.118248965E1
3.714639542E0,3.581950514E0,9.643609293E0,1.462592118E0,1.039080100E1
3.724610542E0,3.431869445E0,8.877528732E0,1.433403987E0,9.625117728E0
3.734580542E0,3.021042612E0,8.247637426E0,4.465992218E-1,8.794866255E0
3.744551542E0,2.682789373E0,7.725545388E0,-7.320626289E-1,8.210805445E0
3.754521542E0,2.244081553E0,7.444596031E0,-2.095605837E0,8.052917230E0
3.764492542E0,9.115358236E-1,8.187336261E0,-3.215823598E0,8.843353098E0
3.774462542E0,-6.154228096E-1,9.419003121E0,-3.990673227E0,1.024801629E1
3.784433542E0,-1.242744995E0,9.921920385E0,-4.427224009E0,1.093568616E1
3.794403542E0,-1.522521254E0,9.775148256E0,-3.830502788E0,1.060869200E1
3.804374542E0,-1.711594042E0,9.370088239E0,-2.513687603E0,9.851230032E0
3.814344542E0,-1.801778280E0,8.935883945E0,-1.056367335E0,9.176728109E0
3.824315542E0,-1.581042527E0,8.505072790E0,1.438625733E-1,8.651974056E0
3.834285542E0,-9.195994263E-1,8.370186880E0,5.628752347E-1,8.439343579E0
3.844256542E0,-2.375283899E-1,8.520511778E0,3.401489798E-1,8.530606193E0
3.854226542E0,1.437586025E-1,8.629385764E0,-4.813073438E-2,8.630717338E0
3.864197542E0,2.915828837E-1,8.477579767E0,-8.100486982E-1,8.521182909E0
3.874168542E0,2.117717522E-1,8.085076060E0,-1.471150103E0,8.220558667E0
3.884138542E0,-2.090400426E-1,7.304852840E0,-1.361415406E0,7.433574151E0
3.894109542E0,-5.585201919E-1,6.006331254E0,-1.659442141E0,6.256333444E0
3.904079542E0,-5.081476351E-1,4.176633981E0,-3.566826106E0,5.515862027E0
3.914050542E0,3.064880394E-1,1.911261839E0,-6.533463593E0,6.814176638E0
3.924020542E0,1.429547163E0,-5.270393676E-1,-1.009872381E1,1.021301122E1
3.933991542E0,1.148420490E0,-3.739157000E0,-8.349492999E0,9.220314422E0
3.943961542E0,9.327920604E-2,-1.005103158E1,7.337378561E-2,1.005173222E1
3.953932542E0,8.639512557E-1,-1.631307678E1,2.797424912E-1,1.633833351E1
3.963902542E0,-9.890521422E-2,-1.904526080E1,2.530822577E0,1.921293325E1
3.973873542E0,-2.725451535E0,-2.508347926E1,4.714848839E0,2.566785572E1
3.983843542E0,-4.500675270E0,-3.316983001E1,-2.162321691E0,3.354354388E1
3.993814542E0,-3.867568288E0,-2.741874727E1,-4.744093688E0,2.809363293E1
4.003784542E0,-1.950072733E-1,-1.281128926E1,4.521111874E0,1.358703841E1
4.013755542E0,5.376263362E-1,-5.812809466E0,8.693146727E0,1.047132255E1
4.023726542E0,6.049308582E-1,-1.245470967E0,6.729586222E0,6.870550924E0
4.033696583E0,8.148175411E-1,2.895336539E-1,2.315443312E0,2.471646231E0
4.043667583E0,9.236234070E-1,-3.588007060E0,-3.441577578E0,5.056810367E0
4.053637583E0,1.321204689E0,-1.204920059E1,-5.044436213E0,1.312917185E1
4.063608583E0,3.357818845E0,-1.972912542E1,-2.421382142E0,2.015878043E1
4.073578583E0,4.863204395E0,-2.383431285E1,5.908976868E-1,2.433257870E1
4.083549583E0,1.650803026E0,-2.020561034E1,1.911807969E0,2.036287921E1
4.093519583E0,-2.167626285E0,-1.341786070E1,1.721993315E0,1.370046898E1
4.103490583E0,-3.294229497E0,-1.014608743E1,1.668621246E0,1.079719107E1
4.113460583E0,-3.602383025E0,-8.894578629E0,1.162386857E0,9.666531728E0
4.123431583E0,-3.858131174E0,-8.420328509E0,-9.378300945E-1,9.309491588E0
4.133401583E0,-3.700146716E0,-8.116087353E0,-3.629607661E0,9.629953864E0
4.143372583E0,-2.535050406E0,-7.573042987E0,-6.042158314E0,1.001424674E1
4.153343583E0,-2.988896009E-1,-6.994515377E0,-6.718754840E0,9.703311134E0
4.163313583E0,2.161625287E0,-6.111020388E0,-5.520941019E0,8.514574787E0
4.173284583E0,3.875262639E0,-4.359039043E0,-3.672774146E0,6.892615746E0
4.183254583E0,4.480454721E0,-1.790710378E0,-1.640595396E0,5.096339021E0
4.193225583E0,4.379111657E0,1.045798493E0,-1.261240762E-2,4.502274144E0
4.203195583E0,3.876222167E0,3.764121687E0,6.700920832E-1,5.444514098E0
4.213166583E0,3.172456846E0,6.397473729E0,2.780362737E-1,7.146289717E0
4.223136583E0,2.444115239E0,8.834904869E0,-6.901375079E-1,9.192689113E0
4.233107583E0,1.815614547E0,1.062397218E1,-1.452522628E0,1.087543392E1
4.243077583E0,1.499364818E0,1.167311703E1,-1.911092269E0,1.192317197E1
4.253048583E0,1.339225515E0,1.237143246E1,-2.722558917E0,1.273806081E1
4.263019583E0,1.199684126E0,1.283308066E1,-3.858033818E0,1.345405612E1
4.272989583E0,8.731715839E-1,1.317495566E1,-4.807446223E0,1.405181214E1
4.282960583E0,6.996618913E-1,1.305742195E1,-4.051476669E0,1.368942139E1
4.292930583E0,7.159149581E-1,1.252014937E1,-2.177680280E0,1.272827427E1
4.302901583E0,7.820616583E-1,1.201129426E1,-8.377937365E-1,1.206584885E1
4.312871583E0,8.562434560E-1,1.145746237E1,-1.001106908E-1,1.148984851E1
4.322842583E0,8.351276254E-1,1.091570263E1,-5.786748134E-2,1.094775551E1
4.332812583E0,6.667836555E-1,9.466172025E0,-7.797911114E-1,9.521611598E0
4.342783583E0,4.662877471E-1,8.058095838E0,-2.140095547E0,8.350469552E0
4.352753583E0,1.374217008E-1,7.528969599E0,-3.257777370E0,8.204717018E0
4.362724583E0,-2.790661877E-1,7.351251665E0,-3.394408674E0,8.101900347E0
4.372695583E0,-6.209485745E-1,7.554621334E0,-2.431998492E0,7.960684474E0
4.382665583E0,-7.974958225E-1,8.054369407E0,-8.748849642E-1,8.140902274E0
4.392636583E0,-7.774218927E-1,8.707284710E0,5.199355853E-1,8.757369744E0
4.402606583E0,-5.162177794E-1,9.179543853E0,1.541013805E0,9.322297447E0
4.412577583E0,-2.427442342E-1,9.463868222E0,2.130327188E0,9.703711683E0
4.422547583E0,-1.018181509E-1,9.830585707E0,2.098113123E0,1.005250521E1
4.432518583E0,-9.115882292E-3,1.011939021E1,1.358298841E0,1.021014775E1
4.442488583E0,1.924618341E-1,1.011120294E1,1.045400298E-1,1.011357479E1
4.452459583E0,5.408483713E-1,9.719773954E0,-1.367109425E0,9.830336254E0
4.462429583E0,9.179174747E-1,9.120720279E0,-2.674512931E0,9.548985826E0
4.472400583E0,1.258065577E0,8.431831736E0,-3.606331065E0,9.256572755E0
4.482371583E0,1.474820400E0,7.707030180E0,-4.016595104E0,8.815125956E0
4.492341583E0,1.348041947E0,6.721707099E0,-4.156707255E0,8.017280001E0
4.502312583E0,9.218712889E-1,5.360088210E0,-4.691727487E0,7.182805796E0
4.512282583E0,2.867781169E-1,3.794066448E0,-6.544475069E0,7.570160885E0
4.522253583E0,-6.780719246E-1,3.541117653E0,-5.822311192E0,6.848255499E0
4.532223583E0,-9.133440019E-1,3.115471929E0,-2.859061582E0,4.326036955E0
4.542194583E0,-1.164336392E0,2.183145672E-1,-6.396068058E0,6.504846431E0
4.552164583E0,-1.414756047E0,-3.468712167E0,-1.906830672E0,4.203510673E0
4.562135583E0,8.316322330E-1,-1.235201736E1,9.951209673E-1,1.241991187E1
4.572105583E0,3.215162278E0,-2.321969097E1,-3.109695172E0,2.364659640E1
4.582076583E0,2.720428777E0,-3.854547942E1,-7.645411052E0,3.939044334E1
4.592047583E0,1.915272736E0,-4.547879199E1,-5.162827127E0,4.581095474E1
4.602017583E0,3.054960556E0,-3.239375013E1,2.404592885E0,3.262621490E1
4.611988583E0,2.278342436E0,-1.458399781E1,1.059391515E1,1.816906367E1
4.621958583E0,7.397330794E-1,-6.045922751E0,1.083024090E1,1.242555853E1
4.631929583E0,-6.620779625E-1,-5.696228850E-1,7.250517004E0,7.302931896E0
4.641899583E0,-2.567045200E0,1.557146857E0,3.125622695E0,4.334044835E0
4.651870583E0,-4.993615723E0,-1.496411244E0,-2.330115438E-2,5.213059326E0
4.661840583E0,-5.904111400E0,-8.497459130E0,-1.105884189E0,1.040616754E1
4.671811583E0,-3.833816990E0,-1.525061665E1,-1.246923562E0,1.577448190E1
4.681781583E0,2.520284798E-1,-2.156788529E1,-1.848350330E0,2.164840856E1
4.691752583E0,4.608727138E0,-2.690105350E1,-2.948795000E0,2.745182029E1
4.701723583E0,6.728555358E0,-2.575990856E1,-3.882223749E0,2.690572443E1
4.711693583E0,4.491330250E0,-1.752684649E1,-3.006655830E0,1.834127516E1
4.721664583E0,1.867163015E0,-1.123832276E1,-1.336300446E0,1.147047928E1
4.731634583E0,-2.826117382E-2,-7.833310157E0,-7.943652233E-1,7.873535598E0
4.741605583E0,-1.676622138E0,-5.363307686E0,-1.895151444E0,5.930238623E0
4.751575583E0,-2.467535530E0,-2.998313023E0,-3.724587493E0,5.380628641E0
4.761546583E0,-2.459861060E0,-5.379748303E-1,-4.960405877E0,5.562909294E0
4.771516583E0,-2.119468763E0,1.927287887E0,-5.128227983E0,5.874121949E0
4.781487583E0,-1.716588149E0,4.272794951E0,-4.696474257E0,6.577257940E0
4.791458583E0,-1.422208469E0,6.355971361E0,-4.002884552E0,7.644876298E0
4.801428583E0,-9.969911262E-1,7.752910942E0,-2.361177601E0,8.165585040E0
4.811399583E0,-5.984854724E-1,9.000693313E0,-8.027057648E-1,9.056213421E0
4.821369583E0,2.590243444E-2,1.009086048E1,4.128333421E-1,1.009933500E1
4.831340583E0,9.008327146E-1,1.089136301E1,1.571673095E0,1.104098928E1
4.841310583E0,1.841696491E0,1.130135340E1,1.953800917E0,1.161592754E1
4.851281583E0,2.552295014E0,1.164935161E1,1.116557404E0,1.197782548E1
4.861251583E0,2.949608055E0,1.199221012E1,-2.607209140E-1,1.235237898E1
4.871222583E0,3.148099977E0,1.237004784E1,-1.405647254E0,1.284151320E1
4.881193583E0,3.150865125E0,1.233499846E1,-1.166199680E0,1.278437170E1
4.891163583E0,2.872768333E0,1.185714996E1,4.643449001E-1,1.220903023E1
4.901134583E0,2.520251395E0,1.128072326E1,1.805418465E0,1.169897090E1
4.911104583E0,1.984928570E0,1.073246610E1,2.104302401E0,1.111547833E1
4.921075583E0,1.387102517E0,1.012981463E1,1.402478063E0,1.032008443E1
4.931045583E0,9.274650277E-1,9.398272403E0,2.503625715E-1,9.447242823E0
4.941016583E0,4.014982953E-1,8.811459289E0,-9.527885878E-1,8.871911957E0
4.950986583E0,-1.634102172E-1,8.713287461E0,-1.984631531E0,8.937944036E0
4.960957583E0,-6.097161098E-1,8.730236201E0,-2.627754502E0,9.137498103E0
4.970928583E0,-1.018897062E0,8.552794840E0,-3.040314158E0,9.134109753E0
4.980898583E0,-1.399632662E0,8.185544089E0,-3.195150182E0,8.897813681E0
4.990869583E0,-1.513458655E0,7.709842690E0,-2.743922889E0,8.322340069E0
5.000839583E0,-1.200932579E0,7.283725095E0,-1.835813461E0,7.606911422E0
5.010810583E0,-4.790584315E-1,6.954615147E0,-1.068552933E0,7.052515452E0
5.020780583E0,6.724380592E-1,6.918744818E0,-8.545483482E-1,7.003674441E0
5.030751583E0,1.888114174E0,7.430162179E0,-1.221500307E0,7.763011538E0
5.040724792E0,2.426828384E0,7.918815161E0,-2.043987787E0,8.530827371E0
5.050695792E0,2.242221115E0,8.233929214E0,-2.550823270E0,8.906842605E0
5.060666792E0,1.828386474E0,8.353944485E0,-2.516318851E0,8.914215956E0
5.070636792E0,1.282956151E0,8.159781842E0,-2.618807677E0,8.665227628E0
5.080607792E0,4.033152445E-1,7.628917226E0,-3.224720721E0,8.292277429E0
5.090577792E0,-4.619915785E-1,6.645399181E0,-5.023219006E0,8.343110671E0
5.100548792E0,-1.327689544E0,4.624531285E0,-8.506494248E0,9.772895861E0
5.110518792E0,-2.955921879E0,2.595174401E0,-8.384017299E0,9.260893607E0
5.120489792E0,-3.975554374E0,1.078769773E0,-6.220490205E0,7.460782479E0
5.130459792E0,-4.290074058E0,-3.728258960E0,-4.965837940E0,7.547462934E0
5.140430792E0,-2.939636214E0,-7.501632112E0,5.761821746E0,9.905278150E0
5.150401792E0,-4.955911780E-1,-1.119814069E1,6.505322113E0,1.296006101E1
5.160371792E0,2.115562274E-1,-1.997332619E1,6.848785222E-2,1.997456397E1
5.170342792E0,-9.812940747E-2,-2.990809642E1,-5.447456136E-1,2.991321796E1
5.180312792E0,1.768685963E0,-3.305082047E1,1.459030871E0,3.313025437E1
5.190283792E0,5.980841487E0,-2.405867520E1,4.987963804E0,2.528774604E1
5.200253792E0,7.879669806E0,-1.366849575E1,8.964395553E0,1.814600121E1
5.210224792E0,8.970653828E0,-7.624230682E0,5.639248903E0,1.305383667E1
5.220194792E0,8.468376249E0,-5.856899226E0,-3.072485246E0,1.074508401E1
5.230165792E0,5.564738418E0,-7.285005051E0,-4.487058274E0,1.020643445E1
5.240136792E0,2.515096782E0,-9.969729559E0,1.392980723E0,1.037601150E1
5.250106792E0,1.331474739E0,-1.297718997E1,2.265412634E0,1.324055810E1
5.260077792E0,-1.225528161E0,-1.514815589E1,2.087976682E0,1.534041045E1
5.270047792E0,-3.364690492E0,-1.532161354E1,3.051901585E0,1.598083499E1
5.280018792E0,-3.634531309E0,-1.461885423E1,3.782628125E0,1.553154830E1
5.289988792E0,-4.420631566E0,-1.355416397E1,3.106784720E0,1.459141719E1
5.299959792E0,-5.528208523E0,-1.244460218E1,6.505672800E-1,1.363277120E1
5.309929792E0,-6.902749175E0,-1.147851936E1,-3.089410304E0,1.374586516E1
5.319900792E0,-7.407027671E0,-9.993354650E0,-6.267234017E0,1.392872637E1
5.329871792E0,-5.349108893E0,-8.074608375E0,-7.443728889E0,1.221561976E1
5.339841792E0,3.028828472E-2,-6.827308983E0,-8.184083455E0,1.065796825E1
5.349812792E0,3.678918692E0,-5.708585186E0,-7.181296495E0,9.883997517E0
5.359782792E0,4.520264904E0,-3.892066952E0,-3.981456261E0,7.171678599E0
5.369753792E0,4.368924930E0,-1.503681672E0,-1.243758903E0,4.784924223E0
5.379723792E0,3.592611158E0,1.349373066E0,-9.017700233E-2,3.838723029E0
5.389694792E0,2.617039771E0,4.080316306E0,-4.412303450E-1,4.867500646E0
5.399665792E0,1.659175508E0,6.323725137E0,-1.076430375E0,6.625787902E0
5.409635792E0,6.052817642E-1,7.927283099E0,-1.161732480E0,8.034787222E0
5.419606792E0,-3.065123236E-1,9.153022052E0,-1.237349185E0,9.241363292E0
5.429576792E0,-6.999465776E-1,1.006351890E1,-1.361911250E0,1.017934871E1
5.439547792E0,-8.593448923E-1,1.100072816E1,-1.860556539E0,1.119000288E1
5.449517792E0,-9.045054969E-1,1.183625318E1,-2.211558462E0,1.207501596E1
5.459488792E0,-7.602374375E-1,1.224450695E1,-1.866279209E0,1.240922679E1
5.469458792E0,-5.356187678E-1,1.221534805E1,-1.345024492E0,1.230084169E1
5.479429792E0,-3.546310712E-1,1.206945651E1,-1.236658044E0,1.213782793E1
5.489400792E0,-3.351512915E-1,1.201196084E1,-1.545460027E0,1.211560879E1
5.499370792E0,-3.181212759E-1,1.190573565E1,-1.909463235E0,1.206208076E1
5.509341792E0,-1.064767738E-1,1.138907567E1,-1.880344101E0,1.154374618E1
5.519311792E0,2.366479272E-1,9.983748844E0,-1.469256774E0,1.009405561E1
5.529282792E0,2.161075357E-1,9.058860830E0,-6.044676125E-1,9.081577126E0
5.539252792E0,6.756413832E-2,8.948205782E0,3.251472902E-1,8.954366108E0
5.549223792E0,1.841525752E-1,8.709397894E0,1.057199979E0,8.775260431E0
5.559193792E0,3.382832064E-1,8.627456768E0,1.804548984E0,8.820648663E0
5.569164792E0,5.531385608E-1,9.141313587E0,2.515731205E0,9.497288027E0
5.579135792E0,8.107185698E-1,9.701476847E0,2.875217439E0,1.015099960E1
5.589105792E0,1.023622489E0,1.017670228E1,2.839655258E0,1.061492884E1
5.599076792E0,1.204503328E0,1.039411462E1,2.319816152E0,1.071774202E1
5.609046792E0,1.597614706E0,1.031679338E1,9.033802003E-1,1.047877351E1
5.619017792E0,2.367466574E0,9.618504857E0,-1.975976483E0,1.010074337E1
5.628987792E0,2.642797633E0,8.056008382E0,-5.369054915E0,1.003545719E1
5.638958792E0,1.602577676E0,7.043012769E0,-5.565590358E0,9.118556909E0
5.648929792E0,7.879680770E-1,6.556346086E0,-5.184522636E0,8.395584712E0
5.658899792E0,3.718273669E-1,6.122865093E0,-4.895570780E0,7.848206534E0
5.668870792E0,6.676526248E-2,5.688024037E0,-4.873787563E0,7.490786357E0
5.678840792E0,-2.876976281E-1,5.117269131E0,-5.610340269E0,7.599021727E0
5.688811792E0,-4.331023863E-1,4.199418241E0,-8.079427650E0,9.115911496E0
5.698781792E0,-3.704597032E-1,2.838142583E0,-1.122222420E1,1.158147701E1
5.708752792E0,-1.506084585E0,3.383663245E0,-7.034492791E0,7.949940664E0
5.718722792E0,-1.681021144E0,3.415157518E0,-1.505247848E0,4.093275467E0
5.728693792E0,-1.660262213E0,9.712774837E-1,8.266179532E-2,1.925274926E0
5.738664792E0,-5.631688745E-1,-1.213786075E0,7.933027988E0,8.045083522E0
5.748634792E0,1.305614404E0,-5.991450675E0,6.806149664E0,9.161101648E0
5.758605792E0,2.646502429E0,-2.429630838E1,-2.106938209E1,3.226814896E1
5.768575792E0,1.055354890E0,-3.005481008E1,-4.462739705E0,3.040265495E1
5.778546792E0,-7.624175718E-1,-2.918516539E1,1.091218729E1,3.116778771E1
5.788516792E0,2.342336118E0,-3.120096258E1,1.138650056E1,3.329623100E1
5.798487792E0,7.769256833E0,-2.350506316E1,5.575902507E0,2.537597357E1
5.808458792E0,4.939987400E0,-1.024947673E1,2.029760049E0,1.155747267E1
5.818428792E0,-8.202769402E-1,-4.198834689E0,2.565910256E0,4.988683438E0
5.828399792E0,-3.577958913E0,-3.890687594E0,-1.086042832E0,5.396177255E0
5.838369792E0,-6.614317721E0,-9.723438989E0,-3.834765700E0,1.236931254E1
5.848340792E0,-6.091615233E0,-1.426932055E1,-1.983102192E0,1.564141871E1
5.858310792E0,-5.643022111E0,-1.465762478E1,-1.252829103E0,1.575624459E1
5.868281792E0,-6.624099528E0,-1.355319333E1,-6.429957935E-1,1.509904592E1
5.878251792E0,-6.499811697E0,-1.213857411E1,5.477750561E-1,1.378015207E1
5.888222792E0,-5.345252069E0,-1.057727865E1,5.080879569E-1,1.186206967E1
5.898193792E0,-4.306695060E0,-9.351533269E0,-3.894935596E-1,1.030293657E1
5.908163792E0,-2.905587585E0,-8.740112733E0,-1.766607717E0,9.378321418E0
5.918134792E0,-3.457851110E-1,-8.866228988E0,-3.034903729E0,9.377644931E0
5.928104792E0,3.366801337E0,-9.540388395E0,-3.925327084E0,1.085184568E1
5.938075792E0,7.001747214E0,-9.792135002E0,-4.508756415E0,1.285454225E1
5.948045792E0,9.107186313E0,-9.151508793E0,-4.211192780E0,1.358032033E1
5.958016792E0,9.668421367E0,-6.645106820E0,-2.995915664E0,1.210831644E1
5.967987792E0,9.065386323E0,-3.449951960E0,-1.895241637E0,9.883083455E0
5.977957792E0,7.820164447E0,-2.107704896E-1,-1.238165456E0,7.920381927E0
5.987928792E0,6.229335873E0,2.495156023E0,-7.797133434E-1,6.755618543E0
5.997898792E0,4.648879675E0,4.717607848E0,-4.073989034E-1,6.635802884E0
6.007869792E0,3.101331899E0,6.437797297E0,1.489519715E-1,7.147424731E0
6.017839792E0,1.878863586E0,8.000279739E0,3.346355671E-1,8.224754418E0
6.027810792E0,9.074014036E-1,9.528368273E0,-4.112019690E-1,9.580306170E0
6.037778458E0,1.941910750E-1,1.079330988E1,-1.245173344E0,1.086663265E1
6.047748458E0,-3.166752595E-1,1.176208593E1,-1.963013206E0,1.192897185E1
6.057719458E0,-6.510576421E-1,1.225545644E1,-2.580484441E0,1.254109200E1
6.067689458E0,-9.614991850E-1,1.244513661E1,-2.853210858E0,1.280416800E1
6.077660458E0,-1.264153698E0,1.249639564E1,-2.015203114E0,1.272081099E1
6.087630458E0,-1.445457145E0,1.228417797E1,-7.044520766E-1,1.238897201E1
6.097601458E0,-1.503163901E0,1.190819615E1,4.550193585E-2,1.200277917E1
6.107571458E0,-1.509300261E0,1.151457914E1,7.523195766E-2,1.161331907E1
6.117542458E0,-1.626191365E0,1.123408937E1,-3.728191278E-1,1.135729970E1
6.127513458E0,-1.654807346E0,1.088668992E1,-8.712983552E-1,1.104615614E1
6.137483458E0,-1.546052935E0,1.045524960E1,-1.205225751E0,1.063743827E1
6.147454458E0,-1.247087722E0,1.004308405E1,-1.302116454E0,1.020364015E1
6.157424458E0,-8.716438526E-1,9.760371757E0,-1.274929240E0,9.881804714E0
6.167395458E0,-5.507317007E-1,9.548193843E0,-1.173759545E0,9.635819765E0
6.177365458E0,-8.379644752E-2,9.433074446E0,-1.016365364E0,9.488040572E0
6.187336458E0,5.534879319E-1,9.318671333E0,-9.229017144E-1,9.380604025E0
6.197307458E0,1.114413376E0,8.995546594E0,-8.774682641E-1,9.106685800E0
6.207277458E0,1.432813856E0,8.442333920E0,-6.616674149E-1,8.588583197E0
6.217248458E0,1.326637630E0,8.094121118E0,-3.336386168E-1,8.208902412E0
6.227218458E0,1.066738396E0,7.910379383E0,-1.881412168E-1,7.984198764E0
6.237189458E0,9.142994370E-1,7.877359571E0,-2.699145277E-1,7.934834033E0
6.247159458E0,9.178272083E-1,7.908245734E0,-6.378680778E-1,7.986841244E0
6.257130458E0,1.016166266E0,7.936401247E0,-1.174173528E0,8.086887047E0
6.267101458E0,1.126034717E0,7.940818818E0,-1.562936186E0,8.171127658E0
6.277071458E0,1.168900801E0,7.646790994E0,-1.946215032E0,7.976684433E0
6.287042458E0,1.164339827E0,6.779254811E0,-3.176895175E0,7.576717361E0
6.297012458E0,6.540927856E-1,5.750213853E0,-4.431015636E0,7.288806233E0
6.306983458E0,-5.307880175E-1,4.816410005E0,-4.884719517E0,6.880408855E0
6.316953458E0,-1.281900583E0,1.922780854E0,-8.677117170E0,8.979572245E0
6.326924458E0,-1.889005582E0,-9.247909498E-1,-5.022091663E0,5.444720843E0
6.336895458E0,-1.215034748E0,-6.345108404E0,-3.929118419E0,7.561394160E0
6.346865458E0,-8.843792345E-1,-2.081255600E1,-2.451396513E1,3.216953684E1
6.356836458E0,-1.682701049E0,-2.773506994E1,-1.583258067E1,3.198024699E1
6.366806458E0,-6.213770000E0,-3.309521720E1,3.499443378E0,3.385484372E1
6.376777458E0,-7.005846112E0,-3.561499995E1,1.321145048E1,3.862709573E1
6.386747458E0,-4.150114227E0,-2.745190799E1,1.571308931E1,3.190191023E1
6.396718458E0,-1.797950693E0,-1.448549796E1,1.213896471E1,1.898464490E1
6.406688458E0,-2.690298805E-1,-4.667280278E0,4.127099878E0,6.236091378E0
6.416659458E0,2.569423702E-1,1.537503721E0,-1.959567441E0,2.503965182E0
6.426630458E0,2.210902770E-1,4.107892944E0,-5.002366666E0,6.476676432E0
6.436600458E0,-7.352093811E-1,5.794941545E-1,-5.847450126E0,5.921910104E0
6.446571458E0,2.198553085E-3,-9.367992597E0,-5.876269298E0,1.105847327E1
6.456541458E0,1.620286846E0,-1.817204229E1,-2.955070524E0,1.848190716E1
6.466512458E0,5.102340312E-1,-2.294842694E1,9.056652921E-1,2.297195828E1
6.476482458E0,-2.085829293E0,-2.207424481E1,1.448330466E0,2.221982513E1
6.486453458E0,-3.144666492E0,-1.608910503E1,9.517738035E-1,1.642114800E1
6.496424458E0,-3.315216324E0,-1.193412505E1,6.196502003E-1,1.240153080E1
6.506394458E0,-3.170637485E0,-1.041818293E1,-3.844917051E-1,1.089675693E1
6.516365458E0,-2.638083023E0,-9.054639725E0,-2.034805027E0,9.648130082E0
6.526335458E0,-1.932347337E0,-7.146085147E0,-4.432246767E0,8.628169595E0
6.536306458E0,-6.556740189E-1,-5.234135091E0,-6.496801550E0,8.368662316E0
6.546276458E0,1.092360602E0,-4.051868432E0,-7.799420865E0,8.856740670E0
6.556247458E0,2.733015493E0,-3.600896078E0,-8.063635490E0,9.244351982E0
6.566218458E0,3.756931951E0,-2.965086220E0,-6.735995940E0,8.263166178E0
6.576188458E0,4.357766104E0,-1.642420896E0,-4.747912213E0,6.650589613E0
6.586159458E0,4.295278372E0,1.633478165E-1,-2.683829885E0,5.067449225E0
6.596129458E0,4.036003474E0,2.148648269E0,-8.615942430E-1,4.652779607E0
6.606100458E0,3.650142497E0,4.380600650E0,-3.818584481E-2,5.702162789E0
6.616070458E0,3.101695889E0,6.461842217E0,2.679171189E-1,7.172705334E0
6.626041458E0,2.546766180E0,8.178247349E0,4.772824860E-1,8.578901226E0
6.636012458E0,1.855249313E0,9.310540195E0,4.177847278E-1,9.502770796E0
6.645982458E0,1.082663945E0,1.021778599E1,1.531222788E-1,1.027612564E1
6.655953458E0,3.465910035E-1,1.104688492E1,-3.462568351E-1,1.105774324E1
6.665923458E0,-4.703547049E-1,1.196486737E1,-1.091414376E0,1.202374609E1
6.675894458E0,-1.094776525E0,1.259587549E1,-1.522240734E0,1.273467047E1
6.685864458E0,-1.460620729E0,1.245850101E1,-1.172854323E0,1.259854148E1
6.695835458E0,-1.785375963E0,1.209745181E1,-8.312256322E-1,1.225670607E1
6.705806458E0,-2.197454394E0,1.189787231E1,-1.147359366E0,1.215337833E1
6.715776458E0,-2.716031963E0,1.191406208E1,-1.857217194E0,1.236005504E1
6.725747458E0,-3.263662885E0,1.183385231E1,-2.785372632E0,1.258768671E1
6.735717458E0,-3.425272032E0,1.151970130E1,-3.667348514E0,1.256524777E1
6.745688458E0,-3.081349917E0,1.081273433E1,-4.194823499E0,1.200027022E1
6.755658458E0,-2.447061505E0,9.891344125E0,-4.176647429E0,1.101231957E1
6.765629458E0,-1.692804599E0,9.064683487E0,-3.665858059E0,9.923335601E0
6.775600458E0,-8.861231665E-1,8.500239481E0,-2.594035363E0,8.931310373E0
6.785570458E0,-1.696095997E-1,8.179335515E0,-1.164381781E0,8.263539304E0
6.795541458E0,4.819145040E-1,7.935921775E0,1.800111751E-1,7.952578200E0
6.805511458E0,9.761571313E-1,7.554308508E0,1.346003315E0,7.735126677E0
6.815482458E0,1.277123407E0,7.383336507E0,2.367441723E0,7.858083894E0
6.825452458E0,1.403193762E0,7.823175763E0,2.911829195E0,8.464619366E0
6.835423458E0,1.395215675E0,8.315299067E0,2.828472458E0,8.893316693E0
6.845394458E0,1.455609665E0,8.700867391E0,2.117337599E0,9.072321167E0
6.855364458E0,1.531087279E0,8.858500723E0,6.929815936E-1,9.016511898E0
6.865335458E0,1.627412409E0,8.770061002E0,-4.599442490E-1,8.931628622E0
6.875305458E0,1.806156676E0,8.579255830E0,-1.075340088E0,8.833016973E0
6.885276458E0,2.035796130E0,8.162258722E0,-2.262514316E0,8.711251595E0
6.895246458E0,2.262336560E0,7.149857186E0,-4.634151124E0,8.815553365E0
6.905217458E0,1.807695516E0,6.032593439E0,-5.379908516E0,8.282714671E0
6.915188458E0,1.177149030E0,4.926427706E0,-3.965327009E0,6.432665705E0
6.925158458E0,7.042332445E-1,1.834881415E0,-4.486070095E0,4.897709584E0
6.935129458E0,-5.640278305E-1,-1.041347008E0,-1.962107764E0,2.291811044E0
6.945099458E0,1.639397009E-1,-5.022224395E0,-9.976849714E-1,5.122986375E0
6.955070458E0,1.666900411E0,-2.173492387E1,-3.349949603E1,3.996750814E1
6.965040458E0,-1.874341203E0,-3.378691007E1,-2.110046355E1,3.987854071E1
6.975011458E0,-5.377537470E0,-3.440765282E1,5.780041670E0,3.530174732E1
6.984982458E0,-5.658471624E0,-3.141992443E1,1.482764544E1,3.520069632E1
6.994952458E0,-2.855217915E0,-2.408621558E1,1.525985291E1,2.865590971E1
7.004923458E0,-2.313936192E-1,-1.188067682E1,1.137393138E1,1.644902246E1
7.014893458E0,-3.439916968E-2,-3.131172287E0,6.101023403E0,6.857689827E0
7.024864458E0,-1.227749811E0,2.031646653E0,-3.510808611E-1,2.399628199E0
7.034834792E0,-3.660936750E0,3.743259407E0,-9.659562836E0,1.098733831E1
7.044805792E0,-4.574777911E0,-3.974951819E0,-1.571963351E1,1.684742451E1
7.054776792E0,-2.197469596E0,-1.446662080E1,-7.161293170E0,1.629098247E1
7.064746792E0,-2.837332159E-1,-1.911685294E1,4.957856491E0,1.975132684E1
7.074717792E0,1.251070261E-1,-2.082246119E1,7.612259678E0,2.217063461E1
7.084687792E0,-3.165542221E-1,-1.875387416E1,3.490598295E0,1.907858169E1
7.094658792E0,-1.798486590E0,-1.360416468E1,4.879735351E-2,1.372261753E1
7.104628792E0,-2.726689391E0,-1.056753719E1,-2.514209175E-1,1.091654203E1
7.114599792E0,-2.920576337E0,-9.231134421E0,3.215315183E-1,9.687465683E0
7.124570792E0,-2.701717394E0,-8.529196063E0,7.833909497E-2,8.947211821E0
7.134540792E0,-2.373407053E0,-7.530999752E0,-1.420325666E0,8.022863784E0
7.144511792E0,-2.112868280E0,-5.853292079E0,-4.209462004E0,7.512976167E0
7.154481792E0,-1.212089505E0,-4.230004442E0,-6.896064638E0,8.180330436E0
7.164452792E0,9.573255155E-1,-3.480825258E0,-7.453059876E0,8.281347604E0
7.174422792E0,2.778574366E0,-2.883121120E0,-6.138688828E0,7.329144795E0
7.184393792E0,3.360037278E0,-2.155406481E0,-4.263362807E0,5.840538505E0
7.194364792E0,3.489982583E0,-7.438839447E-1,-2.157302148E0,4.169807467E0
7.204334792E0,3.111810110E0,1.473902972E0,-4.771725583E-1,3.476125110E0
7.214305792E0,2.535543619E0,3.935769626E0,1.247404057E-1,4.683462839E0
7.224275792E0,2.116694697E0,6.654515575E0,1.631115890E-1,6.984953784E0
7.234246792E0,1.523221897E0,8.963095132E0,-5.458223419E-1,9.107974600E0
7.244216792E0,7.954469582E-1,1.068496449E1,-1.481431847E0,1.081646163E1
7.254187792E0,2.478582090E-1,1.177894111E1,-2.096418600E0,1.196661432E1
7.264158792E0,-3.312126070E-2,1.245447578E1,-2.482286301E0,1.269948067E1
7.274128792E0,-2.362219210E-1,1.289790289E1,-2.903969952E0,1.322288703E1
7.284099792E0,-3.806849850E-1,1.295679722E1,-2.894743631E0,1.328168121E1
7.294069792E0,-4.673217541E-1,1.266888850E1,-1.985919088E0,1.283210817E1
7.304040792E0,-4.769608891E-1,1.233647663E1,-1.121995314E0,1.239657295E1
7.314010792E0,-4.022296724E-1,1.202551469E1,-8.612983739E-1,1.206302728E1
7.323981792E0,-1.861143526E-1,1.171782368E1,-1.154935969E0,1.177607351E1
7.333952792E0,1.120440905E-1,1.054014416E1,-2.288949870E0,1.078640275E1
7.343922792E0,2.989851663E-1,8.722007999E0,-3.835421466E0,9.532747426E0
7.353893792E0,3.461390868E-1,7.988172494E0,-4.856795554E0,9.355168364E0
7.363863792E0,1.422447401E-1,8.065198451E0,-4.748333212E0,9.360252556E0
7.373834792E0,-1.210299819E-1,8.685022606E0,-3.453512914E0,9.347246513E0
7.383804792E0,-1.643968070E-1,9.383555546E0,-1.530664233E0,9.508999631E0
7.393775792E0,-2.419826344E-1,9.703243291E0,4.131291747E-1,9.715048207E0
7.403746792E0,-1.938594283E-1,9.633916363E0,1.963204994E0,9.833824272E0
7.413716792E0,-3.706082225E-2,9.443888286E0,2.847602209E0,9.863936223E0
7.423687792E0,1.580207837E-1,9.268758915E0,3.144658890E0,9.788960207E0
7.433657792E0,3.490279768E-1,9.241727237E0,2.830623649E0,9.671802991E0
7.443628792E0,4.683567113E-1,9.309382446E0,1.863492426E0,9.505606953E0
7.453598792E0,4.885248544E-1,9.336535746E0,4.200288892E-1,9.358738191E0
7.463569792E0,5.013862438E-1,9.134770553E0,-1.040148329E0,9.207460549E0
7.473540792E0,4.833423575E-1,8.718818927E0,-2.112744026E0,8.984158872E0
7.483510792E0,3.803804182E-1,8.097017829E0,-2.794648654E0,8.574173318E0
7.493481792E0,2.632760011E-1,7.333665580E0,-3.479128104E0,8.121348253E0
7.503451792E0,3.678149345E-1,6.032926730E0,-5.485775864E0,8.162427922E0
7.513422792E0,6.945843885E-1,3.632097405E0,-1.050635427E1,1.113813535E1
7.523392792E0,6.495976654E-1,1.288314686E0,-1.496271846E1,1.503212146E1
7.533363792E0,9.172384668E-1,-1.473967876E0,-1.332260605E1,1.343524244E1
7.543334792E0,9.054661945E-1,-6.950367730E0,-7.699999487E0,1.041237114E1
7.553304792E0,-4.754126926E-1,-1.288980099E1,-8.640284389E-1,1.292747199E1
7.563275792E0,-2.367933474E0,-2.171945447E1,-7.271457052E-1,2.186025051E1
7.573245792E0,-5.307956774E0,-3.065068813E1,2.339552551E0,3.119475267E1
7.583216792E0,-7.314078577E0,-3.465430241E1,8.561909480E0,3.643792962E1
7.593186792E0,-5.217528414E0,-2.822796683E1,1.204066833E1,3.112906050E1
7.603157792E0,-2.686175787E-1,-1.439440886E1,1.108230735E1,1.816834329E1
7.613128792E0,2.994502977E0,-5.831173816E0,1.058536068E-1,6.555977512E0
7.623098792E0,7.097172604E0,-4.522804350E0,-2.134084492E1,2.294029817E1
7.633069792E0,4.780983480E0,-8.359419817E0,-1.146807272E1,1.497512587E1
7.643039792E0,4.624689306E-1,-1.084187569E1,5.715967880E0,1.226509008E1
7.653010792E0,1.098945883E0,-1.227520015E1,7.239587388E0,1.429334973E1
7.662981792E0,1.859667762E0,-1.278603864E1,2.703680597E0,1.320041806E1
7.672951792E0,-1.457787461E0,-1.217681841E1,-1.979672800E0,1.242252612E1
7.682922792E0,-4.643818618E0,-1.086039733E1,-2.024850435E0,1.198387670E1
7.692892792E0,-5.166343642E0,-9.670555601E0,-3.429579091E-1,1.096942899E1
7.702863792E0,-4.914301751E0,-8.562302413E0,1.140721607E-1,9.873013561E0
7.712833792E0,-4.572150757E0,-7.241563162E0,-3.050185427E-1,8.569587848E0
7.722804792E0,-3.832493472E0,-6.590179830E0,-5.388025036E-1,7.642564004E0
7.732775792E0,-2.190445044E0,-6.781282040E0,3.861314106E-1,7.136731259E0
7.742745792E0,4.904040033E-1,-7.544998571E0,-5.625078468E-1,7.581814730E0
7.752716792E0,3.529068588E0,-8.476516158E0,-4.797334049E0,1.035953982E1
7.762686792E0,5.690934781E0,-8.664759080E0,-8.071717511E0,1.313839458E1
7.772657792E0,5.380905467E0,-7.617575966E0,-6.069536147E0,1.112748293E1
7.782627792E0,4.246210877E0,-5.751331841E0,-2.437431725E0,7.553091961E0
7.792598792E0,3.697881797E0,-3.600082730E0,-1.294316268E0,5.320731158E0
7.802569792E0,3.158311554E0,-9.611506909E-1,-1.154197100E0,3.497272290E0
7.812539792E0,2.520984052E0,1.705245720E0,-1.560647585E0,3.420357356E0
7.822510792E0,2.130849052E0,4.477168002E0,-1.976678149E0,5.337865444E0
7.832480792E0,1.662469245E0,7.058265231E0,-2.753476070E0,7.756580595E0
7.842451792E0,1.199846386E0,9.389751256E0,-4.003252342E0,1.027779594E1
7.852421792E0,5.913341814E-1,1.146320667E1,-5.113074338E0,1.256575953E1
7.862392792E0,7.481424719E-2,1.272919318E1,-5.139895517E0,1.372794530E1
7.872363792E0,-1.750547462E-1,1.321135692E1,-4.008060508E0,1.380706866E1
7.882333792E0,-1.347061077E-1,1.303828168E1,-2.527299922E0,1.328164823E1
7.892304792E0,-7.585008144E-3,1.255565016E1,-1.126362015E0,1.260607392E1
7.902274792E0,2.169191292E-1,1.221437040E1,-2.257072020E-1,1.221838131E1
7.912245792E0,4.142547637E-1,1.194832793E1,6.468306899E-2,1.195568197E1
7.922216792E0,6.553902096E-1,1.165356395E1,-8.494257487E-2,1.167228787E1
7.932186792E0,1.064356459E0,1.127067891E1,-7.859570733E-1,1.134807412E1
7.942157792E0,1.210585017E0,1.016602994E1,-1.807573164E0,1.039620131E1
7.952127792E0,5.228462561E-1,8.950359896E0,-2.578371842E0,9.329003797E0
7.962098792E0,-8.292345822E-2,8.506797718E0,-2.880772879E0,8.981722335E0
7.972068792E0,-6.643463168E-1,8.407547665E0,-2.728777431E0,8.864222472E0
7.982039792E0,-1.367171990E0,8.724570249E0,-2.269324275E0,9.117955798E0
7.992010792E0,-1.776318334E0,9.339616059E0,-1.531782221E0,9.629646501E0
8.001980792E0,-1.514446688E0,9.968061934E0,-2.744964059E-1,1.008618638E1
8.011951792E0,-8.744168215E-1,1.026802644E1,1.202407393E0,1.037510266E1
8.021921792E0,-3.028629667E-1,1.025727574E1,2.302166916E0,1.051681531E1
8.031892792E0,3.617204547E-2,1.019474094E1,2.857695673E0,1.058775122E1
8.041862458E0,2.603390908E-1,1.022130134E1,2.915378455E0,1.063213097E1
8.051833458E0,4.519038890E-1,1.025334525E1,2.654035982E0,1.060090623E1
8.061804458E0,6.542689329E-1,1.031229454E1,2.102452927E0,1.054475200E1
8.071774458E0,8.364273883E-1,1.018700508E1,1.231127893E0,1.029516193E1
8.081745458E0,8.585267937E-1,9.343848274E0,5.529618287E-1,9.399485922E0
8.091715458E0,6.352307642E-1,8.239796895E0,4.961727932E-2,8.264395493E0
8.101686458E0,2.896108371E-1,7.459999352E0,-1.189148247E0,7.559731365E0
8.111657458E0,-7.475577503E-2,6.837455072E0,-2.160118167E0,7.170947691E0
8.121627458E0,1.942800258E-1,5.781823316E0,-3.290854484E0,6.655595302E0
8.131598458E0,4.483984832E-1,3.273136252E0,-7.169386886E0,7.893959111E0
8.141568458E0,-1.512540934E-1,1.562767786E-1,-8.134437670E0,8.137344557E0
8.151539458E0,-1.013924005E0,-4.781262977E0,-7.540164678E0,8.985688672E0
8.161509458E0,-7.177599739E-1,-1.598215010E1,-1.732920358E1,2.358485951E1
8.171480458E0,7.003445537E-1,-2.377268554E1,-1.075572515E1,2.610204367E1
8.181451458E0,-1.827733778E0,-3.177645256E1,-1.321457874E0,3.185639337E1
8.191421458E0,-4.447764401E0,-4.471239977E1,7.058358201E-1,4.493861931E1
8.201392458E0,2.016906407E-1,-4.352570502E1,1.045229559E0,4.353872048E1
8.211362458E0,2.418481192E0,-2.271929093E1,7.785962913E0,2.413786341E1
8.221333458E0,6.749517041E-1,-1.005059070E1,1.015645221E1,1.430466549E1
8.231303458E0,3.956021458E-2,-2.793130717E0,7.794551303E0,8.279986367E0
8.241274458E0,-7.761719772E-1,2.329230754E0,4.109394509E0,4.786949141E0
8.251245458E0,-2.103386435E0,5.715269723E0,-1.772919055E0,6.342853023E0
8.261215458E0,-4.967492702E0,4.727673245E0,-7.613116879E0,1.024628843E1
8.271186458E0,-7.152550414E0,-2.784495549E0,-8.762564871E0,1.164881694E1
8.281156458E0,-5.284612350E0,-1.060444716E1,-6.912807555E0,1.371744639E1
8.291127458E0,-2.489246827E0,-1.618888075E1,-1.238801048E0,1.642591969E1
8.301097458E0,-3.599958184E-1,-2.026610096E1,4.315339584E0,2.072357596E1
8.311068458E0,2.028705212E0,-2.078520039E1,5.159579583E0,2.151189117E1
8.321039458E0,3.387249343E0,-1.784154597E1,3.029764903E0,1.841123831E1
8.331009458E0,3.473458351E0,-1.391473369E1,7.900500512E-1,1.436345731E1
8.340980458E0,2.957995009E0,-1.016152876E1,-5.666383199E-1,1.059846593E1
8.350950458E0,2.310191343E0,-7.596069907E0,-1.562900956E0,8.091966477E0
8.360921458E0,1.674625752E0,-5.885159989E0,-2.566868907E0,6.635382091E0
8.370892458E0,7.822043303E-1,-4.260235131E0,-4.128695583E0,5.983943032E0
8.380862458E0,7.630367920E-1,-2.365254865E0,-5.299257871E0,5.853100862E0
8.390833458E0,1.436410040E0,-4.386815071E-1,-5.281273005E0,5.490679359E0
8.400803458E0,1.783146128E0,1.182996392E0,-4.571208186E0,5.047279946E0
8.410774458E0,1.762563344E0,2.764780492E0,-3.340313158E0,4.680633793E0
8.420744458E0,1.594437329E0,4.405208657E0,-2.128201725E0,5.145613306E0
8.430715458E0,1.268366033E0,6.424023011E0,-1.624057131E0,6.746435029E0
8.440686458E0,9.066794917E-1,8.486604359E0,-1.499567571E0,8.665634665E0
8.450656458E0,6.177638885E-1,1.021065122E1,-1.775769573E0,1.038231131E1
8.460627458E0,5.264689351E-1,1.140991515E1,-2.066124176E0,1.160742014E1
8.470597458E0,3.426640865E-1,1.218182714E1,-2.328729647E0,1.240714765E1
8.480568458E0,4.221543521E-2,1.277682811E1,-2.993810667E0,1.312295778E1
8.490539458E0,-3.983385696E-1,1.329193623E1,-3.516193897E0,1.375492137E1
8.500509458E0,-7.895775962E-1,1.330508428E1,-2.621623111E0,1.358387309E1
8.510480458E0,-9.207695273E-1,1.284981188E1,-9.165381896E-1,1.291532130E1
8.520450458E0,-8.779894703E-1,1.220256955E1,3.337812158E-1,1.223866737E1
8.530421458E0,-7.396344808E-1,1.071363689E1,5.837965357E-1,1.075499386E1
8.540391458E0,-1.280767538E-1,8.535390018E0,5.994909011E-2,8.536561387E0
8.550362458E0,4.327556464E-1,7.887852985E0,-7.713775527E-1,7.937287036E0
8.560333458E0,6.645063112E-1,7.306964269E0,-1.994299318E0,7.603323302E0
8.570303458E0,1.021082239E0,6.391845199E0,-4.045556363E0,7.633139608E0
8.580274458E0,1.296220121E0,5.783615488E0,-6.450582819E0,8.760160582E0
8.590244458E0,6.690667740E-1,7.380956690E0,-6.730986046E0,1.001161052E1
8.600215458E0,-1.068945573E-1,9.481042079E0,-4.717717191E0,1.059048823E1
8.610185458E0,-6.378930746E-1,1.032455849E1,-2.094497205E0,1.055416193E1
8.620156458E0,-8.684541965E-1,1.026393923E1,3.798444843E-1,1.030761578E1
8.630127458E0,-8.367579022E-1,1.004631054E1,2.211585360E0,1.032083471E1
8.640097458E0,-8.032882205E-1,1.012070935E1,3.163712043E0,1.063405395E1
8.650068458E0,-7.459716200E-1,1.035163928E1,3.488613750E0,1.094912487E1
8.660038458E0,-6.898805228E-1,1.056336462E1,3.178200274E0,1.105267227E1
8.670009458E0,-6.822194277E-1,1.066938400E1,2.409927592E0,1.095942194E1
8.679980458E0,-7.353307108E-1,1.061459792E1,1.449552827E0,1.073832407E1
8.689950458E0,-8.072415230E-1,1.014605235E1,6.413565266E-1,1.019830159E1
8.699921458E0,-5.523153459E-1,8.888195223E0,-9.046574514E-2,8.905798707E0
8.709891458E0,8.976696633E-2,7.407477322E0,-1.351193304E0,7.530239154E0
8.719862458E0,7.549345976E-1,5.292839967E0,-4.463362141E0,6.964602125E0
8.729832458E0,1.404469771E0,3.054449217E0,-8.508481132E0,9.148576202E0
8.739803458E0,2.674650925E0,-1.671309650E0,-1.952062072E1,1.977376208E1
8.749774458E0,1.944955103E0,-9.077554379E0,-2.116939754E1,2.311554101E1
8.759744458E0,9.330305538E-1,-1.209685774E1,-3.811243229E0,1.271731450E1
8.769715458E0,1.207769656E0,-1.562074423E1,1.752084549E0,1.576502959E1
8.779685458E0,1.049072349E0,-2.628012832E1,-6.065162430E0,2.699132995E1
8.789656458E0,1.371984833E0,-3.978719647E1,-1.263841048E1,4.176880134E1
8.799627458E0,2.598813708E0,-3.466218446E1,4.588888120E0,3.506107184E1
8.809597458E0,2.927630126E0,-1.733591267E1,1.514362430E1,2.320418590E1
8.819568458E0,1.526564165E0,-5.895187964E0,1.440642840E1,1.564061439E1
8.829538458E0,3.563118533E-1,7.467888415E-2,7.652019575E0,7.660674816E0
8.839509458E0,-2.359738894E-1,3.140296283E0,-1.067212459E0,3.325069451E0
8.849479458E0,-1.684999297E0,2.337395221E-1,-9.285253910E0,9.439798567E0
8.859450458E0,-3.599840655E0,-7.220985641E0,-8.525093071E0,1.173791712E1
8.869421458E0,-3.473532319E0,-1.222304767E1,-1.559101582E0,1.280230912E1
8.879391458E0,-1.691657960E0,-1.565216834E1,2.094313895E0,1.588200966E1
8.889362458E0,4.535395744E-1,-1.784237861E1,3.165809146E0,1.812673496E1
8.899332458E0,9.508835649E-1,-1.725194432E1,2.869600604E0,1.751480431E1
8.909303458E0,-2.769039787E-1,-1.509155601E1,1.712876483E0,1.519097378E1
8.919274458E0,-1.309291864E0,-1.289309999E1,5.858749285E-1,1.297264514E1
8.929244458E0,-1.637948946E0,-1.076311018E1,-1.088941589E-1,1.088757436E1
8.939215458E0,-2.019461933E0,-8.803815808E0,-1.097998634E0,9.098956000E0
8.949185458E0,-2.479152194E0,-7.372675864E0,-2.570971606E0,8.192218258E0
8.959156458E0,-2.457495861E0,-6.386687370E0,-4.084082497E0,7.969240322E0
8.969126458E0,-1.492152717E0,-5.582056117E0,-5.538033600E0,8.003479642E0
8.979097458E0,5.839497328E-2,-4.795307404E0,-6.259556623E0,7.885457005E0
8.989068458E0,1.227466513E0,-3.492869938E0,-5.800854249E0,6.881622226E0
8.999038458E0,1.727534429E0,-1.496693079E0,-4.538723395E0,5.081778767E0
9.009009458E0,1.892624716E0,6.473879296E-1,-3.224350008E0,3.794413317E0
9.018979458E0,1.715216392E0,2.881564592E0,-1.915448445E0,3.861906849E0
9.028950458E0,1.413511174E0,5.182043417E0,-9.854604900E-1,5.461018237E0
9.038921167E0,1.219402033E0,7.556380177E0,-3.970411456E-1,7.664428509E0
9.048891167E0,1.057136537E0,9.688484334E0,-1.989877653E-1,9.748018387E0
9.058862167E0,9.248464984E-1,1.139639638E1,-5.642434466E-1,1.144777543E1
9.068832167E0,8.582370642E-1,1.256071735E1,-1.109833106E0,1.263882593E1
9.078803167E0,7.305154556E-1,1.326530684E1,-1.979804655E0,1.343211245E1
9.088773167E0,6.393319282E-1,1.357491691E1,-2.695465844E0,1.385469778E1
9.098744167E0,6.107109770E-1,1.325929006E1,-2.117785496E0,1.344123343E1
9.108715167E0,4.975521514E-1,1.267297103E1,-4.093600595E-1,1.268933917E1
9.118685167E0,5.329538262E-1,1.214833194E1,1.368402829E0,1.223676980E1
9.128656167E0,6.945783951E-1,1.156330048E1,2.238509449E0,1.179844403E1
9.138626167E0,9.327501798E-1,1.096122905E1,2.243535131E0,1.122728886E1
9.148597167E0,1.176433184E0,9.972937342E0,1.727690257E0,1.018962158E1
9.158568167E0,1.001146523E0,8.711897578E0,7.591282207E-1,8.802029847E0
9.168538167E0,8.516443285E-1,8.152696186E0,-8.209338748E-1,8.238063218E0
9.178509167E0,9.639722648E-1,7.495562117E0,-3.696702706E0,8.412984303E0
9.188479167E0,9.184882361E-1,6.443490146E0,-6.734161084E0,9.365421048E0
9.198450167E0,1.690158515E-1,5.928939262E0,-7.505406489E0,9.566191180E0
9.208421167E0,-8.392923778E-1,6.733850012E0,-5.940595686E0,9.018859395E0
9.218391167E0,-1.345732005E0,8.363730385E0,-3.211619450E0,9.059662249E0
9.228362167E0,-1.591378212E0,9.400449321E0,-5.446073635E-1,9.549739747E0
9.238332167E0,-1.496475563E0,9.664638219E0,1.678804611E0,9.922855231E0
9.248303167E0,-1.305728279E0,9.636165787E0,3.279324360E0,1.026228949E1
9.258273167E0,-1.425286590E0,9.780257553E0,4.212306089E0,1.074376109E1
9.268244167E0,-1.608971022E0,1.000326568E1,4.171284363E0,1.095690309E1
9.278215167E0,-1.768459676E0,1.024981938E1,3.369970236E0,1.093356969E1
9.288185167E0,-1.853199572E0,1.007876844E1,2.695400355E0,1.059627788E1
9.298156167E0,-1.455377823E0,8.828120345E0,2.296194570E0,9.237225933E0
9.308126167E0,-8.483298343E-1,7.459307041E0,1.110355993E0,7.589058932E0
9.318097167E0,-6.325757629E-1,6.258082539E0,-1.517257591E0,6.470380187E0
9.328068167E0,4.501712859E-2,4.381236827E0,-6.779011567E0,8.071695020E0
9.338038167E0,-1.637570667E-1,-2.085266206E0,-1.863820104E1,1.875520433E1
9.348009167E0,-1.217270139E0,-1.090728615E1,-1.514605908E1,1.870437765E1
9.357979167E0,1.202331380E0,-1.765681255E1,-7.676534611E0,1.929087385E1
9.367950167E0,3.415466836E0,-2.284095979E1,-6.312958074E0,2.394218657E1
9.377921167E0,1.009113939E0,-3.486089624E1,-5.957415202E0,3.538066129E1
9.387891167E0,-1.590380677E0,-3.977439341E1,6.341230531E0,4.030809952E1
9.397862167E0,-1.944072028E0,-3.143445827E1,1.139142859E1,3.349133064E1
9.407832167E0,-3.193726678E0,-1.413716879E1,7.769541593E0,1.644461031E1
9.417803167E0,-3.409057995E0,-4.730754143E0,3.804895492E0,6.962682018E0
9.427773167E0,-2.870350217E0,-6.058656818E-1,-6.474124879E-2,2.934309973E0
9.437744167E0,-2.612902574E0,1.284998730E0,-2.357711664E0,3.746636610E0
9.447715167E0,-3.536220610E0,-9.316427171E-2,-6.430307599E0,7.339100190E0
9.457685167E0,-4.157134686E0,-6.305778862E0,-4.988994083E0,9.051777606E0
9.467656167E0,-2.171946208E0,-1.033348718E1,8.815466970E-2,1.055964388E1
9.477626167E0,4.415940052E-1,-1.272112870E1,4.413216419E0,1.347214162E1
9.487597167E0,1.982661312E0,-1.452374693E1,6.641669827E0,1.609291611E1
9.497568167E0,2.842684993E0,-1.491166642E1,5.823644357E0,1.625895098E1
9.507538167E0,3.331333297E0,-1.355100647E1,2.376741281E0,1.415543914E1
9.517509167E0,3.179102207E0,-1.169037802E1,-8.709800474E-1,1.214620250E1
9.527479167E0,2.724568898E0,-1.004281391E1,-3.117286320E0,1.086272806E1
9.537450167E0,2.148314978E0,-8.187678323E0,-4.327214402E0,9.506740663E0
9.547420167E0,1.311148063E0,-6.481068447E0,-4.589912260E0,8.049264066E0
9.557391167E0,6.280508950E-1,-5.025300615E0,-4.018311846E0,6.464899403E0
9.567362167E0,3.867752621E-1,-3.494676143E0,-2.918202660E0,4.569273817E0
9.577332167E0,3.239486110E-1,-1.588608971E0,-2.177583801E0,2.714865074E0
9.587303167E0,2.917984997E-1,5.344074440E-1,-1.530398769E0,1.647075613E0
9.597273167E0,4.451522552E-1,2.660651522E0,-8.072291708E-1,2.815820659E0
9.607244167E0,6.011978861E-1,4.816521687E0,-2.019101854E-1,4.858095077E0
9.617215167E0,6.591449261E-1,6.708782998E0,1.202924287E-1,6.742159270E0
9.627185167E0,6.746046719E-1,8.632199444E0,-2.790963739E-1,8.663016420E0
9.637156167E0,7.610876226E-1,1.059853796E1,-1.321519269E0,1.070769230E1
9.647126167E0,9.167039582E-1,1.211455141E1,-2.465872582E0,1.239690403E1
9.657097167E0,9.743759233E-1,1.312937077E1,-3.671149789E0,1.366774034E1
9.667068167E0,9.699188831E-1,1.398910794E1,-5.496146486E0,1.506132497E1
9.677038167E0,8.940106219E-1,1.433185886E1,-6.062553987E0,1.558704571E1
9.687009167E0,8.584216169E-1,1.356064035E1,-2.950455902E0,1.390442535E1
9.696979167E0,1.044206589E0,1.275275161E1,-4.670627224E-1,1.280395207E1
9.706950167E0,1.525578032E0,1.194610716E1,7.275959408E-1,1.206508435E1
9.716921167E0,2.056501121E0,9.379564821E0,8.590238070E-1,9.640713407E0
9.726891167E0,1.495668647E0,7.541088538E0,5.748397708E-2,7.688195201E0
9.736862167E0,1.358625115E0,7.464817457E0,-9.186893803E-1,7.642862818E0
9.746832167E0,1.590351149E0,7.146923638E0,-2.398125572E0,7.704462377E0
9.756803167E0,1.793331393E0,6.685473658E0,-4.370290840E0,8.186026969E0
9.766773167E0,1.672707134E0,6.259530895E0,-5.871621931E0,8.743890454E0
9.776744167E0,8.854245704E-1,7.309182703E0,-5.676368197E0,9.296735145E0
9.786715167E0,7.874620736E-2,9.658602723E0,-3.641547675E0,1.032258093E1
9.796685167E0,-3.854259440E-1,1.034313860E1,-1.073865713E0,1.040587607E1
9.806656167E0,-6.627757546E-1,1.063944157E1,1.075438614E0,1.071417551E1
9.816626167E0,-9.422773406E-1,1.084958583E1,2.373791800E0,1.114613326E1
9.826597167E0,-1.206766200E0,1.096437603E1,3.023668889E0,1.143749972E1
9.836568167E0,-1.446297097E0,1.105270757E1,3.039029524E0,1.155377949E1
9.846538167E0,-1.548481576E0,1.095890186E1,2.882845716E0,1.143705052E1
9.856509167E0,-1.508416454E0,1.026614012E1,2.823705808E0,1.075370949E1
9.866479167E0,-9.348750579E-1,8.618091282E0,2.197150923E0,8.942760251E0
9.876450167E0,-3.148404032E-1,7.215987441E0,9.397516358E-1,7.283730663E0
9.886421167E0,-1.590539867E-1,5.735145578E0,-1.622579101E0,5.962378377E0
9.896391167E0,5.269178186E-2,3.331074557E0,-7.171173211E0,7.907247267E0
9.906362167E0,1.454184991E-1,-1.185060459E0,-1.647383077E1,1.651704015E1
9.916332167E0,5.474769942E-1,-9.909267011E0,-2.176024231E1,2.391655178E1
9.926303167E0,1.664869527E0,-1.766908819E1,-1.141110564E1,2.109933174E1
9.936274167E0,2.250633650E0,-1.767878989E1,3.917595018E0,1.824698645E1
9.946244167E0,2.829587705E-1,-2.458116601E1,7.485834689E0,2.569730549E1
9.956215167E0,-1.423675974E0,-3.572761966E1,9.293345287E-1,3.576804890E1
9.966185167E0,2.108213311E0,-3.376816858E1,-8.258665275E0,3.482727845E1
9.976156167E0,3.384762814E0,-1.659143114E1,1.008157335E0,1.696315383E1
9.986126167E0,7.723188083E-1,-8.375628884E0,9.278598610E0,1.252357887E1
9.996097167E0,-5.144392756E-1,-4.225912560E0,7.910306293E0,8.983091360E0
1.000606817E1,-1.523997530E0,-2.380233092E0,3.785268143E-1,2.851554067E0
1.001603817E1,-3.210962808E0,-6.740524608E0,-7.654884710E0,1.069309189E1
1.002600917E1,-3.727290953E0,-1.157593514E1,-4.812914832E0,1.307895720E1
1.003597942E1,-3.386761685E0,-1.395213482E1,2.059841343E0,1.450431547E1
1.004595042E1,-3.287847554E0,-1.637166939E1,4.471304121E0,1.728681754E1
1.005592142E1,-3.092638259E0,-1.797217745E1,3.676785336E0,1.860328799E1
1.006589142E1,-2.136006004E0,-1.574437191E1,1.880056126E0,1.599944935E1
1.007586242E1,-1.706697291E0,-1.290605391E1,2.847463922E-1,1.302152540E1
1.008583242E1,-1.795661801E0,-1.112946514E1,-1.772225575E0,1.141184381E1
1.009580342E1,-2.171539826E0,-9.407159586E0,-4.501468445E0,1.065239198E1
1.010577442E1,-2.242348438E0,-7.207051726E0,-6.603199825E0,1.002855767E1
1.011574442E1,-1.173321589E0,-5.312223487E0,-6.344271083E0,8.357402557E0
1.012571542E1,2.399934116E-1,-4.075952529E0,-4.717962774E0,6.239403705E0
1.013568542E1,1.589070024E0,-2.595005416E0,-3.130808591E0,4.365908735E0
1.014565642E1,2.681678986E0,-2.209791434E-1,-1.516660151E0,3.088768684E0
1.015562742E1,3.027447652E0,1.998686484E0,-5.066482993E-1,3.662905874E0
1.016559742E1,3.139754246E0,3.970319654E0,-2.211369817E-1,5.066596140E0
1.017556842E1,3.245734737E0,5.963306272E0,-4.031374526E-1,6.801348064E0
1.018553842E1,3.245055291E0,7.942972932E0,-5.890952826E-1,8.600478830E0
1.019550942E1,3.107322664E0,9.563998282E0,-6.336925811E-1,1.007606488E1
1.020548042E1,2.971745614E0,1.072592891E1,-7.794180590E-1,1.115725394E1
1.021545042E1,2.828374225E0,1.175124285E1,-1.309602059E0,1.215756830E1
1.022542142E1,2.633618090E0,1.250406836E1,-2.110517991E0,1.295152331E1
1.023539142E1,2.316413365E0,1.303618136E1,-3.194642644E0,1.362033542E1
1.024536242E1,1.885054618E0,1.336614909E1,-3.875809938E0,1.404383406E1
1.025533342E1,1.588669197E0,1.325463216E1,-2.729612998E0,1.362570845E1
1.026530342E1,1.602425064E0,1.274118933E1,-6.167976362E-1,1.285636460E1
1.027527442E1,2.017882892E0,1.191599400E1,9.940518039E-1,1.212645469E1
1.028524442E1,2.228128302E0,1.030880960E1,1.537614233E0,1.065834736E1
1.029521542E1,1.098783622E0,8.758824407E0,9.286723316E-1,8.876190779E0
1.030518642E1,7.400677595E-1,8.187148565E0,-6.368615527E-2,8.220775988E0
1.031515642E1,7.312747166E-1,8.015245687E0,-1.451191217E0,8.178317803E0
1.032512742E1,6.647681934E-1,7.608363093E0,-3.269719723E0,8.307838033E0
1.033509742E1,1.437190790E-2,7.306266112E0,-4.956887022E0,8.829069034E0
1.034506842E1,-1.218639264E0,7.792897126E0,-5.009152944E0,9.343764792E0
1.035503842E1,-1.922742262E0,9.021842108E0,-4.127893345E0,1.010594262E1
1.036500942E1,-1.932730476E0,9.964293988E0,-3.189892366E0,1.063945558E1
1.037498042E1,-1.840694132E0,1.040116286E1,-2.092105109E0,1.076797323E1
1.038495042E1,-1.566066785E0,1.059355964E1,-9.727603376E-1,1.075278260E1
1.039492142E1,-1.373166848E0,1.064249850E1,-9.081661463E-2,1.073110475E1
1.040489142E1,-1.229230033E0,1.059394556E1,5.430847120E-1,1.067884029E1
1.041486242E1,-1.096674459E0,1.045103844E1,9.616342556E-1,1.055232864E1
1.042483342E1,-9.885185838E-1,9.998699005E0,1.212223699E0,1.012030815E1
1.043480342E1,-9.108495066E-1,8.935350679E0,1.230753525E0,9.065588388E0
1.044477442E1,-7.292544305E-1,7.438592110E0,7.424116889E-1,7.511034531E0
1.045474442E1,-5.851132556E-1,6.197001940E0,-3.638674792E-1,6.235189661E0
1.046471542E1,-6.503276172E-1,5.072700484E0,-1.976358891E0,5.482810472E0
1.047468642E1,2.765974201E-2,3.080334256E0,-4.806670883E0,5.709055015E0
1.048465642E1,1.583101186E0,-9.096221030E-1,-8.448438413E0,8.643479239E0
1.049462742E1,1.956661375E0,-6.700336695E0,-5.196635728E0,8.702186993E0
1.050459742E1,3.062683851E0,-1.449793498E1,-1.702178125E0,1.491534651E1
1.051456842E1,5.071760252E0,-2.386516978E1,-7.236965497E0,2.544882611E1
1.052453942E1,5.755679246E0,-3.485332760E1,-1.173701073E1,3.722418178E1
1.053450942E1,5.349602982E0,-4.098620313E1,-5.091109858E0,4.164620629E1
1.054448042E1,5.784831124E0,-3.433001349E1,5.869944364E0,3.530538690E1
1.055445042E1,3.529915850E0,-1.830608620E1,1.161676391E1,2.196639028E1
1.056442142E1,3.092235678E-1,-9.167137815E0,1.210994965E1,1.519154092E1
1.057439242E1,-1.308175631E0,-4.263301996E0,8.128945380E0,9.271829398E0
1.058436242E1,-3.557191357E0,-1.940770397E0,3.111736143E0,5.109119484E0
1.059433342E1,-6.550164410E0,-3.110133421E0,-1.302329146E0,7.367064877E0
1.060430342E1,-8.855246748E0,-6.499283693E0,-4.372177151E0,1.182252158E1
1.061427442E1,-8.742268601E0,-9.854093853E0,-3.692990309E0,1.368095769E1
1.062424542E1,-7.279221570E0,-1.384649318E1,-1.084629194E0,1.568084374E1
1.063421542E1,-3.610476741E0,-1.827330905E1,-2.764761635E-1,1.862862864E1
1.064418642E1,1.220045812E0,-2.052443796E1,-1.905584192E-1,2.056155096E1
1.065415642E1,4.195903188E0,-2.109602902E1,-1.128226107E0,2.153882397E1
1.066412742E1,5.640742282E0,-1.814885224E1,-2.930061983E0,1.922977052E1
1.067409842E1,5.414942109E0,-1.308035707E1,-4.150149018E0,1.475266335E1
1.068406842E1,3.968471057E0,-8.165002236E0,-4.793076691E0,1.026594410E1
1.069403942E1,2.210042279E0,-4.800034878E0,-5.141622784E0,7.372984915E0
1.070400942E1,5.180603832E-1,-1.762907453E0,-6.150422435E0,6.419028383E0
1.071398042E1,-4.070594725E-1,7.129071504E-1,-6.041566576E0,6.097086247E0
1.072395142E1,-6.967876194E-1,3.211644008E0,-5.466493501E0,6.378300825E0
1.073392142E1,-2.636663758E-1,5.986273550E0,-3.529016840E0,6.954060025E0
1.074389242E1,-1.202973989E-1,7.322336015E0,-1.827054332E0,7.547794625E0
1.075386242E1,-2.806806770E-1,8.402673426E0,-5.014630616E-1,8.422301796E0
1.076383342E1,-1.295389963E-1,9.292337812E0,1.431236131E-1,9.294342727E0
1.077380442E1,2.224363426E-1,9.970150559E0,6.348541304E-2,9.972833624E0
1.078377442E1,1.914269500E-1,1.103823571E1,-1.098730851E0,1.109443561E1
1.079374542E1,-3.154229321E-2,1.243366788E1,-3.716516581E0,1.297727196E1
1.080371542E1,-2.163864478E-1,1.391945006E1,-6.290394253E0,1.527635339E1
1.081368642E1,-4.615967453E-2,1.403052026E1,-4.300397902E0,1.467484417E1
1.082365742E1,4.685360746E-1,1.351648100E1,-1.962288736E0,1.366621242E1
1.083362742E1,1.501794775E0,1.269577517E1,-1.130613160E0,1.283418797E1
1.084359842E1,2.287896786E0,1.106732912E1,-6.554659311E-1,1.132033043E1
1.085356842E1,1.982974723E0,9.722007006E0,1.444021069E-2,9.922188140E0
1.086353942E1,1.684807363E0,9.340425314E0,5.852342930E-1,9.509186089E0
1.087350942E1,1.417782273E0,9.118981317E0,7.123703029E-1,9.255992560E0
1.088348042E1,1.268282417E0,9.066781468E0,6.873389574E-1,9.180822476E0
1.089345142E1,1.359441679E0,9.213622595E0,6.818163353E-1,9.338297303E0
1.090342142E1,1.531094588E0,9.437481492E0,7.498182108E-1,9.590231223E0
1.091339242E1,1.599224298E0,9.694591166E0,7.886338556E-1,9.857208509E0
1.092336342E1,1.637568877E0,1.013718914E1,3.838299465E-1,1.027577544E1
1.093333342E1,2.052015137E0,1.074926281E1,-1.638319075E0,1.106532903E1
1.094330442E1,3.370202370E0,1.067533880E1,-5.059465896E0,1.228492237E1
1.095327442E1,3.842442802E0,8.628210474E0,-6.148834916E0,1.127025082E1
1.096324542E1,2.595452436E0,6.772441050E0,-4.583707779E0,8.579784853E0
1.097321542E1,1.375886096E0,6.327415314E0,-3.156718773E0,7.203757389E0
1.098318642E1,7.949911677E-1,6.209296296E0,-2.100056738E0,6.602848608E0
1.099315742E1,3.911015439E-1,6.399576387E0,-1.402424269E0,6.563103853E0
1.100312742E1,2.155041030E-1,6.635868219E0,-1.258459972E0,6.757581708E0
1.101309842E1,2.622259873E-1,6.616809804E0,-1.723303092E0,6.842565893E0
1.102306842E1,5.419643124E-1,6.555887665E0,-2.426174666E0,7.011398712E0
1.103303942E1,5.318074065E-1,6.222363653E0,-4.962215005E0,7.976478315E0
1.104301033E1,1.879488800E-1,5.144107851E0,-9.061847588E0,1.042181616E1
1.105298033E1,-5.986419585E-1,4.416718317E0,-5.045041984E0,6.731880978E0
1.106295133E1,-2.895905911E-1,3.129256155E0,-1.399544807E0,3.440179132E0
1.107292133E1,2.716063830E-1,1.011991646E0,2.103386142E0,2.349921357E0
1.108289233E1,7.102498832E-1,-1.450404766E0,7.382258281E0,7.556842343E0
1.109286333E1,5.461124003E-2,-8.735599267E0,4.303053707E0,9.738066961E0
1.110283333E1,-6.795168447E-1,-2.278784836E1,-8.647133818E0,2.438279515E1
1.111280433E1,-1.075855374E0,-3.256688385E1,-1.372324908E1,3.535656875E1
1.112277433E1,-2.711868745E0,-3.864163805E1,-6.045253245E0,3.920555458E1
1.113274533E1,-5.804385255E-2,-3.437646378E1,5.710611831E0,3.484760707E1
1.114271633E1,2.741305676E0,-2.069880427E1,9.941434883E0,2.312547043E1
1.115268633E1,1.071729798E0,-8.690554072E0,8.185804875E0,1.198673168E1
1.116265733E1,-9.396569109E-1,-2.795429258E0,4.456573523E0,5.344008553E0
1.117262733E1,-2.006105723E0,-2.006601859E0,6.564040437E-1,2.912349131E0
1.118259833E1,-4.318489771E0,-6.753570331E0,-4.589491260E-1,8.029364883E0
1.119256933E1,-4.739917022E0,-1.304438851E1,1.207361155E0,1.393128156E1
1.120253933E1,-3.635846055E0,-1.728393677E1,2.909305244E0,1.790022078E1
1.121251033E1,-3.513440443E0,-1.941144853E1,2.999383063E0,1.995356852E1
1.122248033E1,-3.995673766E0,-1.876465643E1,1.513594164E0,1.924496576E1
1.123245133E1,-3.930000764E0,-1.548224123E1,-4.582193935E-1,1.597982054E1
1.124242233E1,-3.678837708E0,-1.238749476E1,-1.949867349E0,1.306850626E1
1.125239233E1,-3.068799746E0,-9.803758682E0,-2.770705476E0,1.063992599E1
1.126236333E1,-2.100373072E0,-7.689889652E0,-3.112374659E0,8.557619173E0
1.127233333E1,-1.004265940E0,-5.779599035E0,-2.705686777E0,6.460112694E0
1.128230433E1,1.342828424E-1,-3.806049147E0,-2.100623918E0,4.349329010E0
1.129227533E1,1.080438129E0,-1.988006544E0,-1.902093405E0,2.955922173E0
1.130224533E1,1.640157731E0,-2.710231233E-1,-2.140092623E0,2.709901724E0
1.131221633E1,1.994043940E0,1.500342327E0,-2.215927502E0,3.337300260E0
1.132218633E1,2.089229156E0,3.699281913E0,-2.200209017E0,4.784400156E0
1.133215733E1,2.079874488E0,6.055982886E0,-2.376986718E0,6.830144395E0
1.134212833E1,2.109728325E0,8.109636705E0,-2.781111181E0,8.829028287E0
1.135209833E1,2.093468534E0,9.756679240E0,-2.840580288E0,1.037517695E1
1.136206933E1,2.148909055E0,1.097629733E1,-2.791529750E0,1.152777305E1
1.137203933E1,2.290528910E0,1.200054708E1,-2.776443933E0,1.252869881E1
1.138201033E1,2.448202296E0,1.262486833E1,-2.648753607E0,1.312999963E1
1.139198133E1,2.394961644E0,1.289782337E1,-2.022154284E0,1.327323611E1
1.140195133E1,2.278940898E0,1.279082517E1,-6.224741131E-1,1.300716165E1
1.141192233E1,2.110575732E0,1.237354798E1,1.433104463E0,1.263380418E1
1.142189233E1,2.040168532E0,1.171148412E1,2.883711104E0,1.223261778E1
1.143186333E1,2.018123944E0,1.105914068E1,3.248585547E0,1.170174025E1
1.144183433E1,1.740669614E0,1.018125142E1,2.310822549E0,1.058431443E1
1.145180433E1,1.158433920E0,9.215227656E0,9.085826142E-1,9.332090455E0
1.146177533E1,8.099946114E-1,8.591780566E0,-3.283158964E-1,8.636120419E0
1.147174533E1,7.473504665E-1,7.846507323E0,-2.372396654E0,8.231310696E0
1.148171633E1,5.302336284E-1,5.759820828E0,-5.958641363E0,8.304341670E0
1.149168733E1,-4.083882523E-1,4.175166914E0,-8.313388197E0,9.311886116E0
1.150165733E1,-1.847405858E0,4.698668132E0,-7.608474190E0,9.131225007E0
1.151162833E1,-2.725383415E0,6.873398491E0,-6.057665130E0,9.558589247E0
1.152159833E1,-2.385295612E0,8.792971562E0,-4.562457243E0,1.018930813E1
1.153156933E1,-2.030358219E0,9.801128604E0,-3.029557035E0,1.045766189E1
1.154154033E1,-1.911581974E0,1.034013664E1,-1.506329291E0,1.062269266E1
1.155151033E1,-1.765509902E0,1.062588773E1,-1.602885167E-1,1.077275302E1
1.156148133E1,-1.388059268E0,1.050995849E1,1.054055346E0,1.065349561E1
1.157145133E1,-8.235005102E-1,1.031537017E1,1.733285458E0,1.049234451E1
1.158142233E1,-3.310690579E-1,1.034773919E1,1.820237063E0,1.051183029E1
1.159139333E1,2.009603235E-1,9.716158621E0,1.275457828E0,9.801577223E0
1.160136333E1,8.542752832E-1,7.972414248E0,4.302965999E-1,8.029590921E0
1.161133433E1,1.570217139E0,6.051519706E0,-2.488199298E-1,6.256866946E0
1.162130433E1,2.236853225E0,3.729303272E0,-3.151835178E0,5.370780226E0
1.163127533E1,3.241388502E0,-3.719963515E-1,-1.044990291E1,1.094739474E1
1.164124633E1,3.702172484E0,-5.097532439E0,-1.418849799E1,1.552431620E1
1.165121633E1,1.622186607E0,-1.298387918E1,-1.227080188E1,1.793837191E1
1.166118733E1,-2.063304064E-1,-1.763032700E1,9.860042810E-2,1.763181001E1
1.167115733E1,2.355606228E0,-1.659403549E1,4.912061682E0,1.746537273E1
1.168112833E1,2.754303159E0,-1.726470294E1,7.243333114E0,1.892411235E1
1.169109933E1,1.164142922E0,-2.182824543E1,5.199961624E0,2.246924850E1
1.170106933E1,3.109073321E0,-2.400228465E1,-1.590739696E0,2.425502954E1
1.171104033E1,5.653088093E0,-1.619962677E1,-9.643599937E0,1.968208150E1
1.172101033E1,4.581816790E0,-9.549404216E0,1.585206476E-1,1.059288888E1
1.173098133E1,8.555963154E-1,-6.974656479E0,9.194712115E0,1.157240722E1
1.174095233E1,-1.025580356E0,-6.790990173E0,5.360192875E0,8.712119733E0
1.175092233E1,-3.750642686E0,-1.060112594E1,2.830870986E-2,1.124508751E1
1.176089333E1,-5.187190136E0,-1.435080266E1,-3.319148576E0,1.561631281E1
1.177086433E1,-3.618312594E0,-1.503719912E1,-3.198414098E0,1.579365050E1
1.178083433E1,-3.159990582E0,-1.494541538E1,-1.609890204E0,1.536042733E1
1.179080533E1,-3.860503390E0,-1.520186958E1,-7.072404675E-1,1.570033485E1
1.180077533E1,-4.288945253E0,-1.471020762E1,-4.326401639E-1,1.532881069E1
1.181074633E1,-4.330883530E0,-1.306237805E1,-7.778935437E-1,1.378359136E1
1.182071633E1,-4.139242499E0,-1.098960325E1,-1.696812866E0,1.186523839E1
1.183068733E1,-3.746138868E0,-8.841051462E0,-2.620648381E0,9.953167602E0
1.184065833E1,-2.977666212E0,-6.918744818E0,-2.853475152E0,8.054678539E0
1.185062833E1,-1.640864660E0,-5.299712784E0,-2.764110986E0,6.198362846E0
1.186059933E1,3.911224477E-2,-3.812719066E0,-2.627907114E0,4.630793911E0
1.187057033E1,1.324822069E0,-2.297721863E0,-2.252094870E0,3.479455500E0
1.188054033E1,2.015272111E0,-6.761462903E-1,-1.864567144E0,2.827561869E0
1.189051133E1,2.531941441E0,1.075692383E0,-1.922444054E0,3.356133595E0
1.190048133E1,3.067467165E0,2.768042654E0,-1.679493413E0,4.460057518E0
1.191045233E1,3.401035031E0,4.530666516E0,-1.568321471E0,5.878231928E0
1.192042333E1,3.370055313E0,6.333132137E0,-1.388347682E0,7.307074980E0
1.193039333E1,3.086571773E0,8.086180599E0,-1.236039993E0,8.743056494E0
1.194036433E1,2.882707430E0,9.484062166E0,-1.201533819E0,9.985044858E0
1.195033433E1,2.758554085E0,1.076166124E1,-1.547418845E0,1.121683906E1
1.196030533E1,2.747115761E0,1.177932001E1,-1.942381890E0,1.225038254E1
1.197027633E1,2.550782047E0,1.240715310E1,-2.075597835E0,1.283557725E1
1.198024633E1,2.114899310E0,1.274720845E1,-2.115281718E0,1.309345406E1
1.199021733E1,1.669633546E0,1.285194612E1,-1.747603535E0,1.307724410E1
1.200018733E1,1.267787451E0,1.292796343E1,-1.008633079E0,1.302907764E1
1.201015833E1,1.016691419E0,1.262979870E1,3.164617630E-1,1.267460550E1
1.202012933E1,1.079449731E0,1.053742637E1,1.265114104E0,1.066785264E1
1.203009933E1,1.060443722E0,8.223187294E0,6.715626580E-1,8.318434141E0
1.204007071E1,9.523023918E-1,7.900629151E0,-2.522781193E-1,7.961812926E0
1.205004071E1,9.647894132E-1,7.725243087E0,-1.692267825E0,7.967055275E0
1.206001171E1,9.170058938E-1,7.242654837E0,-3.332376148E0,8.025065713E0
1.206998271E1,2.169866645E-1,6.849870465E0,-4.392001551E0,8.139870160E0
1.207995271E1,-1.226812502E0,7.782002009E0,-4.242848436E0,8.947982288E0
1.208992371E1,-1.789905217E0,9.605011822E0,-3.180939109E0,1.027513437E1
1.209989371E1,-1.473449813E0,1.026095598E1,-1.967155958E0,1.055120726E1
1.210986471E1,-1.458079821E0,1.033936714E1,-7.757278812E-1,1.047044715E1
1.211983571E1,-1.430984701E0,1.038364226E1,9.563236317E-2,1.048221777E1
1.212980571E1,-1.408557998E0,1.037815056E1,5.735335028E-1,1.048899353E1
1.213977671E1,-1.334509151E0,1.028526286E1,7.208026457E-1,1.039649475E1
1.214974671E1,-1.243053436E0,1.014492500E1,6.386282158E-1,1.024072904E1
1.215971771E1,-1.224726508E0,9.909644741E0,3.689125299E-1,9.991852199E0
1.216968871E1,-1.215408385E0,9.299949133E0,2.685976982E-2,9.379072068E0
1.217965871E1,-1.030137530E0,8.046303758E0,-8.068830156E-1,8.152008814E0
1.218962971E1,-6.681709074E-1,6.434914620E0,-2.926196973E0,7.100507535E0
1.219959971E1,-3.114148119E-1,5.190306702E0,-4.328432962E0,6.765470770E0
1.220957071E1,3.444136465E-1,3.661944517E0,-5.651155003E0,6.742700593E0
1.221954171E1,1.105324318E0,2.862095118E-1,-8.401466560E0,8.478696722E0
1.222951171E1,6.717778355E-1,-3.751986376E0,-3.111179488E0,4.920175305E0
1.223948271E1,1.061647810E0,-8.845614045E0,2.934294198E0,9.379875603E0
1.224945371E1,2.248463164E0,-1.750129415E1,-4.054778591E0,1.810503005E1
1.225942371E1,4.304208532E0,-3.575111611E1,-2.243942214E1,4.242871881E1
1.226939471E1,6.017525164E0,-4.627609025E1,-1.707017076E1,4.968981654E1
1.227936471E1,3.738831018E0,-3.528348855E1,1.175209538E1,3.737666608E1
1.228933571E1,3.558825946E0,-1.910561108E1,1.998380440E1,2.787547408E1
1.229930671E1,2.755717016E0,-7.192644771E0,1.549656925E1,1.730525277E1
1.230927671E1,6.891799533E-1,-9.852324486E-1,1.054212519E1,1.061046915E1
1.231924771E1,-2.128391468E0,8.920149672E-1,6.031206479E0,6.457646052E0
1.232921771E1,-5.140822885E0,-1.534045093E0,1.416263751E0,5.548617602E0
1.233918871E1,-6.249216406E0,-7.719122221E0,-1.783145835E0,1.009044908E1
1.234915971E1,-6.180053785E0,-1.403779419E1,-3.043718407E0,1.563703784E1
1.235912971E1,-5.461389467E0,-1.931825561E1,-1.240351145E0,2.011368304E1
1.236910071E1,-3.303381267E0,-2.228416219E1,1.795109385E0,2.259908472E1
1.237907171E1,-1.027978153E-1,-2.290830334E1,2.277186588E0,2.302143584E1
1.238904171E1,2.271805249E0,-1.908754786E1,-2.742329523E-2,1.922228745E1
1.239901271E1,1.584624386E0,-1.347573761E1,-2.018119851E0,1.371784773E1
1.240898271E1,-3.897034746E-1,-9.365424500E0,-2.360506926E0,9.666180104E0
1.241895371E1,-1.978822907E0,-6.550040449E0,-1.971248424E0,7.120715577E0
1.242892471E1,-2.993855690E0,-4.293177175E0,-1.542713006E0,5.456602017E0
1.243889471E1,-3.410863031E0,-1.475838400E0,-1.891197703E0,4.169977740E0
1.244886571E1,-3.306294057E0,1.220709178E0,-2.180888647E0,4.144633468E0
1.245883571E1,-2.813268236E0,3.269079453E0,-2.655470889E0,5.064867647E0
1.246880671E1,-1.984137442E0,4.838037102E0,-3.205484551E0,6.133395111E0
1.247877771E1,-1.010621863E0,6.034223058E0,-3.245949038E0,6.925993764E0
1.248874771E1,-3.319002396E-1,7.247345474E0,-2.753900578E0,7.760034960E0
1.249871871E1,2.995187248E-1,8.453589225E0,-2.178859663E0,8.735004962E0
1.250868971E1,9.310031048E-1,9.483954577E0,-1.621057509E0,9.666436192E0
1.251865971E1,1.475136734E0,1.027225280E1,-1.049848859E0,1.043059867E1
1.252863071E1,1.775603950E0,1.110736618E1,-1.153068661E0,1.130733921E1
1.253860071E1,1.930613784E0,1.200880101E1,-1.644879066E0,1.227371983E1
1.254857171E1,1.944954957E0,1.287903510E1,-2.611562977E0,1.328430111E1
1.255854271E1,2.079897877E0,1.343152681E1,-3.224496188E0,1.396886764E1
1.256851271E1,2.306933566E0,1.320714108E1,-1.966888740E0,1.355061509E1
1.257848371E1,2.638268965E0,1.248238221E1,-3.260126781E-1,1.276231221E1
1.258845371E1,3.140387207E0,1.143571774E1,3.606614874E-1,1.186455851E1
1.259842471E1,3.349338920E0,1.011534862E1,3.889836824E-1,1.066253521E1
1.260839571E1,2.921033882E0,8.893011575E0,-3.638102496E-1,9.367521108E0
1.261836571E1,2.441716273E0,8.228122344E0,-1.796711376E0,8.768816763E0
1.262833671E1,2.345236630E0,8.025736177E0,-3.360151007E0,9.011281308E0
1.263830771E1,2.344821916E0,7.607187218E0,-4.885933399E0,9.340226569E0
1.264827771E1,1.824779473E0,7.168336142E0,-5.654715958E0,9.310782767E0
1.265824871E1,5.709382892E-1,7.496635666E0,-5.022110374E0,9.041410811E0
1.266821871E1,-2.393852281E-1,8.818284743E0,-3.518716385E0,9.497411021E0
1.267818971E1,-2.685632727E-1,9.607791588E0,-1.985851260E0,9.814549947E0
1.268816071E1,-2.679837406E-1,9.788078789E0,-6.349976796E-1,9.812314901E0
1.269813071E1,-5.098845870E-1,9.814220520E0,4.620235920E-1,9.838311467E0
1.270810171E1,-8.951520715E-1,9.809260912E0,1.001266683E0,9.900779355E0
1.271807271E1,-1.392835420E0,9.727305753E0,9.292441893E-1,9.870357768E0
1.272804271E1,-1.739210442E0,9.456964999E0,4.912468064E-1,9.628102793E0
1.273801371E1,-1.838357000E0,9.126086268E0,-2.011605541E-1,9.311577343E0
1.274798371E1,-1.837310641E0,8.586952520E0,-1.298515738E0,8.876801625E0
1.275795471E1,-1.830429052E0,7.538642063E0,-2.947042297E0,8.298593433E0
1.276792571E1,-1.920187906E0,6.558258126E0,-3.583149194E0,7.716011235E0
1.277789571E1,-2.083491576E0,6.568864975E0,-1.838883834E0,7.132490306E0
1.278786671E1,-2.346801198E0,5.299195890E0,-1.700672174E0,6.039970099E0
1.279783671E1,-2.340443813E0,1.657524254E0,-5.147003392E0,5.892088578E0
1.280780771E1,-1.328134371E-1,-2.537783979E0,-3.098724626E0,4.007503118E0
1.281777871E1,5.400214727E0,-1.540603798E1,-1.712288691E1,2.365801305E1
1.282774871E1,1.132404995E1,-3.930792126E1,-3.799475123E1,5.582963283E1
1.283771971E1,6.879424047E0,-4.292635138E1,-5.780342216E0,4.385670387E1
1.284769071E1,2.539000492E0,-4.043039487E1,1.391772045E1,4.283417206E1
1.285766071E1,1.988787147E-1,-2.870221812E1,1.848214821E1,3.413863910E1
1.286763171E1,-1.447011627E0,-1.465473626E1,1.377490572E1,2.016440341E1
1.287760271E1,-2.739947367E0,-6.077088411E0,8.891871952E0,1.111322194E1
1.288757271E1,-3.476184908E0,-1.983526407E0,5.421931286E0,6.739108056E0
1.289754371E1,-4.457351203E0,8.439970475E-1,2.209235071E0,5.045892425E0
1.290751371E1,-5.920446181E0,1.401617353E0,-1.098495355E0,6.182467649E0
1.291748471E1,-7.737663158E0,-2.584921893E0,-4.199900929E0,9.175642765E0
1.292745571E1,-6.675702376E0,-1.077426550E1,-4.246465231E0,1.336720862E1
1.293742571E1,-2.176339805E0,-1.742158374E1,4.519197495E-1,1.756280918E1
1.294739671E1,1.418886812E0,-2.179981393E1,3.791556823E0,2.217252873E1
1.295736771E1,3.787486284E0,-2.359408351E1,2.851369278E0,2.406566300E1
1.296733771E1,5.595702349E0,-1.941549480E1,-2.970863561E-1,2.020795842E1
1.297730871E1,5.177710630E0,-1.172050053E1,-1.584532438E0,1.291083123E1
1.298727871E1,2.982524371E0,-6.414435917E0,-8.344630893E-1,7.122974688E0
1.299724971E1,1.007449968E0,-3.881625579E0,-3.795238376E-1,4.028152296E0
1.300722071E1,-5.592733133E-1,-1.609533817E0,-6.258672523E-1,1.815239809E0
1.301719071E1,-1.755165154E0,7.622506338E-1,-1.543356199E0,2.458369196E0
1.302716171E1,-2.550575933E0,2.936697403E0,-2.248149168E0,4.492638858E0
1.303713271E1,-3.080719295E0,4.730254791E0,-2.848540102E0,6.322999484E0
1.304710254E1,-3.140130807E0,6.000144900E0,-3.267585490E0,7.519260285E0
1.305707354E1,-2.692719699E0,6.834923227E0,-2.898120983E0,7.897215973E0
1.306704354E1,-2.049128074E0,7.781686844E0,-2.188154397E0,8.339160370E0
1.307701454E1,-1.225423058E0,8.969002574E0,-1.577778758E0,9.188800501E0
1.308698554E1,-8.232989274E-2,9.795656780E0,-9.961573863E-1,9.846522203E0
1.309695554E1,9.992831616E-1,9.999157426E0,-6.775952303E-1,1.007178491E1
1.310692654E1,1.746156349E0,1.003388989E1,-6.007873750E-1,1.020239941E1
1.311689754E1,2.157730603E0,1.019695470E1,-6.440298736E-1,1.044262711E1
1.312686754E1,2.443140216E0,1.047891095E1,-9.880297565E-1,1.080521687E1
1.313683854E1,2.666964468E0,1.092619838E1,-1.420857616E0,1.133637274E1
1.314680854E1,2.875377068E0,1.132810207E1,-1.255159219E0,1.175453591E1
1.315677954E1,3.091695396E0,1.126423995E1,-7.626482445E-1,1.170569582E1
1.316675054E1,3.126474634E0,1.025646532E1,-4.605974561E-1,1.073229121E1
1.317672054E1,2.635804948E0,8.880397376E0,-4.522745293E-1,9.274345127E0
1.318669154E1,2.135658095E0,8.280159055E0,-5.471707463E-1,8.568632639E0
1.319666254E1,2.089603378E0,8.149448057E0,-1.033659089E0,8.476343376E0
1.320663254E1,2.134542446E0,8.296420746E0,-2.020905318E0,8.801757038E0
1.321660354E1,1.526150913E0,8.867051691E0,-3.320426778E0,9.590567048E0
1.322657354E1,2.408639158E-1,9.392291286E0,-4.359510913E0,1.035753283E1
1.323654454E1,-8.151180880E-1,9.435115124E0,-4.461585757E0,1.046859887E1
1.324651554E1,-1.536833630E0,9.131518332E0,-3.521544684E0,9.906955214E0
1.325648554E1,-1.821338386E0,8.758151978E0,-1.936921760E0,9.152822815E0
1.326645654E1,-1.828530461E0,8.426351141E0,-3.140750027E-1,8.628184068E0
1.327642754E1,-1.813287940E0,8.148795508E0,1.006695238E0,8.408585891E0
1.328639754E1,-1.611375690E0,7.999768692E0,1.730261278E0,8.341860394E0
1.329636854E1,-1.100120004E0,8.099846127E0,1.805070555E0,8.371143949E0
1.330633954E1,-4.058316303E-1,8.130639904E0,1.232801220E0,8.233577801E0
1.331630954E1,2.904955208E-2,7.377812058E0,7.777966261E-2,7.378279224E0
1.332628054E1,3.809405449E-1,5.542152379E0,-1.738870718E0,5.821017099E0
1.333625054E1,4.587881814E-1,2.759098168E0,-6.598757111E0,7.167056907E0
1.334622154E1,-3.997709913E-1,-7.962972164E-1,-1.309976983E1,1.313003715E1
1.335619254E1,-1.979766648E0,-5.863097275E0,-1.712974219E1,1.821327684E1
1.336616254E1,-3.237924027E0,-1.290470554E1,-1.221988783E1,1.806491726E1
1.337613354E1,-1.251882732E0,-1.927758939E1,-2.937876202E0,1.954031166E1
1.338610454E1,1.969579483E0,-2.366250061E1,-1.877273728E0,2.381842428E1
1.339607454E1,-3.350491114E-2,-2.758936902E1,-1.327156862E0,2.762129162E1
1.340604554E1,-3.373980549E0,-2.723520784E1,2.146615485E0,2.752722741E1
1.341601654E1,-1.638801470E0,-1.452976021E1,4.929128535E0,1.543035677E1
1.342598654E1,-2.606905268E-1,-6.033381643E0,7.503706119E0,9.631991441E0
1.343595754E1,-1.980451576E-1,-2.519826595E0,9.732989831E0,1.005583607E1
1.344592754E1,-4.456862887E-2,-7.065985894E-1,9.750795772E0,9.776465932E0
1.345589854E1,7.586410563E-2,-4.518389118E-1,7.961202797E0,7.974375445E0
1.346586954E1,-4.722506645E-1,-5.744709284E0,4.159192321E0,7.107994528E0
1.347583954E1,-4.533322541E-1,-1.591268284E1,-1.565975276E0,1.599597649E1
1.348581054E1,2.025279620E0,-2.328653166E1,-4.155475831E0,2.374094130E1
1.349578154E1,4.409206691E0,-2.656210912E1,-4.027383217E0,2.722510900E1
1.350575154E1,5.179739614E0,-2.260296408E1,-3.526605449E0,2.345550327E1
1.351572254E1,3.416257964E0,-1.413703314E1,-2.513327415E0,1.475951690E1
1.352569354E1,7.599661267E-1,-9.287893344E0,-1.318989325E0,9.411814071E0
1.353566354E1,-1.777329318E0,-7.076066494E0,8.579140055E-1,7.346130476E0
1.354563454E1,-3.476525508E0,-5.337412707E0,1.152727183E0,6.473251422E0
1.355560454E1,-4.378943842E0,-2.810258381E0,-4.888425775E-1,5.226056678E0
1.356557554E1,-5.189175850E0,-5.571460962E-2,-2.328298123E0,5.687848650E0
1.357554654E1,-5.618999410E0,2.380254142E0,-3.666042831E0,7.118892765E0
1.358551654E1,-5.088393241E0,3.934127728E0,-4.171410663E0,7.666144643E0
1.359548754E1,-3.684208376E0,4.405229123E0,-3.656482633E0,6.808032038E0
1.360545854E1,-2.301497995E0,4.906807374E0,-2.760206215E0,6.082136958E0
1.361542854E1,-9.616693389E-1,6.002575588E0,-1.424624977E0,6.243819178E0
1.362539954E1,2.596476576E-1,7.117216274E0,-2.469663990E-1,7.126231599E0
1.363537054E1,1.121244897E0,7.822441353E0,4.965947064E-1,7.917978602E0
1.364534054E1,1.704970024E0,8.446560872E0,1.000940409E0,8.674859944E0
1.365531154E1,2.219196973E0,9.178819383E0,1.072945361E0,9.504039784E0
1.366528154E1,2.779473376E0,9.918521984E0,6.789810205E-1,1.032296303E1
1.367525254E1,3.316361209E0,1.045064434E1,1.837183464E-1,1.096576359E1
1.368522354E1,3.684856247E0,1.094749394E1,-1.780588263E-1,1.155238045E1
1.369519354E1,3.951850639E0,1.129514483E1,-2.969918688E-2,1.196654930E1
1.370516454E1,4.060978687E0,1.134937775E1,5.948360789E-1,1.206870968E1
1.371513554E1,4.011825238E0,1.112852257E1,1.037671448E0,1.187499551E1
1.372510554E1,3.819707658E0,1.068297059E1,9.088467622E-1,1.138165320E1
1.373507654E1,3.460801468E0,1.009656034E1,1.133728520E-1,1.067382457E1
1.374504754E1,3.111052018E0,9.510519648E0,-1.136312807E0,1.007074155E1
1.375501754E1,2.514225547E0,8.971876481E0,-2.647206434E0,9.686258286E0
1.376498854E1,1.197174866E0,8.582311000E0,-3.967993047E0,9.530700845E0
1.377495854E1,-2.535542011E-1,8.423933317E0,-4.705602930E0,9.652442240E0
1.378492954E1,-1.186471684E0,8.334000217E0,-4.744488083E0,9.662993420E0
1.379490054E1,-1.657175176E0,8.286961706E0,-4.139578421E0,9.410423656E0
1.380487054E1,-1.803978295E0,8.299191157E0,-2.972212222E0,8.998052959E0
1.381484154E1,-2.048357703E0,8.377852580E0,-1.647870501E0,8.780641225E0
1.382481254E1,-2.147381762E0,8.576075529E0,-4.128718972E-1,8.850467961E0
1.383478254E1,-1.873705465E0,8.783333012E0,7.098975885E-1,9.008976943E0
1.384475354E1,-1.294769427E0,8.770858562E0,1.449100252E0,8.983556051E0
1.385472454E1,-6.929989891E-1,8.349355005E0,1.608370367E0,8.531051039E0
1.386469454E1,-3.286754271E-1,7.586459423E0,1.541472226E0,7.748453442E0
1.387466554E1,-6.148201078E-1,6.480394263E0,-9.639719725E-2,6.510207830E0
1.388463654E1,-1.471980407E0,5.501247597E0,-1.825075049E0,5.980079462E0
1.389460654E1,-2.206013255E0,4.479070101E0,-4.630509478E0,6.809565440E0
1.390457754E1,-3.765765924E0,1.704703099E0,-5.944912686E0,7.240786732E0
1.391454754E1,-4.245130312E0,-2.506955119E0,-2.521632800E0,5.537561495E0
1.392451854E1,-1.638238675E0,-9.913105123E0,-3.009303742E0,1.048853603E1
1.393448954E1,5.103380824E0,-2.888777834E1,-2.893646693E1,4.120518598E1
1.394445954E1,8.951272062E0,-4.254886917E1,-2.573141624E1,5.052363131E1
1.395443054E1,5.907962376E0,-4.030021246E1,2.360069554E0,4.079927784E1
1.396440154E1,1.944643300E0,-2.336351376E1,2.061201756E1,3.121683329E1
1.397437154E1,7.077678133E-2,-8.181108391E0,1.894859346E1,2.063939772E1
1.398434254E1,-1.296919156E0,-1.261544378E0,1.272669759E1,1.285466161E1
1.399431354E1,-2.142262817E0,2.177856866E0,9.750734961E0,1.021808117E1
1.400428354E1,-3.262783464E0,3.126393358E0,7.529630334E0,8.781538836E0
1.401425454E1,-4.843373563E0,-1.020264287E0,4.374039782E0,6.605409200E0
1.402422554E1,-4.937021692E0,-9.855343988E0,-2.556313221E0,1.131533144E1
1.403419554E1,-1.308046115E0,-1.873061277E1,-1.245224215E1,2.253009485E1
1.404416608E1,1.266501063E0,-2.177475744E1,-5.996960506E0,2.262095537E1
1.405413608E1,2.700059124E0,-2.050726820E1,4.067047219E0,2.108030458E1
1.406410708E1,4.605171154E0,-1.828677753E1,3.572968022E0,1.919322626E1
1.407407808E1,5.361295075E0,-1.421726278E1,4.683784921E-1,1.520175728E1
1.408404808E1,4.472306626E0,-9.432337112E0,-1.312774612E0,1.052111625E1
1.409401908E1,1.518168148E0,-6.267174375E0,-1.225234777E0,6.563802970E0
1.410399008E1,-1.386041832E0,-4.989414498E0,-6.087430235E-1,5.214013527E0
1.411396008E1,-3.482848103E0,-3.097298782E0,-1.027988386E0,4.772866097E0
1.412393108E1,-4.734902158E0,-7.433927786E-1,-2.516621736E0,5.413438485E0
1.413390208E1,-5.107088544E0,1.532765138E0,-3.992737294E0,6.661356728E0
1.414387208E1,-4.526790397E0,3.012343417E0,-4.962217344E0,7.361361636E0
1.415384308E1,-3.077913216E0,3.581633595E0,-4.569922968E0,6.571593788E0
1.416381308E1,-1.744937205E0,4.320967821E0,-3.377398539E0,5.755205440E0
1.417378408E1,-7.580662201E-1,5.682079173E0,-2.222876333E0,6.148322317E0
1.418375508E1,1.764477722E-1,7.244720074E0,-1.149677203E0,7.337496878E0
1.419372508E1,9.679252019E-1,8.717826655E0,1.053293947E-1,8.772027990E0
1.420369608E1,1.720656349E0,9.779807902E0,9.246716666E-1,9.972979423E0
1.421366708E1,2.308596807E0,1.053716559E1,8.346034956E-1,1.081933643E1
1.422363708E1,2.814443234E0,1.117698663E1,2.301627986E-1,1.152818701E1
1.423360808E1,3.418944468E0,1.172818377E1,-1.092291459E0,1.226509586E1
1.424357908E1,4.090723473E0,1.209281146E1,-2.697923428E0,1.304794614E1
1.425354908E1,4.679981600E0,1.186083955E1,-2.640875069E0,1.302136567E1
1.426352008E1,5.014360474E0,1.126223553E1,-1.435117806E0,1.241133849E1
1.427349108E1,5.229813999E0,1.026685582E1,-3.744410723E-1,1.152820407E1
1.428346108E1,4.754705508E0,8.864121652E0,3.105777830E-1,1.006361444E1
1.429343208E1,3.598248459E0,7.723231060E0,1.051902584E-1,8.520959744E0
1.430340208E1,2.796586714E0,7.107543225E0,-5.892285991E-1,7.660630411E0
1.431337308E1,2.275567055E0,6.955281730E0,-1.538436937E0,7.478030327E0
1.432334408E1,1.446742655E0,7.488799227E0,-2.378468403E0,7.989511257E0
1.433331408E1,2.051791262E-1,8.456324553E0,-2.640290347E0,8.861301063E0
1.434328508E1,-1.009536400E0,9.086460857E0,-2.271573114E0,9.420349201E0
1.435325608E1,-1.908138841E0,9.265920092E0,-1.526393427E0,9.582700344E0
1.436322608E1,-2.322786537E0,9.386437638E0,-7.094695723E-1,9.695560629E0
1.437319708E1,-2.712799914E0,9.553072175E0,1.703527808E-1,9.932245034E0
1.438316808E1,-3.095517136E0,9.593061283E0,1.009052836E0,1.013051029E1
1.439313808E1,-3.344947954E0,9.460866846E0,1.728682530E0,1.018258423E1
1.440310908E1,-3.378905074E0,8.957820944E0,2.101685918E0,9.801869171E0
1.441308008E1,-3.133286641E0,7.839871902E0,2.024873239E0,8.682234059E0
1.442305008E1,-2.780437874E0,6.660760401E0,1.383840648E0,7.349257026E0
1.443302108E1,-2.681035500E0,5.439178818E0,-4.953643426E-1,6.084242221E0
1.444299208E1,-2.817794273E0,4.024358452E0,-3.028753628E0,5.771375404E0
1.445296208E1,-2.691937341E0,9.071943390E-1,-7.687996323E0,8.196024383E0
1.446293308E1,-3.379534234E0,-5.404862094E0,-1.317046968E1,1.463198748E1
1.447290308E1,-3.779991031E0,-1.273865047E1,-7.213828064E0,1.511955235E1
1.448287408E1,-6.149844146E-1,-1.978032598E1,-4.169927517E0,2.022443564E1
1.449284508E1,1.643045671E0,-2.560788797E1,-3.549677977E0,2.590489797E1
1.450281508E1,1.425129592E0,-3.386181290E1,-5.471113386E0,3.433054688E1
1.451278608E1,2.683682535E0,-2.665591717E1,-2.676231135E0,2.692400946E1
1.452275708E1,1.182680642E0,-1.197752776E1,5.067295318E0,1.305899638E1
1.453272708E1,7.860335988E-1,-5.748006529E0,8.300816098E0,1.012723930E1
1.454269808E1,3.547154903E-1,-2.193145580E0,7.763692038E0,8.075309572E0
1.455266908E1,-1.314717203E-1,-1.412783196E0,5.102046490E0,5.295669887E0
1.456263908E1,-1.630194076E0,-5.721811588E0,2.444536385E0,6.432139512E0
1.457261008E1,-2.517149740E0,-1.081165611E1,7.835906321E-1,1.112843048E1
1.458258108E1,-1.890496037E0,-1.376499352E1,-1.335321183E0,1.395822712E1
1.459255108E1,-1.202442257E-1,-1.546664086E1,-2.884935804E0,1.573385817E1
1.460252208E1,1.793352150E0,-1.608835776E1,-1.899573547E0,1.629907197E1
1.461249308E1,3.419132163E0,-1.505459693E1,-5.444377577E-1,1.544758123E1
1.462246308E1,4.239336013E0,-1.281560567E1,-1.281955254E-1,1.349919081E1
1.463243408E1,3.514432130E0,-1.041695151E1,-2.417849985E-1,1.099647998E1
1.464240408E1,1.787077503E0,-8.461884670E0,-5.805747199E-1,8.667998914E0
1.465237508E1,-2.515034363E-1,-6.702058700E0,-1.030429233E0,6.785471922E0
1.466234608E1,-1.909128190E0,-5.019677348E0,-1.465886439E0,5.566934001E0
1.467231608E1,-2.619471336E0,-3.113064630E0,-2.308687731E0,4.677909844E0
1.468228708E1,-2.519434247E0,-4.960602343E-1,-3.061993879E0,3.996177073E0
1.469225808E1,-2.198191874E0,1.953516158E0,-3.048165214E0,4.235514616E0
1.470222808E1,-1.785555327E0,3.707252837E0,-2.590417106E0,4.862323746E0
1.471219908E1,-1.156567489E0,4.990838295E0,-2.052454555E0,5.518938752E0
1.472217008E1,-3.921500228E-1,6.195413252E0,-1.456861846E0,6.376470296E0
1.473214008E1,2.636682031E-1,7.746537477E0,-8.841795520E-1,7.801290745E0
1.474211108E1,9.883044295E-1,9.313452108E0,-3.022601553E-1,9.370618817E0
1.475208208E1,1.806812441E0,1.044809027E1,7.463853836E-2,1.060343022E1
1.476205208E1,2.572754422E0,1.120748220E1,1.260799845E-1,1.149967907E1
1.477202308E1,3.347299996E0,1.162233747E1,-1.550634813E-1,1.209575092E1
1.478199308E1,3.865798920E0,1.174922790E1,-5.276562488E-1,1.238011222E1
1.479196408E1,4.249998411E0,1.175589373E1,-8.560282785E-1,1.252981677E1
1.480193508E1,4.496299506E0,1.160141146E1,-1.026757035E0,1.248453792E1
1.481190508E1,4.707203313E0,1.120683199E1,-8.636360908E-1,1.218592276E1
1.482187608E1,4.787444068E0,1.046873094E1,-3.119010079E-1,1.151569496E1
1.483184708E1,4.322319405E0,9.500071843E0,-1.129494953E-1,1.043774725E1
1.484181708E1,3.205544193E0,8.374552411E0,-3.294777381E-1,8.973137536E0
1.485178808E1,1.861776268E0,7.477329329E0,-7.751454985E-1,7.744515176E0
1.486175908E1,6.493610725E-1,7.027781357E0,-1.467786784E0,7.208729336E0
1.487172908E1,-2.191483071E-1,7.315328127E0,-2.108556250E0,7.616302321E0
1.488170008E1,-7.889107212E-1,7.980254779E0,-2.590672045E0,8.427243210E0
1.489167108E1,-1.200262342E0,8.601817896E0,-2.604417679E0,9.067242815E0
1.490164108E1,-1.495033055E0,8.996206160E0,-2.057761488E0,9.348862575E0
1.491161208E1,-1.693325002E0,9.140376279E0,-1.182451943E0,9.370806832E0
1.492158308E1,-1.776565087E0,9.289161605E0,-1.379311760E-1,9.458526938E0
1.493155308E1,-1.793369107E0,9.456979033E0,7.974666595E-1,9.658497722E0
1.494152408E1,-1.715007354E0,9.383236873E0,1.491458652E0,9.654575772E0
1.495149508E1,-1.492526938E0,9.083641330E0,2.086083062E0,9.438851573E0
1.496146508E1,-1.305870074E0,8.610213329E0,2.463733671E0,9.050472574E0
1.497143608E1,-1.558656901E0,7.600875149E0,2.494695847E0,8.150228324E0
1.498140608E1,-2.598704657E0,6.616332672E0,7.030936222E-1,7.143071087E0
1.499137708E1,-3.656195827E0,6.367462894E0,-2.402292152E0,7.725500581E0
1.500134808E1,-3.825841095E0,4.044889780E0,-5.698161939E0,7.966633097E0
1.501131808E1,-4.153096014E0,-6.123011273E-1,-8.568912106E0,9.541979556E0
1.502128908E1,-4.514320333E0,-6.759156176E0,-5.362812427E0,9.737814817E0
1.503126008E1,-2.211030459E0,-1.598704305E1,-4.261158407E0,1.669226384E1
1.504123079E1,1.685085982E0,-2.642872244E1,-1.070123846E1,2.856279729E1
1.505120179E1,4.656341600E0,-4.383223010E1,-2.215975449E1,4.933559193E1
1.506117279E1,4.218371991E0,-4.431992530E1,-4.989853624E0,4.479898526E1
1.507114279E1,2.064897430E0,-2.499596749E1,1.447450402E1,2.895813286E1
1.508111379E1,6.537432683E-1,-9.111286966E0,1.473699489E1,1.733845289E1
1.509108479E1,-6.874434033E-1,-1.171031819E0,1.069304651E1,1.077892098E1
1.510105479E1,-2.591831255E0,2.461457934E0,8.059214995E0,8.816309361E0
1.511102579E1,-4.112254675E0,3.499401863E0,5.442431624E0,7.666584239E0
1.512099679E1,-5.939658962E0,5.818570143E-1,2.136975180E0,6.339145770E0
1.513096679E1,-6.820241454E0,-7.843840992E0,-2.773616220E0,1.075799619E1
1.514093779E1,-4.648505746E0,-1.530578162E1,-6.511127229E0,1.727050475E1
1.515090779E1,-1.894820053E0,-2.050536902E1,-4.508924814E0,2.108058122E1
1.516087879E1,1.580539228E0,-2.298241797E1,-1.391027899E0,2.307866111E1
1.517084979E1,5.875871102E0,-1.900384497E1,-1.213554379E0,1.992848964E1
1.518081979E1,6.243070983E0,-1.241017260E1,-1.724699260E0,1.399867518E1
1.519079079E1,4.804489579E0,-7.296272051E0,-1.341944178E0,8.838524771E0
1.520076179E1,2.360482952E0,-4.140421590E0,2.299897027E-1,4.771568502E0
1.521073179E1,6.734267503E-2,-2.643157237E0,1.837306255E0,3.219706429E0
1.522070279E1,-1.395583319E0,-8.794598258E-1,1.204369719E0,2.042451665E0
1.523067379E1,-2.228645781E0,1.212524246E0,-4.676077560E-1,2.579870942E0
1.524064379E1,-2.416023022E0,3.216277927E0,-1.812222869E0,4.412002116E0
1.525061479E1,-2.160705520E0,4.986159353E0,-2.662265353E0,6.051288313E0
1.526058579E1,-1.767706847E0,6.492996182E0,-3.145922474E0,7.428365576E0
1.527055579E1,-1.476339507E0,7.867061455E0,-3.171085382E0,8.609646728E0
1.528052679E1,-1.162074689E0,9.239955531E0,-2.590704789E0,9.666382317E0
1.529049779E1,-9.326074346E-1,1.045078233E1,-1.772615000E0,1.064099487E1
1.530046779E1,-4.814662419E-1,1.126202035E1,-1.242415797E0,1.134056917E1
1.531043879E1,2.356284651E-1,1.165651796E1,-1.034703401E0,1.170472310E1
1.532040879E1,8.820244876E-1,1.180673761E1,-1.188148958E0,1.189910577E1
1.533037979E1,1.535812122E0,1.195152519E1,-1.443071773E0,1.213590250E1
1.534035079E1,2.203378208E0,1.206681825E1,-2.119984633E0,1.244818513E1
1.535032079E1,3.014561266E0,1.193538921E1,-2.595836306E0,1.258091656E1
1.536029179E1,3.908909857E0,1.096461342E1,-1.755669769E0,1.177220031E1
1.537026279E1,3.982205582E0,8.757913996E0,-5.325211322E-1,9.635486371E0
1.538023279E1,3.267052224E0,7.030171698E0,1.185850052E-1,7.753128836E0
1.539020379E1,2.939880043E0,6.359635811E0,6.816563409E-2,7.006604661E0
1.540017479E1,2.659344084E0,6.435888181E0,-4.417776443E-1,6.977674049E0
1.541014479E1,2.102956080E0,7.191563036E0,-1.126615784E0,7.576956269E0
1.542011579E1,1.271341096E0,8.328758773E0,-1.652357655E0,8.585733323E0
1.543008679E1,4.345463562E-1,9.389511520E0,-1.899287326E0,9.589528115E0
1.544005679E1,-3.528341487E-1,9.961589066E0,-1.747598273E0,1.011987393E1
1.545002779E1,-9.912208745E-1,1.005076144E1,-1.222116019E0,1.017319478E1
1.545999879E1,-1.446809021E0,9.947450498E0,-6.433036494E-1,1.007267925E1
1.546996879E1,-1.806497568E0,9.644592794E0,-1.115040636E-1,9.812952501E0
1.547993979E1,-2.166970227E0,8.905490702E0,2.670750833E-1,9.169234086E0
1.548991079E1,-2.334359347E0,7.555824691E0,2.530873740E-1,7.912254643E0
1.549988079E1,-1.947422774E0,5.997241173E0,-2.606981830E-1,6.310889057E0
1.550985179E1,-1.310735834E0,4.368751853E0,-1.413723428E0,4.775210478E0
1.551982279E1,-6.463123342E-1,1.884062930E0,-5.545226845E0,5.892109428E0
1.552979279E1,-5.676893570E-2,-1.016940145E0,-1.083521805E1,1.088298397E1
1.553976379E1,-4.754382376E-1,-3.830673527E0,-1.329411022E1,1.384317405E1
1.554973379E1,-2.021669549E0,-9.257214757E0,-1.127265995E1,1.472603256E1
1.555970479E1,-2.383813635E0,-1.676710723E1,-5.142234403E0,1.769918153E1
1.556967579E1,-1.486344860E-1,-1.827461298E1,1.406954399E0,1.832929602E1
1.557964579E1,8.494308650E-1,-1.908805073E1,7.136357135E0,2.039614685E1
1.558961679E1,1.582166216E0,-2.352851283E1,7.449598324E0,2.473035950E1
1.559958779E1,5.933034652E0,-1.764879134E1,-6.016539323E-1,1.862908273E1
1.560955779E1,8.217264649E0,-7.163190592E0,-5.424016403E0,1.217598833E1
1.561952879E1,5.805678202E0,-3.152218171E0,2.282460630E0,6.989420957E0
1.562949979E1,2.297463124E0,-2.636800729E0,9.016661475E0,9.671155000E0
1.563946979E1,4.245422819E-1,-1.895241053E0,7.727048707E0,7.967399608E0
1.564944079E1,-1.529392756E0,-4.587076360E0,3.852726885E0,6.182541240E0
1.565941179E1,-3.818810695E0,-1.108350018E1,-5.956120044E-2,1.172308999E1
1.566938179E1,-3.992037967E0,-1.597012940E1,-1.758805631E0,1.655520454E1
1.567935279E1,-1.738864871E0,-1.883842373E1,-1.239979116E0,1.895909829E1
1.568932379E1,1.183866165E0,-1.961759212E1,-1.358216687E0,1.970015767E1
1.569929379E1,2.789904224E0,-1.632121961E1,-1.659832589E0,1.664093806E1
1.570926479E1,2.061563348E0,-1.211068406E1,-1.199647361E0,1.234333284E1
1.571923579E1,7.725338396E-1,-9.248063865E0,-3.743011777E-1,9.287819720E0
1.572920579E1,-8.844939861E-1,-7.028433906E0,5.462188196E-1,7.104897450E0
1.573917679E1,-2.745949534E0,-5.660460262E0,9.773141491E-1,6.366803921E0
1.574914779E1,-3.912464671E0,-4.331110402E0,9.935588837E-2,5.837445392E0
1.575911779E1,-4.423080672E0,-2.112501951E0,-1.379728009E0,5.092146552E0
1.576908879E1,-4.627620953E0,2.844395596E-1,-2.496500298E0,5.265766353E0
1.577905879E1,-4.598512052E0,2.416588156E0,-3.270426067E0,6.138558305E0
1.578902979E1,-3.987704011E0,3.762250578E0,-3.165197235E0,6.330464930E0
1.579900079E1,-2.792260944E0,4.483735009E0,-2.350856681E0,5.781619838E0
1.580897079E1,-1.420705004E0,5.430572301E0,-1.393641751E0,5.783749265E0
1.581894179E1,-1.532558877E-1,6.608905538E0,-6.282236803E-1,6.640465705E0
1.582891279E1,7.394327518E-1,7.457349393E0,9.765317917E-2,7.494555151E0
1.583888279E1,1.353419631E0,8.605568885E0,7.617881191E-1,8.744591567E0
1.584885379E1,1.919337721E0,9.834380550E0,1.239809108E0,1.009633719E1
1.585882479E1,2.575239196E0,1.085697203E1,1.205422803E0,1.122313426E1
1.586879479E1,3.166609630E0,1.159012399E1,6.566902649E-1,1.203285639E1
1.587876579E1,3.519266024E0,1.221785768E1,-3.787095763E-1,1.272024766E1
1.588873679E1,3.895888692E0,1.261205006E1,-1.051929810E0,1.324191496E1
1.589870679E1,4.188361157E0,1.247843650E1,-4.919964194E-1,1.317178072E1
1.590867779E1,4.536035430E0,1.158886801E1,7.057014804E-1,1.246497067E1
1.591864879E1,4.358852809E0,9.585031301E0,6.458530354E-1,1.054938619E1
1.592861879E1,3.797126004E0,7.574750374E0,-5.953676273E-1,8.494084514E0
1.593858979E1,3.598223315E0,6.225983080E0,-2.410501789E0,7.584233330E0
1.594856079E1,3.362615023E0,4.920334908E0,-4.608946116E0,7.533874149E0
1.595853079E1,2.363521311E0,4.846246592E0,-6.060154874E0,8.111585303E0
1.596850179E1,8.211734645E-1,6.823267388E0,-5.760926537E0,8.967696375E0
1.597847279E1,-4.506767777E-1,8.620452388E0,-4.475099257E0,9.723261916E0
1.598844279E1,-1.313761476E0,9.376975089E0,-2.813371439E0,9.877686465E0
1.599841379E1,-1.609511012E0,9.497169870E0,-1.224201136E0,9.710068468E0
1.600838479E1,-1.827482640E0,9.507123000E0,1.145025158E-1,9.681848551E0
1.601835479E1,-2.026408133E0,9.449262462E0,1.083532330E0,9.724655948E0
1.602832579E1,-2.202540886E0,9.270072784E0,1.608162060E0,9.662899202E0
1.603829579E1,-2.253341496E0,8.738940366E0,1.572128009E0,9.160688462E0
1.604826608E1,-1.878039129E0,7.524467828E0,7.974596429E-1,7.796190669E0
1.605823708E1,-1.232631066E0,5.950020229E0,-8.925530572E-1,6.141560960E0
1.606820708E1,-1.020636974E0,4.240948675E0,-4.183508552E0,6.043929955E0
1.607817808E1,-1.733727215E0,2.281558989E0,-8.760555768E0,9.217302146E0
1.608814908E1,-3.153045259E0,-3.098369408E-1,-1.158274949E1,1.200823796E1
1.609811908E1,-4.591512058E0,-5.338045376E0,-1.109696398E1,1.314227229E1
1.610809008E1,-4.079419635E0,-1.280647934E1,-3.529517362E0,1.389622504E1
1.611806108E1,-2.615088263E-1,-1.685293149E1,1.647688068E0,1.693530521E1
1.612803108E1,2.014666047E0,-2.149545934E1,1.054096569E0,2.161538274E1
1.613800208E1,1.600413037E0,-3.078109039E1,-4.039887195E0,3.108629177E1
1.614797308E1,3.424243799E0,-2.504524783E1,-4.171944514E-1,2.528169171E1
1.615794308E1,4.671302578E0,-1.024666305E1,6.084828955E0,1.280001230E1
1.616791408E1,6.000172382E0,-3.166994669E0,8.765920004E0,1.108482194E1
1.617788508E1,5.877718238E0,3.136072254E-1,9.205693771E0,1.092660601E1
1.618785508E1,5.579055911E0,1.554843639E0,5.961390724E0,8.311533130E0
1.619782608E1,3.802599875E0,-2.128198802E0,-2.610884115E-1,4.365451077E0
1.620779708E1,1.130579027E0,-1.053910101E1,-4.793861680E0,1.163322694E1
1.621776708E1,-1.602624600E-1,-1.745063154E1,-3.312896149E0,1.776303763E1
1.622773808E1,1.023441810E-2,-2.073970905E1,1.366049033E0,2.078465122E1
1.623770908E1,1.808515296E-1,-2.107161339E1,2.064089637E0,2.117323934E1
1.624767908E1,2.180681071E-1,-1.962030639E1,-2.600525773E-1,1.962324143E1
1.625765008E1,-1.181941554E-3,-1.450442773E1,-1.283983946E0,1.456114831E1
1.626762108E1,-1.076349318E0,-1.064850944E1,-1.225746993E0,1.077273116E1
1.627759108E1,-2.711684850E0,-8.617455690E0,-1.711409709E0,9.194710462E0
1.628756208E1,-4.529042745E0,-6.673597963E0,-2.040708668E0,8.319472929E0
1.629753308E1,-5.791961803E0,-4.458418905E0,-2.271808172E0,7.654112165E0
1.630750308E1,-5.940944765E0,-1.976716740E0,-2.377794657E0,6.697472748E0
1.631747408E1,-5.449358236E0,5.004865766E-1,-2.475226958E0,6.006058648E0
1.632744508E1,-4.347080317E0,2.483380900E0,-2.519811977E0,5.604796194E0
1.633741508E1,-2.122813809E0,3.274353057E0,-2.446641090E0,4.605841837E0
1.634738608E1,2.687041175E-1,3.523352643E0,-2.521821080E0,4.341174646E0
1.635735608E1,1.909431514E0,4.126187128E0,-2.423563299E0,5.152184778E0
1.636732708E1,2.776745065E0,5.050792136E0,-1.696288955E0,6.008178641E0
1.637729808E1,3.373646965E0,6.468987515E0,-6.787401152E-1,7.327344775E0
1.638726808E1,3.786558039E0,7.930868611E0,2.225684897E-1,8.791259036E0
1.639723908E1,4.139137541E0,9.076931650E0,9.070505706E-1,1.001727950E1
1.640721008E1,4.529668981E0,9.884309925E0,1.237912856E0,1.094303029E1
1.641718008E1,4.715416896E0,1.047770759E1,9.716177917E-1,1.153089563E1
1.642715108E1,4.725659464E0,1.095140690E1,1.749580296E-1,1.192877952E1
1.643712208E1,4.599205239E0,1.149913196E1,-5.876100898E-1,1.239871003E1
1.644709208E1,4.256317789E0,1.185302183E1,-5.676933038E-1,1.260684906E1
1.645706308E1,4.022917113E0,1.165304705E1,3.618046546E-1,1.233321816E1
1.646703408E1,3.866403522E0,1.114436151E1,1.338230027E0,1.187167761E1
1.647700408E1,3.496403995E0,1.033854853E1,1.314331872E0,1.099262912E1
1.648697508E1,3.028618557E0,9.435462449E0,2.275660318E-1,9.912228220E0
1.649694608E1,2.770057897E0,8.566739865E0,-1.549343163E0,9.135793173E0
1.650691608E1,2.090398307E0,8.104827955E0,-3.551725087E0,9.092455793E0
1.651688708E1,4.033207263E-1,8.653671005E0,-4.279507554E0,9.662446604E0
1.652685808E1,-1.108742308E0,9.327209437E0,-3.628103757E0,1.006922451E1
1.653682808E1,-1.935076671E0,9.343450078E0,-2.323501067E0,9.820551833E0
1.654679908E1,-2.116876253E0,9.102040179E0,-9.072364390E-1,9.388896551E0
