"Time (s)","Linear Acceleration x (m/s^2)","Linear Acceleration y (m/s^2)","Linear Acceleration z (m/s^2)","Absolute acceleration (m/s^2)"
5.017958334E-3,-1.821067514E0,9.649484575E-1,1.867194883E0,2.780976294E0
1.498795833E-2,-1.591059831E0,9.739531696E-1,2.243804687E0,2.917998567E0
2.495795833E-2,-1.245892552E0,5.180995595E-1,2.744140406E0,3.057937535E0
3.492795833E-2,-9.660015410E-1,-5.894811988E-2,2.679884768E0,2.849283459E0
4.489795833E-2,-4.336414996E-1,-3.057943220E-1,2.401384225E0,2.459309114E0
5.486795833E-2,1.185008419E-1,-2.425563924E-1,2.256451045E0,2.272542051E0
6.483795833E-2,6.556803046E-1,-2.507278763E-1,2.297609012E0,2.402454641E0
7.480795833E-2,1.220639597E0,-6.152199112E-1,2.564878222E0,2.906382091E0
8.477795833E-2,1.180317782E0,-8.777591631E-1,2.460849239E0,2.866947888E0
9.474795833E-2,1.353842677E0,-6.409673944E-1,1.517946539E0,2.132578461E0
1.047090833E-1,1.613597047E0,-3.276683173E-1,7.442558277E-1,1.806925204E0
1.146790833E-1,1.682943124E0,-2.424856411E-1,3.139615667E-1,1.729065849E0
1.246490833E-1,1.545151294E0,-2.288220137E-1,2.375489831E-1,1.579962517E0
1.346190833E-1,1.443345130E0,-4.400336757E-2,4.974319911E-1,1.527291736E0
1.445890833E-1,1.354048499E0,1.773977986E-1,1.001250311E0,1.693345654E0
1.545590833E-1,8.773992670E-1,4.022285029E-1,1.919606985E0,2.148606111E0
1.645290833E-1,7.716421393E-1,4.501499435E-1,2.558789517E0,2.710252821E0
1.744990833E-1,9.870939097E-1,1.037589879E-1,2.070340018E0,2.295959082E0
1.844690833E-1,9.454143718E-1,-3.244837774E-1,1.678737368E0,1.953780235E0
1.944390833E-1,1.051986601E0,-8.086609346E-1,1.340331516E0,1.886026747E0
2.044090833E-1,9.988395041E-1,-1.323532173E0,8.645389009E-1,1.869985369E0
2.143790833E-1,7.255850834E-1,-1.515026147E0,5.533962768E-1,1.768622452E0
2.243490833E-1,4.980041412E-1,-1.363363406E0,8.298017621E-2,1.453840986E0
2.343190833E-1,2.155736849E-1,-1.139283485E0,-1.342766297E-1,1.167248510E0
2.442890833E-1,-2.059313339E-1,-8.588727296E-1,5.408382118E-2,8.848701259E-1
2.542590833E-1,-5.317937386E-1,-4.828005765E-1,1.230721951E-1,7.287302260E-1
2.642290833E-1,-6.547370026E-1,-1.803771742E-1,-1.966418624E-2,6.794138266E-1
2.741990833E-1,-5.059127927E-1,-5.997138262E-2,-6.400303781E-1,8.180361883E-1
2.841690833E-1,-2.969014379E-1,-1.231854849E-2,-1.320644526E0,1.353663243E0
2.941390833E-1,-2.604753309E-1,6.505173594E-2,-1.651196398E0,1.672880351E0
3.041090833E-1,-1.676844040E-1,5.628566332E-2,-2.068168947E0,2.075718894E0
3.140790833E-1,-2.421788085E-1,2.160799076E-1,-2.440193365E0,2.461683319E0
3.240490833E-1,-5.785436895E-1,4.440026195E-1,-2.691510787E0,2.788562612E0
3.340190833E-1,-9.241597429E-1,4.863528331E-1,-2.988499641E0,3.165713255E0
3.439890833E-1,-1.290643632E0,4.399746189E-1,-3.531477349E0,3.785587262E0
3.539590833E-1,-1.999874345E0,4.371205198E-1,-3.781845183E0,4.300340072E0
3.639290833E-1,-2.445366105E0,2.179973558E-2,-4.146342480E0,4.813776748E0
3.738990833E-1,-2.505617861E0,-8.353803713E-1,-4.621445124E0,5.322944323E0
3.838700833E-1,-3.196494457E0,-1.336542082E0,-3.649716235E0,5.032330489E0
3.938400833E-1,-4.858265544E0,-1.657654355E0,-2.551996806E0,5.732647709E0
4.038100833E-1,-5.567980700E0,-1.664891600E0,-1.854721602E0,6.100349607E0
4.137800833E-1,-5.442670190E0,-1.725101987E0,-2.776304770E0,6.348740335E0
4.237500833E-1,-5.678698897E0,-1.792259013E0,-3.547796928E0,6.931571004E0
4.337200833E-1,-5.249100455E0,-1.386226897E0,-4.045362235E0,6.770497486E0
4.436900833E-1,-4.926522431E0,-5.823005256E-1,-4.139114152E0,6.460802050E0
4.536600833E-1,-4.924651907E0,-1.713782363E-3,-2.814594092E0,5.672225246E0
4.636300833E-1,-4.689420760E0,-7.130748924E-1,-2.101368853E0,5.187956623E0
4.736000833E-1,-3.172406852E0,-1.434573576E0,1.296421266E-1,3.484102992E0
4.835700833E-1,-6.647570837E-1,-8.422414210E-1,2.928658651E0,3.119024541E0
4.935400833E-1,1.646125692E-1,8.429331467E-1,3.709166046E0,3.807301715E0
5.035100833E-1,-5.674839735E-1,1.282332546E0,4.116785682E0,4.349061872E0
5.134800833E-1,-3.950858366E-1,-6.528582922E-1,3.163099254E0,3.253845980E0
5.234500833E-1,1.550120258E-1,-1.816222365E0,8.177130823E-1,1.997835602E0
5.334200833E-1,5.627646858E-1,-5.486818130E-1,-1.398885534E0,1.604567406E0
5.433900833E-1,6.933885598E-1,1.474770114E0,-4.317699813E0,4.615004470E0
5.533600833E-1,1.755973824E0,2.041191502E0,-6.101233318E0,6.668954553E0
5.633300833E-1,3.773014133E0,1.825279117E0,-6.448098922E0,7.690595504E0
5.733000833E-1,5.545330340E0,2.143860277E0,-3.730813608E0,7.018959727E0
5.832700833E-1,7.286953343E0,2.639158326E0,-6.634882379E-1,7.778500006E0
5.932400833E-1,8.746706053E0,2.593989170E0,-2.743125329E0,9.526719433E0
6.032100833E-1,1.004230052E1,2.483295823E0,-4.320491273E0,1.121076281E1
6.131800833E-1,1.128787206E1,2.486342515E0,-2.651087816E0,1.185859272E1
6.231500833E-1,1.105982130E1,2.002038692E0,-2.283406709E0,1.146916528E1
6.331200833E-1,9.468413848E0,6.457153335E-1,-1.859230975E0,9.670809113E0
6.430900833E-1,7.458831078E0,-1.058420585E0,-2.560185832E0,7.956693200E0
6.530600833E-1,5.380027800E0,-2.930220442E0,-5.290278887E0,8.094315392E0
6.630300833E-1,3.268004150E0,-2.244418353E0,-6.947188014E0,7.998792794E0
6.730000833E-1,1.454632888E0,-3.931846145E-1,-5.025160282E0,5.246216431E0
6.829700833E-1,1.184350022E0,-1.645683058E0,-1.407583559E0,2.468248200E0
6.929400833E-1,2.483935801E0,-3.059893852E0,3.440171615E0,5.231411682E0
7.029100833E-1,2.848745340E0,-2.097484255E0,7.315291289E0,8.125778538E0
7.128800833E-1,2.128305806E0,-2.281161086E0,8.787168785E0,9.324575956E0
7.228500833E-1,3.276487291E-1,-9.974923056E-1,8.915656672E0,8.977264532E0
7.328200833E-1,-5.744462532E-1,-1.080442369E0,7.582528925E0,7.680630775E0
7.427900833E-1,2.235472405E-1,-2.176494757E0,6.447933446E0,6.809034330E0
7.527600833E-1,1.490113208E0,-3.033719083E0,4.433762366E0,5.575135654E0
7.627300833E-1,1.284486514E0,-2.393390497E0,9.552157670E-1,2.879350766E0
7.727000833E-1,7.011630177E-2,-3.567646471E-1,-4.435280303E0,4.450158275E0
7.826700833E-1,-1.341003946E0,1.918089925E0,-5.195677954E0,5.698458559E0
7.926400833E-1,-1.890313019E0,2.358035015E0,-2.960600236E-1,3.036653418E0
8.026100833E-1,-3.320650141E0,1.555737971E0,1.810648945E0,4.089680623E0
8.125800833E-1,-5.305802659E0,9.342184156E-1,1.422792460E0,5.572131037E0
8.225500833E-1,-6.590722452E0,-2.401164955E-1,1.317595057E0,6.725424529E0
8.325200833E-1,-6.906914147E0,-1.046397833E0,8.818875166E-1,7.041174408E0
8.424900833E-1,-6.523406382E0,-1.728153357E-1,5.497084379E-1,6.548807168E0
8.524600833E-1,-5.705718296E0,4.446787038E-1,1.586291719E0,5.938794646E0
8.624300833E-1,-4.560023632E0,5.130730006E-1,2.503837384E0,5.227452637E0
8.724000833E-1,-3.261928309E0,1.841463625E-1,2.264022020E0,3.974906525E0
8.823700833E-1,-2.455411329E0,2.723133114E-1,1.775302380E0,3.042186364E0
8.923400833E-1,-2.286075963E0,1.175580076E0,5.596749439E-1,2.630849267E0
9.023100833E-1,-2.831773211E0,2.067360277E0,-6.178974974E-1,3.560156647E0
9.122800833E-1,-2.806595685E0,2.396639210E0,-1.671445305E0,4.051492102E0
9.222500833E-1,-2.518086464E0,2.894096344E0,-3.454453877E-1,3.851737998E0
9.322200833E-1,-2.070834108E0,2.747606050E0,4.586994499E-3,3.440597906E0
9.421900833E-1,-1.514612457E0,2.220710817E0,-6.607102257E-1,2.768058061E0
9.521600833E-1,-1.197474682E0,1.661214140E0,-5.668537898E-1,2.124829700E0
9.621300833E-1,-1.741376250E0,7.290761635E-1,-1.161495010E0,2.216531966E0
9.721000833E-1,-1.621054586E0,-4.707163551E-1,-1.879313529E0,2.526105936E0
9.820700833E-1,-1.091531321E0,-1.230875732E0,-1.908678100E0,2.519830904E0
9.920400833E-1,-2.725264424E-1,-1.268049991E0,-1.381129879E0,1.894661232E0
1.002010083E0,9.385359997E-1,-3.338877082E-2,-4.630708283E-1,1.047090839E0
1.011980083E0,1.740749429E0,7.428472334E-1,-5.284621413E-1,1.965019802E0
1.021950083E0,2.345290132E0,2.373805833E-1,-1.529939324E0,2.810240146E0
1.031920083E0,2.511149912E0,-9.487668729E-1,-2.374141463E0,3.583654580E0
1.041890083E0,2.122382576E0,-1.724880378E0,-3.547908610E0,4.479662445E0
1.051860083E0,1.404107682E0,-7.852848628E-1,-3.853872939E0,4.176185740E0
1.061830083E0,2.330621222E0,5.684774154E-1,-3.089015032E0,3.911134838E0
1.071800083E0,4.864370037E0,1.303115743E0,-2.076255062E0,5.447113142E0
1.081770083E0,7.467608333E0,1.795653030E0,-1.041674306E0,7.750782501E0
1.091740083E0,8.015742701E0,2.300139102E0,-7.881761648E-1,8.376394964E0
1.101710083E0,5.933194866E0,2.880235519E0,-1.698197633E0,6.810464974E0
1.111680583E0,4.242701086E0,3.287874743E0,-2.093167548E0,5.761248408E0
1.121650583E0,3.393945574E0,3.857471901E0,-1.855090123E0,5.462628981E0
1.131620583E0,2.741406248E0,4.126004110E0,-1.459038326E0,5.164107955E0
1.141590583E0,2.347611476E0,4.172671908E0,-1.103842195E0,4.913342862E0
1.151560583E0,2.274366329E0,3.807317408E0,-8.089564383E-1,4.508083691E0
1.161530583E0,2.269218441E0,3.040879583E0,-7.834133153E-1,3.874278952E0
1.171500583E0,2.103420641E0,2.074760513E0,-6.791809952E-1,3.031550165E0
1.181470583E0,1.904151040E0,1.150826765E0,-3.996385518E-1,2.260509765E0
1.191440583E0,2.397332105E0,9.399580425E-1,-2.523096943E-1,2.587350484E0
1.201410583E0,2.612122555E0,1.303332675E0,-2.737202246E-2,2.919350875E0
1.211380583E0,1.913445189E0,-6.598875225E-2,1.005439256E0,2.162529793E0
1.221350583E0,8.914694220E-1,-3.693390843E0,3.470292084E0,5.145753667E0
1.231320583E0,4.642344242E-1,-5.283912438E0,4.394063280E0,6.887890560E0
1.241290583E0,8.437625742E-1,-3.152046847E0,1.254951643E0,3.496031784E0
1.251260583E0,1.918274404E0,-1.270680068E0,-1.462854073E0,2.726599818E0
1.261230583E0,2.308304738E0,-1.685525401E0,-2.349827571E0,3.700129221E0
1.271200583E0,6.839149010E-1,-1.656849486E-1,-1.575697003E0,1.725691786E0
1.281170583E0,-4.798178387E-1,5.430414426E-1,-1.842116029E0,1.979522829E0
1.291140583E0,-4.380742738E-1,2.761885536E-1,-1.719366600E0,1.795664415E0
1.301110583E0,3.807344306E-1,1.065034078E0,1.395533033E-1,1.139618980E0
1.311080583E0,9.692275961E-1,3.181137915E0,-1.882660183E-1,3.330838432E0
1.321050583E0,2.339843743E-1,4.007817264E0,-1.700778301E0,4.360045268E0
1.331020583E0,-3.951350994E-1,4.113684027E0,-1.212611662E0,4.306849784E0
1.340990583E0,-8.937476434E-1,5.075848040E0,-4.823822813E-1,5.176457364E0
1.350960583E0,-1.639077897E0,4.981464624E0,1.656154252E0,5.499492073E0
1.360930583E0,-2.182424857E0,4.124764500E0,3.081166314E0,5.591980534E0
1.370900583E0,-2.488039377E0,2.718833656E0,3.834038014E0,5.318105291E0
1.380870583E0,-3.053979978E0,3.663035023E-1,4.959375013E0,5.835783793E0
1.390840583E0,-4.475730171E0,-3.525714333E0,8.024854417E0,9.841804232E0
1.400810583E0,-5.019440535E0,-7.206359416E0,8.019443988E0,1.189276592E1
1.410780583E0,-4.723775491E0,-9.244321647E0,5.537637743E0,1.176592408E1
1.420750583E0,-4.125592466E0,-1.099755780E1,3.170365589E0,1.216626520E1
1.430720583E0,-3.264750175E0,-1.133330142E1,1.049323779E0,1.184075146E1
1.440690583E0,-1.676395704E0,-8.586855456E0,-3.696770534E-1,8.756771683E0
1.450660583E0,-4.595148441E-1,-4.311821607E0,5.925422162E-2,4.336642771E0
1.460630583E0,-4.580607878E-1,-1.040196276E-1,2.112614803E0,2.164204490E0
1.470600583E0,-5.009595432E-1,2.698381265E0,3.676024613E0,4.587524264E0
1.480570583E0,-6.478348761E-1,4.784445616E0,4.604424172E0,6.671681335E0
1.490540583E0,-8.066453994E-1,6.613354100E0,5.137066049E0,8.412881602E0
1.500510583E0,-9.740560806E-1,8.011912774E0,5.199010867E0,9.600481527E0
1.510480583E0,-9.871871728E-1,9.057860371E0,4.689995834E0,1.024770384E1
1.520450583E0,-8.252137443E-1,9.958964835E0,3.570532656E0,1.061181708E1
1.530420583E0,-7.155454141E-1,1.044388729E1,1.885545200E0,1.063682602E1
1.540390583E0,-7.020117411E-1,1.083863750E1,-7.020196348E-1,1.088401189E1
1.550360583E0,-8.127004836E-1,1.008316087E1,-4.052194707E0,1.089728852E1
1.560330583E0,-1.501359742E0,7.243446550E0,-6.530261657E0,9.867416902E0
1.570300583E0,-2.290486811E0,3.801048024E0,-8.971999272E0,1.000954878E1
1.580270583E0,-2.664228263E0,2.751179284E-1,-1.139427969E1,1.170484566E1
1.590240583E0,-2.084210199E0,-3.478847730E0,-1.271139659E1,1.334263531E1
1.600210583E0,1.189922272E-1,-7.842890820E0,-1.173244288E1,1.411294837E1
1.610180583E0,2.101827275E0,-1.166446316E1,-9.299738048E0,1.506527485E1
1.620150583E0,2.947017154E0,-1.512544881E1,-7.583480852E0,1.717478657E1
1.630120583E0,3.461138853E0,-1.711894940E1,-6.278500432E0,1.855956568E1
1.640090583E0,3.013712542E0,-1.386284784E1,-3.770033222E0,1.467903825E1
1.650060583E0,2.171142508E0,-7.392612530E0,-1.182240054E0,7.795015802E0
1.660030583E0,1.022594110E0,-2.214831734E-1,9.198585311E-1,1.393159441E0
1.670000583E0,-6.560618354E-1,4.108424456E0,1.300707859E0,4.359060630E0
1.679970583E0,-1.889524961E0,6.258352096E0,-1.416504949E0,6.689077799E0
1.689940583E0,-3.315672991E0,7.590610362E0,-6.034147044E0,1.024802340E1
1.699910583E0,-4.326158980E0,7.123092726E0,-6.503514739E0,1.057117805E1
1.709880583E0,-3.112372904E0,3.935367338E0,-3.069987023E0,5.882074592E0
1.719850583E0,-4.055690172E-1,4.455590022E-1,2.147834337E-1,6.396412866E-1
1.729820583E0,8.153804818E-1,-2.771678452E0,3.877405643E0,4.835423590E0
1.739790583E0,-2.984524119E-1,-4.445739217E0,1.022092828E1,1.114993480E1
1.749760583E0,-2.505887418E0,-6.489832254E0,1.272748111E1,1.450469475E1
1.759730583E0,-1.927734761E0,-1.026015374E1,1.081307815E1,1.503028860E1
1.769700583E0,-1.036402456E0,-7.667490138E0,1.037431946E1,1.294183292E1
1.779670583E0,-7.417951000E-1,-4.688317975E0,8.460364394E0,9.700945886E0
1.789640583E0,-2.296065639E-1,-1.261880593E0,6.564659657E0,6.688783015E0
1.799610583E0,2.517096969E-1,1.654545098E0,4.883856761E0,5.162647975E0
1.809580583E0,8.949378441E-1,3.028310409E0,3.507522768E0,4.719564985E0
1.819550583E0,1.298891568E0,2.953307004E0,2.834311780E0,4.294469098E0
1.829520583E0,1.170476187E0,1.943273005E0,3.601634289E0,4.256535449E0
1.839490583E0,7.865737353E-1,5.636218876E-1,4.172063212E0,4.282812081E0
1.849460583E0,5.049327993E-1,-7.131568265E-1,4.521400434E0,4.605063699E0
1.859430583E0,2.700609639E-1,-1.690687323E0,4.515107660E0,4.828825295E0
1.869400583E0,-1.347461611E-2,-1.958250064E0,4.764285586E0,5.151052516E0
1.879370583E0,-2.405529901E-1,-1.800079957E0,4.411240060E0,4.770449922E0
1.889340583E0,-1.884411424E-1,-1.231922384E0,3.849710891E0,4.046407885E0
1.899310583E0,-1.732190859E-1,-1.840896446E-1,3.570408111E0,3.579344622E0
1.909280583E0,-1.225149554E0,1.708927127E0,1.986210279E0,2.892482434E0
1.919250583E0,-1.809427316E0,3.390627279E0,-1.415676398E0,4.095670912E0
1.929220583E0,-5.248431534E-1,4.654535102E0,-7.860730090E0,9.150477305E0
1.939190583E0,3.989739427E-1,4.490628877E0,-7.304891431E0,8.584076347E0
1.949160583E0,9.603279877E-1,3.036351500E0,-3.780314966E0,4.942918320E0
1.959130583E0,9.762215969E-1,1.598767923E0,-4.435488025E-1,1.925046238E0
1.969100583E0,7.806591305E-1,9.135882694E-1,1.593001399E0,1.995426185E0
1.979070583E0,7.974543804E-1,7.179269850E-1,2.375191623E0,2.606316921E0
1.989040583E0,6.132083228E-1,1.175358759E0,2.253661923E0,2.614667230E0
1.999010583E0,9.689976543E-2,1.963450577E0,1.464608238E0,2.451449576E0
2.008980583E0,-2.868603069E-1,2.407989240E0,4.960466395E-1,2.475229946E0
2.018950583E0,-4.775584745E-1,2.499367188E0,-4.133291495E-1,2.577933168E0
2.028920583E0,-5.440404394E-1,2.229843290E0,-1.717430148E0,2.866661371E0
2.038890583E0,-8.147176999E-1,1.434534838E0,-2.895511955E0,3.332513258E0
2.048860583E0,-1.061003593E0,2.327583593E-1,-3.620639786E0,3.780071102E0
2.058830583E0,-9.061935881E-1,-9.191349381E-1,-4.240189999E0,4.432291403E0
2.068800583E0,4.816240436E-1,-1.664753752E0,-5.583136683E0,5.845920115E0
2.078770583E0,2.455779411E0,-1.320312989E0,-7.422862515E0,7.929247557E0
2.088740583E0,3.047506525E0,-4.839722854E-1,-7.615107272E0,8.216531139E0
2.098710583E0,2.963719141E0,-2.481324434E-2,-5.410625694E0,6.169207181E0
2.108680458E0,2.759482330E0,4.231080329E-1,-2.973601520E0,4.078733766E0
2.118650458E0,2.910769387E0,1.234756529E-2,-1.573250382E0,3.308753187E0
2.128620458E0,3.360029092E0,-2.994364983E-1,-1.449750463E0,3.671680013E0
2.138590458E0,3.793453660E0,1.146592212E-1,-2.446334696E0,4.515306285E0
2.148560458E0,3.838808173E0,7.953604925E-1,-3.043652625E0,4.963150996E0
2.158530458E0,3.937598343E0,1.132313311E0,-2.598061464E0,4.851467563E0
2.168500458E0,3.939020094E0,1.421627110E0,-1.976380525E0,4.630656856E0
2.178470458E0,4.015239134E0,1.425658765E0,-1.579556311E0,4.544188196E0
2.188440458E0,4.058220847E0,1.374259985E0,-7.331133735E-1,4.346861186E0
2.198410458E0,4.094902770E0,1.447213356E0,1.504456428E-1,4.345720778E0
2.208380458E0,4.193409058E0,1.195798870E0,6.340366897E-1,4.406429052E0
2.218350458E0,4.524448587E0,5.586049765E-1,4.232717550E-1,4.578409496E0
2.228320458E0,4.875392331E0,1.662591451E-1,-7.399879450E-1,4.934032291E0
2.238290458E0,5.251778480E0,-1.160275866E0,-2.468956111E0,5.918036969E0
2.248260458E0,5.447799953E0,-2.815118587E0,-3.455199836E0,7.038595235E0
2.258230458E0,4.909972472E0,-3.866663724E0,-4.639564768E0,7.783603232E0
2.268200458E0,3.569264980E0,-4.550633004E0,-6.992232040E0,9.074096215E0
2.278170458E0,3.575883443E0,-4.635068552E0,-7.174668092E0,9.259949520E0
2.288140458E0,4.231219201E0,-3.553242440E0,-4.501795304E0,7.127054702E0
2.298110458E0,4.221096209E0,-2.768355480E0,-6.493078628E-1,5.089503509E0
2.308080458E0,3.731130527E0,-2.860863694E0,1.805804965E0,5.036547196E0
2.318050458E0,2.829979286E0,-3.126947089E0,2.381299624E0,4.843260137E0
2.328020458E0,2.202472766E0,-3.417239712E0,2.381696066E0,4.711782007E0
2.337990458E0,2.005899609E0,-3.447106120E0,2.140065726E0,4.526152357E0
2.347960458E0,1.535575309E0,-3.131399744E0,1.429183466E0,3.769114123E0
2.357930458E0,9.941058907E-1,-3.006236585E0,7.350300908E-1,3.250534442E0
2.367900458E0,6.661463821E-1,-3.488676900E0,-1.686874938E-1,3.555709913E0
2.377870458E0,1.731956971E-1,-5.130611308E0,-2.744450308E0,5.821097545E0
2.387840458E0,-3.574981803E-1,-6.785115475E0,-4.695251019E0,8.258993830E0
2.397810458E0,-5.229644430E-1,-6.506516699E0,-3.273460772E0,7.302314482E0
2.407780458E0,-1.031375751E0,-5.601496940E0,1.507810098E0,5.891858382E0
2.417750458E0,-4.663253886E-1,-4.568020284E0,4.272673036E0,6.272160996E0
2.427720458E0,-3.022735673E-1,-3.903718699E0,4.924988122E0,6.291732431E0
2.437690458E0,-6.187488520E-1,-3.142110674E0,5.472633662E0,6.340775097E0
2.447660458E0,-2.123825669E-2,-3.019366508E0,4.962000997E0,5.808483370E0
2.457630458E0,1.080958970E0,-2.669533442E0,3.591512466E0,4.603677105E0
2.467599458E0,1.963754048E0,-1.247705188E0,2.573853406E0,3.469556103E0
2.477569458E0,2.378195922E0,-1.547009540E-1,3.966836760E0,4.627692958E0
2.487539458E0,2.447800593E0,5.988396674E-1,5.919613538E0,6.433673999E0
2.497509458E0,2.237681483E0,2.175732572E0,6.567309616E0,7.271216283E0
2.507479458E0,1.829373338E0,3.822334228E0,6.396643424E0,7.672932480E0
2.517449458E0,1.190084386E0,5.547562222E0,5.094292497E0,7.625192686E0
2.527419458E0,3.566573507E-1,7.517634187E0,3.907932787E0,8.480210310E0
2.537389458E0,-6.148335564E-1,7.847560406E0,4.730663219E0,9.183757353E0
2.547359458E0,-1.563611539E0,6.875371926E0,5.796918488E0,9.127972619E0
2.557329458E0,-2.059147278E0,5.886772651E0,6.468664749E0,8.985421715E0
2.567299458E0,-2.298802721E0,5.455976114E0,6.917111691E0,9.104867020E0
2.577269458E0,-2.707916905E0,5.088741150E0,6.996083016E0,9.064947767E0
2.587239458E0,-3.129934140E0,4.668298278E0,7.012038313E0,8.986555393E0
2.597209458E0,-3.653478334E0,4.445088422E0,6.805297725E0,8.911722176E0
2.607179458E0,-4.479872046E0,3.983139090E0,6.279805530E0,8.681624736E0
2.617149458E0,-5.423625809E0,3.244901217E0,5.522748393E0,8.393202645E0
2.627119458E0,-6.240049142E0,2.710837589E0,4.479374448E0,8.145652164E0
2.637089458E0,-6.978610951E0,2.294802933E0,3.188612995E0,8.008394604E0
2.647059458E0,-7.576644287E0,2.209091522E0,1.976025599E0,8.135742202E0
2.657029458E0,-8.002160788E0,2.282240190E0,4.686897102E-1,8.334438650E0
2.666999458E0,-7.301750307E0,2.921694617E0,-1.985662395E0,8.111393970E0
2.676969458E0,-5.424177786E0,3.168579265E0,-4.903751327E0,7.969214283E0
2.686939458E0,-3.496712728E0,1.832236719E0,-7.911195070E0,8.841442118E0
2.696909458E0,-1.495634149E0,-1.180922384E0,-1.129075357E1,1.145044171E1
2.706879458E0,2.782074802E0,-6.924556950E0,-1.657069692E1,1.817353641E1
2.716849458E0,1.025263890E1,-1.303691577E1,-1.938761996E1,2.551387044E1
2.726819458E0,1.514916512E1,-1.609286129E1,-1.385474126E1,2.608507703E1
2.736789458E0,1.491016836E1,-1.446468070E1,-7.672919862E0,2.214528861E1
2.746759458E0,9.701046492E0,-8.217307334E0,-4.229684014E0,1.339868164E1
2.756729458E0,2.480367245E0,-5.916867685E-1,-8.437172583E-1,2.685921390E0
2.766699458E0,-2.664767962E0,5.139506092E0,2.101936617E0,6.159029851E0
2.776669458E0,-5.450395532E0,8.813679476E0,2.958864198E0,1.077694923E1
2.786639458E0,-7.049610767E0,8.193296328E0,9.760871109E-1,1.085264312E1
2.796609458E0,-7.263163362E0,5.762819281E0,3.218284106E-1,9.277241056E0
2.806579458E0,-5.763750157E0,1.776853062E0,4.132490426E-1,6.045560144E0
2.816549458E0,-1.907056521E0,-3.184084911E0,2.891324179E0,4.704786585E0
2.826519458E0,1.231950451E0,-8.069162863E0,1.120813358E1,1.386547329E1
2.836489458E0,3.647612992E0,-1.481996337E1,1.398187610E1,2.069853266E1
2.846459458E0,6.157133870E0,-1.587003910E1,3.064183369E0,1.729617467E1
2.856429458E0,4.365711593E0,-8.892312832E0,3.896138076E0,1.064483711E1
2.866398458E0,1.594768428E0,-2.919072726E0,6.481722751E0,7.285396471E0
2.876368458E0,-5.007479471E-1,1.495050597E0,6.034884378E0,6.237447735E0
2.886338458E0,-1.931069866E0,4.165375752E0,5.361763437E0,7.058887528E0
2.896308458E0,-2.529175124E0,5.064348321E0,5.692816415E0,8.028232025E0
2.906278458E0,-2.607727203E0,4.621839226E0,5.930150220E0,7.957909313E0
2.916248458E0,-2.106569366E0,3.605513624E0,5.470663151E0,6.882261132E0
2.926218458E0,-1.073336540E0,1.921007978E0,5.777370661E0,6.182259679E0
2.936188458E0,7.830211133E-1,-2.247675544E-1,6.603695669E0,6.653753753E0
2.946158458E0,3.111923838E0,-2.028490326E0,6.043820093E0,7.094124632E0
2.956128458E0,3.987784118E0,-2.914229477E0,4.397076935E0,6.612823995E0
2.966098458E0,4.020567702E0,-1.888030851E0,3.675630657E-1,4.456986398E0
2.976068458E0,3.869456939E0,2.616716713E-1,-3.831977456E0,5.452084031E0
2.986038458E0,2.130472784E0,1.902120886E0,-2.218820704E0,3.616648098E0
2.996008458E0,7.449381977E-1,2.806082300E0,1.234669991E0,3.154907412E0
3.005978458E0,-2.391487813E-1,3.700544912E0,3.761148963E0,5.281805213E0
3.015948458E0,-7.142356378E-1,4.373114460E0,3.901389753E0,5.903821189E0
3.025918458E0,-7.321865898E-1,4.049607314E0,1.756394824E0,4.474409389E0
3.035888458E0,-7.990097398E-1,2.858259929E0,-9.530669153E-1,3.117114520E0
3.045858458E0,-1.178401065E0,1.727514256E0,-3.234606024E0,3.851702313E0
3.055828458E0,-1.624589227E0,1.016814430E0,-3.607466594E0,4.084974537E0
3.065798458E0,-1.739465380E0,5.634569961E-1,-2.402652487E0,3.019265236E0
3.075768458E0,-1.525012314E0,2.463507968E-1,-1.000720553E0,1.840595800E0
3.085738458E0,-1.297695959E0,-2.090964317E-3,-3.171377742E-1,1.335887548E0
3.095708458E0,-1.434899120E0,-2.574716163E-1,-7.672219366E-1,1.647378711E0
3.105678458E0,-1.830103070E0,-5.572858447E-1,-1.963645874E0,2.741486801E0
3.115655333E0,-2.357744116E0,-6.748411918E-1,-3.837108095E0,4.553873789E0
3.125625333E0,-2.789777924E0,-3.432426685E-1,-5.540103514E0,6.212360529E0
3.135595333E0,-3.001738322E0,4.168503428E-1,-5.762407637E0,6.510724916E0
3.145564333E0,-2.620820289E0,1.136560729E0,-4.699087085E0,5.499262560E0
3.155534333E0,-8.888925540E-1,1.747143944E0,-3.837075058E0,4.308803423E0
3.165504333E0,1.075971880E0,2.169469619E0,-3.553996146E0,4.300604902E0
3.175474333E0,2.394472817E0,1.548716342E0,-3.852789743E0,4.793329863E0
3.185444333E0,3.925566820E0,5.757022351E-1,-4.693235191E0,6.145564619E0
3.195414333E0,5.367879040E0,-1.322996861E-1,-5.331522807E0,7.566819942E0
3.205384333E0,6.328724506E0,-2.649695009E-1,-4.745582682E0,7.914765802E0
3.215354333E0,6.678166977E0,1.851520836E-2,-2.789048191E0,7.237198823E0
3.225324333E0,6.650948188E0,7.033890527E-1,-8.472767508E-1,6.741494334E0
3.235294333E0,6.528242029E0,1.704841093E0,-8.000189692E-2,6.747653477E0
3.245264333E0,6.426579999E0,2.488986626E0,-2.561937073E-1,6.896493320E0
3.255234333E0,6.539984992E0,2.707057949E0,-9.615278363E-1,7.143115722E0
3.265204333E0,6.822299674E0,2.111651766E0,-1.817030450E0,7.369155018E0
3.275174333E0,6.823528174E0,6.146365052E-1,-2.559055565E0,7.313486183E0
3.285144333E0,5.881511326E0,-7.813856471E-1,-4.211600330E0,7.276009645E0
3.295114333E0,3.754940389E0,-2.021490625E0,-6.928943532E0,8.136108415E0
3.305084333E0,2.141595942E0,-2.945122656E0,-9.995894680E0,1.063851922E1
3.315054333E0,2.294173188E0,-3.202973172E0,-1.061700113E1,1.132444174E1
3.325024333E0,2.833318046E0,-3.240859036E0,-6.842780131E0,8.084212909E0
3.334994333E0,3.032330369E0,-3.224054723E0,-2.582798769E0,5.124490785E0
3.344964333E0,3.311499833E0,-2.825143638E0,-5.814997494E-2,4.353257303E0
3.354934333E0,4.149752576E0,-2.806447166E0,1.490691351E0,5.226734434E0
3.364904333E0,5.379640714E0,-3.628372144E0,2.913299185E0,7.112870783E0
3.374873333E0,6.045319903E0,-5.384081089E0,4.220955291E0,9.129659659E0
3.384843333E0,5.844014887E0,-7.050503637E0,4.617773073E0,1.025601968E1
3.394813333E0,5.141156176E0,-7.974405810E0,3.693127134E0,1.018144503E1
3.404783333E0,4.604135612E0,-8.389984383E0,2.497275639E0,9.890717279E0
3.414753333E0,4.288919817E0,-8.529920533E0,1.789037636E0,9.713651896E0
3.424723333E0,3.955727928E0,-8.078683299E0,2.460401927E0,9.325582284E0
3.434693333E0,3.453440993E0,-6.848472980E0,4.011523229E0,8.655642984E0
3.444663333E0,2.594180959E0,-5.175446588E0,4.086651472E0,7.086306688E0
3.454633333E0,1.681710092E0,-4.172669569E0,2.009463487E0,4.927196329E0
3.464603333E0,9.958159089E-1,-3.516158229E0,5.084297267E-1,3.689650227E0
3.474573333E0,5.498306447E-1,-2.498066182E0,1.091745914E0,2.781107249E0
3.484543333E0,3.328059733E-1,-1.378889810E0,2.549643594E0,2.917666770E0
3.494513333E0,-1.225178790E-1,3.106976509E-2,5.426680394E0,5.428152178E0
3.504483333E0,-5.592376453E-1,1.314592073E0,8.516687114E0,8.635673596E0
3.514453333E0,-1.091711415E0,2.184450186E0,1.096658159E1,1.123519329E1
3.524423333E0,-1.729168434E0,3.059865493E0,1.218785912E1,1.268450670E1
3.534393333E0,-2.228176834E0,4.296120079E0,1.071044782E1,1.175308948E1
3.544363333E0,-2.880908534E0,5.413732320E0,8.206447300E0,1.024470150E1
3.554333333E0,-3.389801652E0,6.371006307E0,6.700468258E0,9.847677466E0
3.564303333E0,-4.128551742E0,7.391682823E0,4.683797493E0,9.675736323E0
3.574272333E0,-4.729297017E0,7.694290851E0,3.860830541E0,9.822136959E0
3.584242333E0,-4.764387912E0,6.910801960E0,4.254864464E0,9.410762324E0
3.594212333E0,-4.582399172E0,5.823825036E0,4.777235414E0,8.816875775E0
3.604182333E0,-4.557102363E0,4.860538942E0,5.772416900E0,8.815487373E0
3.614152333E0,-4.801991941E0,4.060210070E0,6.519639605E0,9.058152847E0
3.624122333E0,-5.079393207E0,3.433642321E0,6.362597426E0,8.835880315E0
3.634092333E0,-5.437103641E0,2.974031875E0,5.555557705E0,8.322931155E0
3.644062333E0,-5.851123347E0,2.623909957E0,4.764345812E0,7.988713219E0
3.654032333E0,-6.422171198E0,2.237172775E0,4.092842796E0,7.937290915E0
3.664002333E0,-6.914271698E0,2.347736607E0,3.614337072E0,8.147542744E0
3.673972333E0,-6.938716568E0,3.071602024E0,1.986090704E0,7.843792634E0
3.683942333E0,-6.181805611E0,4.232679543E0,-4.202484521E-1,7.503792740E0
3.693912333E0,-5.358133485E0,3.980739977E0,-2.789466267E0,7.234432063E0
3.703882333E0,-4.070036316E0,2.839184557E0,-5.874857780E0,7.690261276E0
3.713852333E0,-2.523016251E0,7.002414966E-1,-9.639387603E0,9.988680719E0
3.723822333E0,-3.446202725E-1,-3.975495025E0,-1.460167394E1,1.513711352E1
3.733792333E0,6.440353700E0,-1.046748081E1,-1.778817142E1,2.162094708E1
3.743762333E0,1.459638104E1,-1.525174282E1,-1.224885026E1,2.440705495E1
3.753732333E0,1.871553631E1,-1.758170038E1,-7.850345435E0,2.685173014E1
3.763701333E0,1.656461231E1,-1.410457407E1,-7.212856257E0,2.292052979E1
3.773671333E0,9.174702358E0,-5.718556443E0,-4.503031698E0,1.171129137E1
3.783641333E0,1.273992516E0,1.239135509E0,-8.054407999E-1,1.951217216E0
3.793611333E0,-3.632783868E0,5.339063961E0,1.168280996E0,6.562591188E0
3.803581333E0,-6.191175774E0,7.085686333E0,5.292253491E-1,9.424313649E0
3.813551333E0,-7.883531892E0,6.410311875E0,-3.196315240E0,1.065169491E1
3.823521333E0,-8.105727257E0,3.675975496E0,-4.369696470E0,9.915132750E0
3.833491333E0,-5.417158788E0,1.163936808E0,-1.284923008E0,5.687827825E0
3.843461333E0,-1.690399640E0,-4.557618088E-1,2.752807441E0,3.262379281E0
3.853431333E0,1.076969415E0,-2.188770109E0,9.791683012E0,1.009096794E1
3.863401333E0,2.873127644E0,-6.463239702E0,1.657173071E1,1.801806284E1
3.873371333E0,7.575681835E0,-1.272629881E1,1.683615700E1,2.242333203E1
3.883341333E0,8.001716400E0,-1.174453727E1,6.955652443E0,1.582222240E1
3.893311333E0,5.280374873E0,-7.573554618E0,4.454269428E0,1.025093188E1
3.903281333E0,1.886001282E0,-2.396959053E0,5.358013033E0,6.165283221E0
3.913251333E0,-6.886353582E-1,1.674781727E0,5.867567471E0,6.140640074E0
3.923221333E0,-1.928369038E0,4.322773442E0,6.409136585E0,7.967559798E0
3.933191333E0,-2.438725129E0,5.345507593E0,6.845039495E0,9.020886729E0
3.943160333E0,-2.416301057E0,5.060899633E0,6.991451436E0,8.962790251E0
3.953130333E0,-1.612093143E0,3.868610846E0,6.759545016E0,7.953391919E0
3.963100333E0,3.466059870E-1,1.527473407E0,6.290919918E0,6.482976487E0
3.973070333E0,1.762047912E0,-8.105533129E-1,2.876757596E0,3.469516361E0
3.983040333E0,2.262073143E0,-2.752437020E0,-6.631407963E0,7.527845377E0
3.993010333E0,1.659204744E0,-2.016792387E0,-7.952365315E0,8.370216605E0
4.002980333E0,4.752266049E-2,4.013218921E-1,-1.933765433E0,1.975542056E0
4.012950333E0,-1.464528716E0,1.932982491E0,2.169393021E0,3.253848759E0
4.022920333E0,-2.116214349E0,2.451938667E0,4.565997148E0,5.598097565E0
4.032890333E0,-2.245359462E0,2.802171682E0,5.244773515E0,6.356213848E0
4.042860333E0,-2.107326581E0,2.969695580E0,4.980213320E0,6.169476628E0
4.052830333E0,-1.776543159E0,2.736850097E0,2.925158508E0,4.382123498E0
4.062800333E0,-1.219044476E0,2.232997279E0,-2.902498647E-1,2.560584165E0
4.072770333E0,-6.114275533E-1,1.584553927E0,-2.155040445E0,2.743875748E0
4.082740333E0,-4.953521365E-1,1.007495722E0,-1.905335101E0,2.211497957E0
4.092709333E0,-4.612769026E-1,6.825712109E-1,-6.916181691E-1,1.075646564E0
4.102679333E0,-3.422387016E-1,7.358229733E-1,3.077250727E-1,8.679040829E-1
4.112642333E0,-1.323833013E-1,8.523690909E-1,1.084224348E-1,8.693755402E-1
4.122612333E0,-1.556446946E-1,1.293425737E0,-1.385891851E0,1.902070354E0
4.132582333E0,-4.022410744E-1,1.540252497E0,-3.622583985E0,3.956929412E0
4.142552333E0,-5.076429838E-1,1.287322413E0,-5.275798842E0,5.454260153E0
4.152522333E0,-3.906372750E-1,6.105995876E-1,-4.499013492E0,4.557033216E0
4.162492333E0,-5.936210275E-2,1.954537082E-1,-2.673394066E0,2.681186649E0
4.172462333E0,2.627428812E-1,4.916853476E-1,-1.757748016E0,1.844035355E0
4.182432333E0,7.899085486E-1,1.230644767E0,-1.997384309E0,2.475476951E0
4.192402333E0,1.687846745E0,1.735381100E0,-3.321025240E0,4.109693765E0
4.202372333E0,2.492321293E0,1.442095288E0,-4.825348059E0,5.619189277E0
4.212342333E0,2.969852870E0,2.770533568E-1,-5.442306494E0,6.206084482E0
4.222312333E0,3.096510578E0,-4.990750587E-1,-5.331297104E0,6.185481589E0
4.232281333E0,3.178690270E0,-4.514167428E-2,-4.985631934E0,5.912921054E0
4.242251333E0,3.018169582E0,1.043629176E0,-4.367530662E0,5.410529878E0
4.252221333E0,2.967671274E0,1.403163357E0,-3.426920947E0,4.745495482E0
4.262191333E0,3.431283554E0,1.402075190E0,-2.294434558E0,4.359352201E0
4.272161333E0,4.274297100E0,1.385335196E0,-1.283956171E0,4.673041061E0
4.282131333E0,5.037599064E0,1.301677328E0,-7.002251244E-1,5.249960325E0
4.292101333E0,5.589467463E0,1.525857822E0,2.456906462E-1,5.799202747E0
4.302071333E0,6.038871594E0,1.732332362E0,1.099153166E0,6.377858828E0
4.312041333E0,6.599989704E0,1.926768070E0,4.768649948E-1,6.892002576E0
4.322011333E0,7.505807024E0,2.152317982E0,-1.721277031E0,7.995774283E0
4.331981333E0,7.287106540E0,9.783146077E-1,-4.460063726E0,8.599487755E0
4.341951333E0,5.580512452E0,-1.283515291E0,-6.457881314E0,8.630976874E0
4.351921333E0,4.398513595E0,-2.679263209E0,-7.051255589E0,8.731871424E0
4.361890333E0,4.296452785E0,-3.052611437E0,-7.251229194E0,8.964277324E0
4.371860333E0,4.513303794E0,-2.628857871E0,-5.384771061E0,7.501770739E0
4.381830333E0,4.641501074E0,-2.235826746E0,-1.977905479E0,5.518565352E0
4.391800333E0,4.602179718E0,-2.120421420E0,3.996636218E-1,5.082910206E0
4.401770333E0,4.395781192E0,-2.641919382E0,1.643297394E0,5.385448600E0
4.411740333E0,4.104212122E0,-3.505270713E0,2.246437104E0,5.846191887E0
4.421710333E0,3.584913298E0,-4.290597383E0,2.337294649E0,6.060014483E0
4.431680333E0,2.866246641E0,-4.808077723E0,1.972245959E0,5.934874499E0
4.441650333E0,2.420026318E0,-5.543518288E0,1.267676353E0,6.180139621E0
4.451620333E0,2.235199340E0,-7.050654495E0,7.727446318E-2,7.396878817E0
4.461590333E0,1.904008952E0,-9.003223988E0,-3.483562048E-1,9.208943714E0
4.471560333E0,1.469221691E0,-9.774732519E0,1.409421047E0,9.984511800E0
4.481530333E0,9.596046871E-1,-8.933895307E0,3.532419920E0,9.654704397E0
4.491499333E0,4.231629968E-1,-7.236919304E0,5.679278941E0,9.209032371E0
4.501469333E0,1.336825526E-1,-5.190014926E0,6.101650225E0,8.011508062E0
4.511439333E0,-4.624299735E-1,-3.116053142E0,3.760597278E0,4.905682476E0
4.521409333E0,-9.762563878E-1,-1.063669338E0,2.038779379E0,2.498217435E0
4.531379333E0,-5.858103168E-1,2.341663688E-1,9.899850655E-1,1.173915689E0
4.541349333E0,-1.490981519E-1,1.647495695E0,6.287803352E-1,1.769699701E0
4.551319333E0,4.563640720E-1,2.522209920E0,1.990031727E0,3.245001899E0
4.561289333E0,1.021132599E0,2.774920149E0,5.628773616E0,6.358143285E0
4.571259333E0,1.155478225E0,3.257715974E0,9.028524306E0,9.667579554E0
4.581229333E0,1.076006379E0,4.298006975E0,1.016981426E1,1.109305079E1
4.591199333E0,4.848277330E-1,5.257134529E0,9.917409843E0,1.123510300E1
4.601169333E0,-5.323129714E-2,6.652046880E0,7.883220236E0,1.031492717E1
4.611138333E0,-8.182798237E-1,7.441401697E0,5.557289066E0,9.323491988E0
4.621108333E0,-1.679766478E0,6.691776372E0,4.915687541E0,8.471450314E0
4.631078333E0,-2.059907416E0,5.374903885E0,5.058247336E0,7.662811262E0
4.641048333E0,-2.221411605E0,4.362596489E0,5.425654208E0,7.307847920E0
4.651018333E0,-2.561394451E0,3.609886172E0,6.482108667E0,7.849188014E0
4.660988333E0,-3.069498780E0,3.248335286E0,7.653776078E0,8.863057777E0
4.670958333E0,-3.815105900E0,3.037120408E0,7.804756449E0,9.202899360E0
4.680928333E0,-4.713933750E0,2.822836912E0,7.018784246E0,8.913636291E0
4.690898333E0,-5.713744769E0,2.645837601E0,5.708750662E0,8.499245262E0
4.700868333E0,-6.475275026E0,2.536925023E0,4.553088250E0,8.312387614E0
4.710838333E0,-7.038276524E0,2.508440897E0,3.921597145E0,8.438515055E0
4.720808333E0,-7.549158280E0,2.628121707E0,3.115238040E0,8.579132969E0
4.730777333E0,-7.516096954E0,3.511247152E0,1.432911066E0,8.418658094E0
4.740747333E0,-6.544678552E0,4.270332688E0,-1.036995510E0,7.883141398E0
4.750717333E0,-5.492484959E0,3.525292164E0,-3.823773812E0,7.564147145E0
4.760687333E0,-4.307280659E0,2.220286601E0,-7.261891592E0,8.730258230E0
4.770657333E0,-3.214681637E0,-1.438502759E-1,-1.136077398E1,1.180771173E1
4.780627333E0,-1.123431975E0,-4.766066648E0,-1.689629561E1,1.759154047E1
4.790597333E0,6.627493837E0,-1.114311605E1,-1.971962954E1,2.359992583E1
4.800567333E0,1.458350898E1,-1.453128984E1,-1.385577856E1,2.481571514E1
4.810537333E0,1.811446125E1,-1.550530616E1,-7.145840149E0,2.489199182E1
4.820507333E0,1.624195593E1,-1.231274863E1,-5.412423713E0,2.108789325E1
4.830477333E0,8.695904859E0,-4.969973091E0,-1.834861827E0,1.018263776E1
4.840446333E0,1.155815025E0,7.713676125E-1,2.221226541E0,2.620069410E0
4.850416333E0,-3.745216470E0,4.174067638E0,2.987871065E0,6.354278917E0
4.860386333E0,-6.657687689E0,4.282036475E0,-3.979848862E-2,7.915947553E0
4.870356333E0,-6.558532360E0,4.987780201E-1,-4.337362829E0,7.878822409E0
4.880326333E0,-3.846612452E0,-2.365966471E0,-2.710296721E0,5.266871274E0
4.890296333E0,1.856461734E-1,-3.812645391E0,3.313254291E0,5.054540867E0
4.900266333E0,3.417990494E0,-5.115957600E0,7.331520821E0,9.571148245E0
4.910236333E0,2.914756311E0,-5.840010129E0,1.204993383E1,1.370410260E1
4.920206333E0,8.588302642E-1,-6.539475115E0,1.447555067E1,1.590735338E1
4.930176333E0,-9.752734709E-1,-4.783024158E0,9.190698001E0,1.040660407E1
4.940145333E0,-2.103125356E0,9.299172038E-1,2.328985463E0,3.272927674E0
4.950115333E0,-2.462958330E0,4.874544777E0,2.220828930E0,5.895712990E0
4.960085333E0,-2.564002894E0,6.720492048E0,2.550718313E0,7.631860069E0
4.970055333E0,-2.389126123E0,6.954708118E0,4.094104917E0,8.416506621E0
4.980025333E0,-2.273779854E0,5.930874106E0,5.835313060E0,8.625324399E0
4.989995333E0,-1.396136758E0,4.271467048E0,6.688154022E0,8.057669192E0
4.999965333E0,4.561401236E-1,1.892865329E0,8.166952282E0,8.395839002E0
5.009935333E0,3.124546807E0,-9.595696038E-1,9.326265696E0,9.882449009E0
5.019905333E0,5.104037467E0,-3.279915513E0,8.980650812E0,1.083794876E1
5.029875333E0,5.261733949E0,-3.786310701E0,6.413731327E0,9.119097675E0
5.039844333E0,4.912562204E0,-2.433812883E0,2.130076489E0,5.881661195E0
5.049814333E0,3.945377771E0,5.387209350E-1,-3.466351061E0,5.279376448E0
5.059784333E0,1.320978987E0,2.257621658E0,-2.936656473E0,3.932657152E0
5.069754333E0,-5.133703315E-1,2.940322677E0,8.368184209E-2,2.985975417E0
5.079724333E0,-1.173761884E0,3.324693491E0,1.578901423E0,3.863189547E0
5.089694333E0,-1.304885695E0,3.168596222E0,1.049261799E0,3.583807893E0
5.099664333E0,-1.170057673E0,2.326445725E0,1.064380360E-1,2.606283508E0
5.109634208E0,-1.003689185E0,1.200232229E0,-8.169929246E-1,1.765057173E0
5.119604208E0,-8.902806830E-1,9.083246058E-1,-2.329055337E0,2.653705343E0
5.129574208E0,-1.163345069E0,1.025325052E0,-3.367986860E0,3.707829379E0
5.139543208E0,-1.565200227E0,1.123047813E0,-3.125141469E0,3.671184733E0
5.149513208E0,-1.617905275E0,1.039582903E0,-1.581882334E0,2.490120842E0
5.159483208E0,-1.482911777E0,7.590767652E-1,-2.784913333E-1,1.689018146E0
5.169453208E0,-1.325662606E0,5.410989976E-1,3.971949273E-1,1.485911599E0
5.179423208E0,-1.254652265E0,4.798605233E-1,3.024168241E-1,1.376907537E0
5.189393208E0,-1.293791188E0,6.609949851E-1,-6.007160389E-1,1.572154499E0
5.199363208E0,-1.367397693E0,8.774980849E-1,-2.002231504E0,2.578509324E0
5.209333208E0,-1.262712067E0,9.463712686E-1,-3.234477970E0,3.598875947E0
5.219303208E0,-7.431208831E-1,9.093075228E-1,-3.742995405E0,3.922892226E0
5.229272208E0,4.763761675E-1,7.506070733E-1,-3.905418192E0,4.005326015E0
5.239242208E0,2.108501871E0,1.034454310E0,-4.381186249E0,4.970982680E0
5.249212208E0,3.002923552E0,1.492528108E0,-4.914682404E0,5.949730511E0
5.259182208E0,3.252425998E0,1.591038489E0,-4.875599907E0,6.072985494E0
5.269152208E0,3.262744580E0,1.191907548E0,-4.103812172E0,5.376562112E0
5.279122208E0,2.899965194E0,6.579047316E-1,-3.417981724E0,4.530478543E0
5.289092208E0,1.806790221E0,1.309489793E-1,-3.538371216E0,3.975136400E0
5.299062208E0,9.244307613E-1,2.890495044E-1,-4.268466257E0,4.376976814E0
5.309032208E0,1.057053214E0,1.105807883E0,-4.205197045E0,4.474802203E0
5.319001208E0,2.364094192E0,1.724488907E0,-3.077872578E0,4.246893329E0
5.328971208E0,4.245531138E0,1.501093694E0,-1.703742109E0,4.814618790E0
5.338941208E0,5.135064547E0,1.027296733E0,-3.681585315E-1,5.249739725E0
5.348911208E0,5.238049217E0,1.175185096E0,3.662345052E-1,5.380738549E0
5.358881208E0,5.431926516E0,1.820527670E0,4.375366223E-1,5.745570900E0
5.368851208E0,6.322078561E0,2.260717759E0,-3.205890933E-1,6.721778000E0
5.378821208E0,7.748383443E0,2.166519699E0,-2.791737033E0,8.516163998E0
5.388791208E0,7.856215455E0,2.794811207E-1,-6.008790008E0,9.894634321E0
5.398761208E0,6.449585869E0,-2.397392331E0,-7.893784400E0,1.047169900E1
5.408730208E0,5.317435695E0,-3.299884924E0,-8.451796469E0,1.051652159E1
5.418700208E0,4.852380322E0,-2.901020617E0,-7.700717525E0,9.553144289E0
5.428670208E0,4.220012135E0,-2.217362409E0,-4.585101755E0,6.614254045E0
5.438640208E0,3.659109203E0,-1.786916705E0,-1.177484952E0,4.238941174E0
5.448610208E0,3.617624962E0,-1.760017174E0,1.053264657E0,4.158634061E0
5.458580208E0,3.955226821E0,-2.072159672E0,2.331323472E0,5.037135500E0
5.468550208E0,4.664590559E0,-2.855832750E0,3.081552231E0,6.277750387E0
5.478520208E0,5.164152106E0,-4.279695250E0,3.395958771E0,7.517765251E0
5.488489208E0,4.747808717E0,-5.507484822E0,2.814014633E0,7.796970888E0
5.498459208E0,4.249178047E0,-6.861397666E0,1.770559119E0,8.262516057E0
5.508429208E0,4.079634520E0,-8.800551893E0,-8.287828848E-2,9.700515463E0
5.518399208E0,3.731990068E0,-1.001332406E1,-2.446802473E-1,1.068897923E1
5.528369208E0,2.457302903E0,-9.146080822E0,2.022073738E0,9.683899740E0
5.538339208E0,8.860625017E-1,-6.792552549E0,4.810015490E0,8.370192704E0
5.548309208E0,-1.129021329E-1,-4.787096744E0,6.140825400E0,7.787090517E0
5.558279208E0,-6.799691999E-1,-3.183251098E0,4.807466689E0,5.805788631E0
5.568249208E0,-1.228224020E0,-1.536144828E0,1.466691893E0,2.453458841E0
5.578218208E0,-1.126812251E0,-2.232852852E-1,1.086529613E-1,1.153849051E0
5.588188208E0,-7.112851328E-1,5.155472499E-1,1.335029846E0,1.598130219E0
5.598158208E0,-4.011786354E-1,1.627131597E0,4.075765418E0,4.406854351E0
5.608128208E0,1.136347890E-2,2.575592660E0,7.132202103E0,7.583014804E0
5.618098208E0,1.405121005E-1,2.945412678E0,1.069455977E1,1.109363818E1
5.628068208E0,2.522605777E-2,4.266696305E0,1.075636016E1,1.157171628E1
5.638038208E0,-1.664263755E-1,6.078618627E0,9.147798734E0,1.098451291E1
5.648008208E0,-7.511485255E-1,7.814262852E0,6.327759715E0,1.008302886E1
5.657977208E0,-1.704944004E0,9.146206537E0,3.772137051E0,1.003936980E1
5.667947208E0,-2.649653494E0,8.671091614E0,3.214200996E0,9.619749553E0
5.677917208E0,-3.029990314E0,6.989597284E0,4.078082669E0,8.640953058E0
5.687887208E0,-2.840576779E0,5.449559380E0,5.272046099E0,8.096977457E0
5.697857208E0,-2.626457589E0,4.054416649E0,6.152210514E0,7.822165176E0
5.707827208E0,-2.663682718E0,2.962706988E0,6.614470918E0,7.721661987E0
5.717797208E0,-3.193507699E0,2.402264816E0,6.485604717E0,7.617902350E0
5.727767208E0,-4.024091234E0,1.995161197E0,6.139585791E0,7.607134293E0
5.737736208E0,-5.153685005E0,1.558233270E0,5.268431935E0,7.532923411E0
5.747706208E0,-6.320858831E0,1.215837278E0,4.529609340E0,7.870760918E0
5.757676208E0,-7.309787890E0,1.319495548E0,4.122230609E0,8.495107574E0
5.767646208E0,-7.973403012E0,1.782176952E0,3.355987497E0,8.832551294E0
5.777616208E0,-7.571602818E0,3.122675698E0,1.570373259E0,8.339445121E0
5.787586208E0,-6.575340766E0,3.816968822E0,-3.787507626E-1,7.612345849E0
5.797556208E0,-5.633201128E0,3.118634103E0,-2.088972463E0,6.769242171E0
5.807526208E0,-4.488656026E0,1.947481831E0,-4.219320409E0,6.460911942E0
5.817495208E0,-3.004853134E0,1.758497483E-1,-7.298661808E0,7.894968630E0
5.827465208E0,-8.377557296E-1,-3.576223167E0,-1.177391719E1,1.233354502E1
5.837435208E0,4.876907637E0,-9.881799130E0,-1.752361648E1,2.070051489E1
5.847405208E0,1.389452104E1,-1.408169509E1,-1.544299589E1,2.509657294E1
5.857375208E0,2.068888739E1,-1.524833974E1,-1.086764671E1,2.790425902E1
5.867345208E0,1.888460504E1,-1.047300760E1,-9.268629692E0,2.349935514E1
5.877315208E0,9.528649524E0,-2.594892565E0,-5.529088529E0,1.131810272E1
5.887285208E0,1.513283384E0,1.135343923E0,-1.548635943E0,2.444852901E0
5.897254208E0,-3.536393103E0,3.301876486E0,4.636634436E-1,4.860395899E0
5.907224208E0,-6.421185358E0,3.536184942E0,3.880124599E-2,7.330602354E0
5.917194208E0,-7.133098481E0,6.479492623E-1,-2.685134398E0,7.649240415E0
5.927164208E0,-5.136090149E0,-3.047503894E0,-1.521662152E0,6.162966632E0
5.937134208E0,-2.992458791E-1,-4.467922384E0,6.162092893E0,7.617300529E0
5.947104208E0,4.444799570E0,-5.681444750E0,1.271315544E1,1.461709201E1
5.957074208E0,7.503210275E0,-9.375703320E0,1.602060958E1,2.002153612E1
5.967043208E0,8.643252436E0,-1.075055738E1,1.342176313E1,1.924640284E1
5.977013208E0,5.176922425E0,-4.406731857E0,5.644199156E0,8.836107489E0
5.986983208E0,3.074389976E-1,1.960037557E0,3.327661830E0,3.874222402E0
5.996953208E0,-3.178575665E0,5.640877352E0,4.798948173E0,8.059326530E0
6.006923208E0,-5.305826633E0,8.650923983E0,4.694149404E0,1.118147220E1
6.016893208E0,-6.582182593E0,1.032335981E1,3.861807319E0,1.283785189E1
6.026863208E0,-6.669620102E0,9.840185666E0,3.566582570E0,1.241102725E1
6.036833208E0,-5.200506585E0,7.132191578E0,3.968098297E0,9.677769864E0
6.046802208E0,-2.700782132E0,2.984694273E0,5.444342494E0,6.770782024E0
6.056772208E0,4.915169477E-1,-1.523954553E0,6.845704908E0,7.030483773E0
6.066742208E0,3.489841080E0,-5.550936066E0,6.108437673E0,8.961299726E0
6.076712208E0,5.629986913E0,-7.887732532E0,2.605878314E0,1.003512227E1
6.086682208E0,6.017754375E0,-7.518315972E0,-7.549316740E-1,9.659625490E0
6.096652208E0,4.147406089E0,-4.605448896E0,2.202484899E0,6.577391317E0
6.106622208E0,2.039822230E0,-3.835375857E-1,4.688145483E0,5.127054113E0
6.116591333E0,6.854334229E-1,3.153592851E0,5.486585119E0,6.365342341E0
6.126561333E0,1.261373055E-1,5.963751830E0,5.510154076E0,8.120593848E0
6.136531333E0,1.417587268E-1,7.227494177E0,3.125989900E0,7.875822526E0
6.146501333E0,5.215242738E-1,6.921871909E0,-1.527610817E0,7.107594044E0
6.156471333E0,6.731490076E-1,5.150774846E0,-6.130841864E0,8.035597866E0
6.166441333E0,5.947419387E-1,2.047366893E0,-7.193064601E0,7.502373460E0
6.176411333E0,8.884902656E-2,1.349554914E-1,-5.985916286E0,5.988096602E0
6.186380333E0,-4.393258703E-1,-1.965512305E-1,-3.553559066E0,3.586003576E0
6.196350333E0,-5.839590883E-1,-1.760158092E-1,-1.534847477E0,1.651589102E0
6.206320333E0,-6.814900607E-1,-3.783832651E-1,-2.640241523E-1,8.229892777E-1
6.216290333E0,-9.341494185E-1,-6.480287844E-1,2.158474807E-1,1.157223650E0
6.226260333E0,-1.232600076E0,-5.762565511E-1,-4.734421809E-1,1.440667227E0
6.236230333E0,-1.719325815E0,-1.584577900E-1,-1.734583540E0,2.447441560E0
6.246200333E0,-2.402314517E0,6.031794709E-1,-2.695465259E0,3.660665715E0
6.256169333E0,-2.857936578E0,1.248924918E0,-3.197427673E0,4.466671989E0
6.266139333E0,-3.039763935E0,1.704397289E0,-3.058963852E0,4.637067473E0
6.276109333E0,-2.479401870E0,2.043630522E0,-2.920452084E0,4.341992597E0
6.286079333E0,-3.443553936E-1,2.266963754E0,-3.379652056E0,4.084085371E0
6.296049333E0,1.437770687E0,1.786750059E0,-3.997754790E0,4.608872279E0
6.306019333E0,2.216921529E0,8.300233716E-1,-4.367784723E0,4.968020053E0
6.315989333E0,2.546981649E0,-1.498922038E-1,-4.368712384E0,5.059172965E0
6.325958333E0,1.893486303E0,-8.730091774E-1,-4.023160650E0,4.531363704E0
6.335928333E0,7.399785894E-1,-2.834630746E-1,-3.678485998E0,3.762868436E0
6.345898333E0,6.066585642E-1,1.163086622E0,-3.558681227E0,3.792758519E0
6.355868333E0,2.198627930E0,2.153631851E0,-3.640831976E0,4.767363254E0
6.365838333E0,4.514206604E0,2.055078201E0,-3.161259428E0,5.881748792E0
6.375808333E0,5.657905614E0,1.779226447E0,-1.453105303E0,6.106476701E0
6.385778333E0,6.344275761E0,2.084011393E0,6.978455999E-1,6.714158689E0
6.395747333E0,7.405686904E0,2.683535770E0,1.516620683E0,8.021577217E0
6.405717333E0,8.908314908E0,3.119347463E0,2.626551729E-1,9.442319145E0
6.415687333E0,9.998855710E0,3.663412753E0,-2.398045173E0,1.091550865E1
6.425657333E0,9.258837944E0,2.735621012E0,-5.435158857E0,1.107928943E1
6.435627333E0,7.052036777E0,-4.038338560E-1,-7.060266148E0,9.987074775E0
6.445597333E0,5.596452547E0,-1.805324909E0,-7.982986014E0,9.915016129E0
6.455566333E0,5.734404736E0,-1.859664838E0,-7.485242951E0,9.610963168E0
6.465536333E0,5.996880400E0,-1.881680190E0,-3.394855986E0,7.143412492E0
6.475506333E0,5.739201792E0,-2.476678821E0,4.371254168E-1,6.266055683E0
6.485476333E0,5.469244616E0,-3.142060388E0,2.944992263E0,6.961189523E0
6.495446333E0,5.169202931E0,-4.269976593E0,4.412801267E0,8.026591684E0
6.505416333E0,4.548858374E0,-5.973076385E0,4.651343107E0,8.832029591E0
6.515386333E0,3.562482795E0,-7.867495903E0,3.258875477E0,9.230874543E0
6.525355333E0,2.391933956E0,-1.003481959E1,6.496263899E-2,1.031616074E1
6.535325333E0,1.385277309E0,-1.120119294E1,-2.089240558E0,1.147826827E1
6.545295333E0,6.940136272E-1,-9.919802524E0,-1.421310775E0,1.004511132E1
6.555265333E0,1.069204313E-1,-7.417529270E0,-4.056855230E-1,7.429384442E0
6.565235333E0,-5.530162078E-1,-5.801078197E0,4.505817604E-1,5.844771946E0
6.575205333E0,-8.697142714E-1,-5.139864526E0,1.392582235E0,5.395729380E0
6.585175333E0,-8.045055377E-1,-4.833056443E0,2.498845031E0,5.499990021E0
6.595144333E0,-2.191910648E-1,-4.786019102E0,4.476590881E0,6.556972585E0
6.605114333E0,5.211208159E-1,-3.031617009E0,6.375839031E0,7.079095418E0
6.615084333E0,1.156264091E0,-1.143472722E0,7.068130653E0,7.252788942E0
6.625054333E0,1.163926867E0,6.460302061E-1,7.266318519E0,7.387250206E0
6.635024333E0,1.289259596E0,2.249022743E0,7.489076385E0,7.925058909E0
6.644994333E0,1.234139063E0,3.571999723E0,6.302824264E0,7.349005031E0
6.654963333E0,6.602746081E-1,4.939855253E0,5.489982351E0,7.414717708E0
6.664933333E0,7.791590273E-2,6.128125833E0,4.851542123E0,7.816486300E0
6.674903333E0,-8.107263905E-1,6.794190938E0,4.720324464E0,8.312627192E0
6.684873333E0,-1.613350879E0,6.397745624E0,5.322263741E0,8.477059718E0
6.694843333E0,-1.908084462E0,5.475830920E0,5.352849941E0,7.891673654E0
6.704813333E0,-2.354093699E0,4.753862339E0,5.318436154E0,7.511772587E0
6.714783333E0,-2.788141873E0,4.272480955E0,5.429563072E0,7.450368029E0
6.724752333E0,-3.175451497E0,3.821181741E0,5.586169633E0,7.475975741E0
6.734722333E0,-3.679940493E0,3.262062795E0,5.957207626E0,7.724722546E0
6.744692333E0,-4.272210814E0,2.798327138E0,6.010683922E0,7.887378602E0
6.754662333E0,-4.832790980E0,2.702642131E0,6.558431203E0,8.583307229E0
6.764632333E0,-5.498858424E0,2.688069116E0,6.569139794E0,8.978683488E0
6.774602333E0,-6.278813258E0,2.688022923E0,5.773323804E0,8.943166715E0
6.784571333E0,-7.158132166E0,2.694921468E0,4.457764893E0,8.852859745E0
6.794541333E0,-8.190858039E0,2.831190244E0,3.180476010E0,9.231534068E0
6.804511333E0,-9.147796395E0,2.993471528E0,2.327759010E0,9.902601309E0
6.814481333E0,-9.462167267E0,3.183180347E0,1.297611174E0,1.006722610E1
6.824451333E0,-8.290552481E0,3.522907670E0,-6.775542998E-1,9.033449990E0
6.834421333E0,-6.135435437E0,2.590186141E0,-3.000939884E0,7.304674698E0
6.844390333E0,-3.986090180E0,7.724932015E-1,-5.401690564E0,6.757508536E0
6.854360333E0,-1.877146259E0,-1.907652352E0,-9.527256718E0,9.896031333E0
6.864330333E0,2.699754776E0,-6.629869561E0,-1.804396605E1,1.941207246E1
6.874300333E0,1.101705944E1,-1.150871906E1,-2.133302603E1,2.662563074E1
6.884270333E0,1.771455029E1,-1.399725662E1,-1.464081053E1,2.690876842E1
6.894240333E0,1.842537876E1,-1.214234907E1,-1.019798030E1,2.430905234E1
6.904210333E0,1.264204511E1,-6.238281528E0,-6.903241510E0,1.569688518E1
6.914179333E0,3.927351390E0,-1.741126574E0,-2.065738844E0,4.766853015E0
6.924149333E0,-1.793604750E0,1.437722155E0,1.837427000E0,2.942821941E0
6.934119333E0,-5.695856967E0,3.578670226E0,3.726412117E0,7.689981433E0
6.944089333E0,-7.459348556E0,4.191843758E0,2.449473189E0,8.900188418E0
6.954059333E0,-7.863399929E0,1.920258365E0,-1.810980921E0,8.294582721E0
6.964029333E0,-5.192250901E0,-1.986234253E0,-4.069733138E0,6.889653383E0
6.973998333E0,7.743935466E-1,-3.870657957E0,-5.911920941E-1,3.991389041E0
6.983968333E0,4.431291332E0,-3.734771004E0,8.277529562E0,1.010457090E1
6.993938333E0,5.954124974E0,-5.769951714E0,1.574197221E1,1.779195425E1
7.003908333E0,7.707622502E0,-8.287887905E0,1.737844649E1,2.073901958E1
7.013878333E0,5.258598087E0,-5.900496651E0,1.302336894E1,1.523406883E1
7.023848333E0,1.746324749E0,-1.707495729E0,6.958128154E0,7.374329746E0
7.033817333E0,-3.342022884E-1,2.633621598E0,1.202754426E0,2.914493455E0
7.043787333E0,-1.485851172E0,5.110633126E0,4.355447683E-1,5.340039691E0
7.053757333E0,-2.223299087E0,5.017537267E0,3.690400870E0,6.613455801E0
7.063727333E0,-2.387905809E0,4.228334477E0,5.299096488E0,7.187581665E0
7.073697333E0,-1.760415954E0,3.083086540E0,6.617661159E0,7.509855269E0
7.083667333E0,-4.236950934E-2,5.302442265E-1,8.804482391E0,8.820536508E0
7.093636333E0,2.203658874E0,-2.699014519E0,9.336554457E0,9.965542681E0
7.103606333E0,3.184349205E0,-4.547898261E0,7.413890548E0,9.262247649E0
7.113576875E0,3.022483658E0,-5.312364990E0,4.029441437E0,7.320725889E0
7.123546875E0,2.598402064E0,-4.309462840E0,-2.645813627E0,5.685375362E0
7.133516875E0,1.431161579E0,-1.607766788E0,-3.321458226E0,3.957931563E0
7.143486875E0,-4.619885087E-3,3.681290030E-1,-1.572514363E-1,4.003352601E-1
7.153455875E0,-9.336184913E-1,1.914272570E0,2.246624215E0,3.095707241E0
7.163425875E0,-1.466078228E0,3.451490947E0,3.986329916E0,5.472933521E0
7.173395875E0,-1.593435262E0,4.323611348E0,3.781527679E0,5.960922966E0
7.183365875E0,-1.339101262E0,4.219364263E0,2.232349992E0,4.957783120E0
7.193335875E0,-9.040017593E-1,3.545128843E0,5.582196450E-1,3.700914329E0
7.203305875E0,-6.816637230E-1,3.168722522E0,-2.342813251E0,3.999280158E0
7.213274875E0,-8.997157502E-1,3.030933470E0,-4.481782039E0,5.484743966E0
7.223244875E0,-1.405049084E0,2.602075869E0,-3.702037121E0,4.738147381E0
7.233214875E0,-1.818262458E0,2.103058113E0,-1.628876406E0,3.222137511E0
7.243184875E0,-1.733888306E0,1.463830558E0,-4.626732177E-1,2.315865943E0
7.253154875E0,-1.364985132E0,7.062881023E-1,2.371031329E-2,1.537071720E0
7.263123875E0,-1.243899236E0,1.575158036E-1,-4.620645225E-2,1.254683854E0
7.273093875E0,-1.497266691E0,-1.994742537E-1,-1.193875867E0,1.925340777E0
7.283063875E0,-1.493542600E0,-2.733959234E-1,-3.095910069E0,3.448198658E0
7.293033875E0,-1.542212484E0,-2.152968192E-1,-4.039966425E0,4.329676752E0
7.303003875E0,-1.610390434E0,2.141484261E-2,-3.876353145E0,4.197609992E0
7.312973875E0,-1.606289197E0,4.498637223E-1,-3.413418556E0,3.799206311E0
7.322942875E0,-1.547800083E0,1.157657483E0,-3.079679660E0,3.635970675E0
7.332912875E0,4.509577364E-1,2.198359542E0,-3.295395140E0,3.986950800E0
7.342882875E0,2.897162039E0,1.889002073E0,-4.407745472E0,5.602686575E0
7.352852875E0,4.201585220E0,9.685140896E-1,-5.871676310E0,7.284773201E0
7.362822875E0,5.132733847E0,3.783949596E-1,-6.792092957E0,8.521776002E0
7.372792875E0,5.745880482E0,1.799387062E-1,-6.417254859E0,8.615606791E0
7.382761875E0,5.827574270E0,4.317759454E-1,-4.856780351E0,7.598379283E0
7.392731875E0,5.385118970E0,9.954703385E-1,-3.223840423E0,6.354810351E0
7.402701875E0,4.870373374E0,1.694535375E0,-2.071913212E0,5.557410484E0
7.412671875E0,4.585752550E0,2.139768687E0,-8.641670179E-1,5.133665467E0
7.422641875E0,4.522122565E0,2.557876182E0,8.096844167E-1,5.258128175E0
7.432610875E0,4.776341960E0,2.976121085E0,2.137314611E0,6.019871508E0
7.442580875E0,5.553550356E0,3.134287099E0,1.982061972E0,6.677892395E0
7.452550875E0,6.824496472E0,2.625270020E0,6.704730293E-1,7.342705827E0
7.462520875E0,7.668296469E0,1.121503564E0,-1.672797474E0,7.928353698E0
7.472490875E0,7.007401471E0,-6.604254663E-1,-3.558731513E0,7.886977061E0
7.482460875E0,5.056245834E0,-2.063010533E0,-5.478034151E0,7.735017295E0
7.492429875E0,2.564101712E0,-4.129960336E0,-6.967017676E0,8.495323729E0
7.502399875E0,1.527706127E0,-5.463909616E0,-8.542083326E0,1.025452982E1
7.512369875E0,2.650711255E0,-4.433246641E0,-9.680598779E0,1.097241717E1
7.522339875E0,4.021972203E0,-3.063389025E0,-5.522328563E0,7.487103945E0
7.532309875E0,4.357222897E0,-2.653074115E0,-7.353214283E-1,5.154114011E0
7.542279875E0,3.889540955E0,-2.751216706E0,1.667749280E0,5.047683614E0
7.552248875E0,3.129959575E0,-3.477898142E0,2.381625899E0,5.250196601E0
7.562218875E0,2.759402223E0,-4.047061436E0,2.067405885E0,5.316688254E0
7.572188875E0,2.751441239E0,-4.852337637E0,1.574002626E0,5.795954943E0
7.582158875E0,2.854066890E0,-5.849215985E0,1.423519853E0,6.662239430E0
7.592128875E0,2.742847002E0,-6.700179405E0,1.774375012E0,7.454127744E0
7.602097875E0,2.654558723E0,-7.407766174E0,2.123958840E0,8.150636960E0
7.612067875E0,2.327374263E0,-8.159754360E0,2.136116809E0,8.749928982E0
7.622037875E0,2.083040755E0,-8.355384069E0,2.753459698E0,9.040632834E0
7.632007875E0,2.166377612E0,-6.187913028E0,3.664560269E0,7.510822962E0
7.641977875E0,2.044394753E0,-3.733699794E0,3.552190526E0,5.544197109E0
7.651946875E0,1.786056579E0,-2.407367097E0,3.593834395E0,4.679856847E0
7.661916875E0,1.353776019E0,-1.165346571E0,4.446204071E0,4.791604406E0
7.671886875E0,9.227356535E-1,2.775977325E-1,4.801591114E0,4.897323638E0
7.681856875E0,6.954970658E-1,1.925989805E0,5.453347206E0,5.825130784E0
7.691826875E0,4.618703949E-1,2.964978046E0,7.250853803E0,7.847247922E0
7.701796875E0,-4.836992204E-2,3.740788958E0,7.929867568E0,8.768046608E0
7.711765875E0,-5.901290703E-1,4.513030145E0,6.628391969E0,8.040601563E0
7.721735875E0,-1.151817284E0,5.315493250E0,5.893450171E0,8.019595156E0
7.731705875E0,-1.909752088E0,6.124832096E0,5.720764936E0,8.595805529E0
7.741675875E0,-2.558441607E0,6.792214580E0,5.344356861E0,9.013431788E0
7.751645875E0,-3.145217884E0,6.814315301E0,4.751089882E0,8.882575281E0
7.761614875E0,-3.502172858E0,6.196365178E0,4.857763268E0,8.617309332E0
7.771584875E0,-3.639361401E0,5.552446986E0,5.100422718E0,8.371913213E0
7.781554875E0,-3.877951189E0,4.919416310E0,5.159806455E0,8.115587774E0
7.791524875E0,-4.152582629E0,4.323303199E0,5.578181752E0,8.188467787E0
7.801494875E0,-4.473084891E0,3.815984151E0,6.039065137E0,8.428554515E0
7.811463875E0,-4.763973345E0,3.387657478E0,6.093965229E0,8.444411018E0
7.821433875E0,-5.141866613E0,2.977650132E0,5.767385371E0,8.280575258E0
7.831403875E0,-5.715675520E0,2.711602989E0,5.098359236E0,8.124961804E0
7.841373875E0,-6.383282536E0,2.558473767E0,3.796791251E0,7.855425371E0
7.851343875E0,-7.081959318E0,2.695027303E0,2.417996750E0,7.953868758E0
7.861312875E0,-7.550930572E0,2.820136667E0,5.334882617E-1,8.078015415E0
7.871282875E0,-6.952328301E0,3.418830155E0,-1.949193019E0,7.988906174E0
7.881252875E0,-5.507880093E0,3.206617157E0,-4.549060980E0,7.830267717E0
7.891222875E0,-3.657312938E0,1.462955815E0,-7.326934265E0,8.318662354E0
7.901192875E0,-1.514789627E0,-2.416219781E0,-1.120790320E1,1.156502485E1
7.911161875E0,3.721736391E0,-9.062189650E0,-1.810567873E1,2.058616539E1
7.921131875E0,1.263055065E1,-1.337715121E1,-1.931348545E1,2.667376435E1
7.931101875E0,1.917826391E1,-1.416351635E1,-1.215593800E1,2.676149903E1
7.941071875E0,1.932645106E1,-1.077697042E1,-7.537881925E0,2.337679332E1
7.951041875E0,1.251313973E1,-4.370236461E0,-4.961955389E0,1.415268999E1
7.961010875E0,3.648542114E0,-1.036015517E-1,-7.426867273E-1,3.724805554E0
7.970980875E0,-2.495132049E0,2.626295621E0,2.290616326E0,4.286027973E0
7.980950875E0,-6.224882634E0,4.522244187E0,2.727097234E0,8.163143733E0
7.990920875E0,-7.869654111E0,4.576173642E0,5.774441206E-1,9.121746693E0
8.000890875E0,-8.833796822E0,2.868124182E0,-1.397592714E0,9.392303658E0
8.010860875E0,-7.935566849E0,8.325066841E-1,6.428808957E-2,7.979374760E0
8.020829875E0,-4.640193052E0,-1.199859177E0,3.132953349E0,5.725945362E0
8.030799875E0,5.753701133E-1,-4.490086840E0,6.909721395E0,8.260519375E0
8.040769875E0,4.179858720E0,-8.382612213E0,1.223638867E1,1.541001668E1
8.050739875E0,9.098511969E0,-1.250391516E1,1.161716854E1,1.934139135E1
8.060709875E0,9.174193650E0,-9.068038035E0,4.543288608E0,1.367613302E1
8.070678875E0,3.685752041E0,-3.216889545E0,7.878384004E0,9.273730693E0
8.080648875E0,2.840045267E-1,8.413558602E-1,8.772659504E0,8.817487910E0
8.090618875E0,-1.841268913E0,3.951017995E0,7.635173746E0,8.791853761E0
8.100588875E0,-3.250363685E0,5.863106046E0,6.556457183E0,9.376993515E0
8.110558875E0,-4.008759835E0,6.125332033E0,5.359291234E0,9.072587859E0
8.120527583E0,-3.661971415E0,5.075620583E0,4.887142603E0,7.940788486E0
8.130497583E0,-2.200045879E0,2.406996968E0,6.085808948E0,6.904412128E0
8.140467583E0,7.052426201E-1,-1.297228181E0,6.199704523E0,6.373107898E0
8.150437583E0,2.887418239E0,-3.818082717E0,2.332368077E0,5.324930100E0
8.160407583E0,4.472936956E0,-4.654802905E0,-5.399742272E0,8.416149458E0
8.170376583E0,3.797859537E0,-3.059299482E0,-5.533427163E0,7.375762100E0
8.180346583E0,1.608455590E0,-8.743166149E-1,1.449665093E-1,1.836456974E0
8.190316583E0,-4.944756389E-2,1.394244599E0,4.336298636E0,4.555200207E0
8.200286583E0,-9.235776526E-1,2.972277710E0,6.319710438E0,7.044584480E0
8.210256583E0,-1.146577594E0,3.822582734E0,6.932469987E0,7.999119893E0
8.220225583E0,-1.140316980E0,4.406603218E0,5.780480211E0,7.357474173E0
8.230195583E0,-6.882359934E-1,4.278447454E0,1.497506427E0,4.584899879E0
8.240165583E0,-1.009311283E-1,4.083618228E0,-3.128786623E0,5.145428132E0
8.250135583E0,2.812978506E-2,2.921727362E0,-4.687029834E0,5.523181214E0
8.260105583E0,-4.501169068E-1,1.652602653E0,-3.663381178E0,4.044015630E0
8.270074583E0,-8.413915282E-1,8.118549031E-1,-1.691865098E0,2.056564027E0
8.280044583E0,-9.249429774E-1,3.782025862E-1,-2.281238562E-1,1.024986440E0
8.290014583E0,-1.015702289E0,-6.557710826E-2,-1.581360470E-1,1.030028401E0
8.299984583E0,-1.070785400E0,-3.371241421E-1,-8.799069916E-1,1.426348616E0
8.309953583E0,-1.275871811E0,-4.461682820E-1,-1.855981677E0,2.295992814E0
8.319923583E0,-1.628941895E0,-2.428641021E-1,-2.758728039E0,3.212944921E0
8.329893583E0,-1.772371756E0,1.175839984E-1,-3.528891418E0,3.950721741E0
8.339863583E0,-1.843711880E0,4.550233054E-1,-3.583695031E0,4.055760074E0
8.349833583E0,-1.681882585E0,1.137316774E0,-3.326416373E0,3.897084084E0
8.359802583E0,-2.004443067E-1,1.709582600E0,-3.557731055E0,3.952252629E0
8.369772583E0,1.694736519E0,1.598301900E0,-4.353832097E0,4.937869456E0
8.379742583E0,2.745052571E0,1.127099934E0,-4.910228580E0,5.737247824E0
8.389712583E0,3.244492496E0,4.882389987E-1,-5.035002315E0,6.009688610E0
8.399682583E0,3.500799347E0,7.172311664E-2,-4.892162146E0,6.016144175E0
8.409651583E0,3.193057464E0,-1.149843264E-1,-4.156352913E0,5.242528674E0
8.419621583E0,2.748019449E0,4.531732464E-1,-3.737596378E0,4.661180491E0
8.429591583E0,3.184954392E0,1.505142891E0,-3.486546174E0,4.956348840E0
8.439561583E0,4.167507647E0,1.619876956E0,-2.360485583E0,5.056086780E0
8.449531583E0,4.859577075E0,1.565339976E0,-7.583291987E-1,5.161476703E0
8.459500583E0,5.437338699E0,2.017225665E0,3.100679058E-1,5.807752889E0
8.469470583E0,6.285863830E0,2.247525855E0,4.899791300E-1,6.693544361E0
8.479440583E0,7.649431597E0,2.257209429E0,-3.915029553E-1,7.985115699E0
8.489410583E0,8.857347068E0,1.824668083E0,-2.922854705E0,9.503951300E0
8.499379583E0,7.758334819E0,-1.600944257E-1,-6.203306408E0,9.934706829E0
8.509349583E0,5.250090973E0,-2.296372910E0,-8.077092272E0,9.903343039E0
8.519319583E0,3.543588102E0,-3.267110696E0,-9.015430636E0,1.022296525E1
8.529289583E0,3.332298964E0,-3.314573130E0,-9.230049763E0,1.035781975E1
8.539259583E0,3.737266011E0,-3.112063587E0,-5.955663961E0,7.689085135E0
8.549228583E0,3.885474801E0,-2.959688070E0,-1.825266400E0,5.214236793E0
8.559198583E0,3.959207021E0,-3.049696015E0,7.268117561E-1,5.050170428E0
8.569168583E0,4.316201756E0,-3.392221815E0,2.113442184E0,5.882465835E0
8.579138583E0,4.663542738E0,-3.941076559E0,2.969389186E0,6.789549871E0
8.589108583E0,4.504396146E0,-4.855768198E0,3.320995127E0,7.409256243E0
8.599077583E0,4.012086900E0,-6.104571494E0,2.795252087E0,7.821513194E0
8.609047583E0,3.817336028E0,-7.638024849E0,8.846848977E-1,8.584529417E0
8.619017583E0,3.528131572E0,-8.896636264E0,-1.032322342E0,9.626190244E0
8.628987583E0,3.027009403E0,-8.668028258E0,-6.953507392E-1,9.207660531E0
8.638956583E0,2.280459128E0,-7.516217991E0,7.583303681E-1,7.891076712E0
8.648926583E0,1.621903601E0,-6.441854095E0,2.479065070E0,7.090403310E0
8.658896583E0,9.845360452E-1,-5.202532645E0,5.127397678E0,7.370608122E0
8.668866583E0,8.266378337E-1,-3.785097989E0,5.971134524E0,7.117917139E0
8.678836583E0,8.660965991E-1,-2.394623675E0,5.104823917E0,5.704697458E0
8.688805583E0,6.469289231E-1,-7.180684876E-1,4.772276683E0,4.869164623E0
8.698775583E0,1.406600350E-1,9.924865043E-1,5.230148460E0,5.325342019E0
8.708745583E0,2.405176145E-1,2.417640070E0,5.994980639E0,6.468587566E0
8.718715583E0,4.255872524E-1,3.149405660E0,8.562651492E0,9.133393733E0
8.728684583E0,-8.168092489E-2,4.069083804E0,8.776023992E0,9.673815788E0
8.738654583E0,-4.536802000E-1,4.909992353E0,7.360361627E0,8.859389026E0
8.748624583E0,-8.486292118E-1,5.519607269E0,6.717625158E0,8.735715409E0
8.758594583E0,-1.398222460E0,6.083586422E0,6.060854201E0,8.700517424E0
8.768564583E0,-1.884101522E0,6.463339105E0,5.475107034E0,8.677637234E0
8.778533583E0,-2.304335648E0,6.198851999E0,5.386080837E0,8.529102864E0
8.788503583E0,-2.551478743E0,5.595609378E0,5.888292927E0,8.514275171E0
8.798473583E0,-2.811541260E0,5.124892146E0,6.339664646E0,8.623261077E0
8.808443583E0,-3.194603468E0,4.607156868E0,6.796062632E0,8.810099490E0
8.818413583E0,-3.673755308E0,4.136889871E0,7.385753746E0,9.228201031E0
8.828382583E0,-4.360125455E0,3.601101315E0,7.134351540E0,9.103713339E0
8.838352583E0,-5.074853429E0,3.334743100E0,6.607771178E0,8.974257006E0
8.848322583E0,-6.084448301E0,3.045030522E0,5.620187564E0,8.824920978E0
8.858292583E0,-7.069203032E0,2.865351432E0,4.567425330E0,8.890739254E0
8.868261583E0,-7.946805782E0,3.092881211E0,3.765302825E0,9.321756363E0
8.878231583E0,-8.766012390E0,3.405465758E0,2.824727316E0,9.819330663E0
8.888201583E0,-8.727358201E0,4.286457555E0,6.646477407E-1,9.745884062E0
8.898171583E0,-6.944586003E0,4.911385744E0,-2.052081503E0,8.749858466E0
8.908140583E0,-4.976563488E0,3.800189068E0,-4.079241295E0,7.473140614E0
8.918110583E0,-3.223525550E0,1.625379186E0,-6.819333966E0,7.715976297E0
8.928080583E0,-1.631009470E0,-2.560460066E0,-1.152151394E1,1.191475686E1
8.938050583E0,3.379163228E0,-1.032219270E1,-1.934630119E1,2.218661254E1
8.948020583E0,1.199377366E1,-1.639156045E1,-1.816899005E1,2.725153317E1
8.957989583E0,1.880765802E1,-1.898493391E1,-9.886253539E0,2.849374887E1
8.967959583E0,1.951675571E1,-1.473719135E1,-7.421660328E0,2.555718303E1
8.977929583E0,1.231867771E1,-5.724879037E0,-4.669371243E0,1.436409024E1
8.987899583E0,3.500042717E0,-6.322184980E-2,-8.768344259E-1,3.608758046E0
8.997868583E0,-1.830227616E0,3.275568109E0,8.974350438E-1,3.858039556E0
9.007838583E0,-4.896741393E0,5.568943736E0,1.726170566E0,7.613860744E0
9.017808583E0,-6.422995071E0,6.092660716E0,7.124341106E-1,8.881606985E0
9.027778583E0,-8.146615666E0,4.812468397E0,-2.085543948E0,9.688998526E0
9.037747583E0,-8.473544603E0,2.016314085E0,-3.064289204E0,9.233436465E0
9.047717583E0,-4.822211612E0,-5.243256748E-1,-7.942267174E-1,4.915225155E0
9.057687583E0,2.474041142E0,-2.717404012E0,1.056406219E0,3.823762315E0
9.067657583E0,6.215007856E0,-4.481002606E0,4.764512165E0,9.022543055E0
9.077627583E0,6.282651955E0,-7.916251742E0,1.365630080E1,1.698921154E1
9.087596583E0,8.285853074E0,-1.155437880E1,1.754218607E1,2.258068472E1
9.097566583E0,4.956347909E0,-8.608803565E0,1.364022797E1,1.687402449E1
9.107536583E0,-5.469251633E-2,-4.794437338E0,9.780268078E0,1.089234889E1
9.117506708E0,-2.523551272E0,-8.420978719E-1,5.726764179E0,6.314528313E0
9.127475708E0,-4.265747886E0,2.828372471E0,1.562148858E0,5.351318054E0
9.137445708E0,-4.919227445E0,4.980864699E0,8.007080635E-1,7.046200765E0
9.147415708E0,-5.029021198E0,5.019627061E0,2.804871634E0,7.639045420E0
9.157385708E0,-4.619166464E0,4.158007675E0,4.019274298E0,7.401370990E0
9.167354708E0,-2.699969954E0,2.297661636E0,5.592291083E0,6.621390059E0
9.177324708E0,1.419598711E-1,-2.692818224E-1,6.909346004E0,6.916048547E0
9.187294708E0,1.997859687E0,-1.843425366E0,6.070886854E0,6.651716140E0
9.197264708E0,3.288849474E0,-2.699399850E0,3.048775663E0,5.234340786E0
9.207234708E0,4.192930171E0,-2.709199199E0,-9.838500206E-1,5.088062950E0
9.217203708E0,3.954444464E0,-2.025345694E0,-1.364929583E0,4.647869293E0
9.227173708E0,2.369240327E0,-2.026147932E-1,1.068653505E0,2.606985384E0
9.237143708E0,7.902365774E-1,2.335134103E0,3.993718457E0,4.693305045E0
9.247113708E0,-8.460043967E-2,4.166223013E0,5.441491392E0,6.853787274E0
9.257082708E0,-2.688222313E-1,5.233121769E0,4.297483649E0,6.776886789E0
9.267052708E0,2.193939632E-1,5.265318877E0,1.491740488E0,5.476952279E0
9.277022708E0,6.128051573E-1,4.339398830E0,-1.275767730E0,4.564372429E0
9.286992708E0,7.234409094E-1,2.771020641E0,-3.470331261E0,4.499457878E0
9.296961708E0,2.874982381E-1,1.422161545E0,-4.046282587E0,4.298558069E0
9.306931708E0,-4.989721477E-1,4.808212209E-1,-2.947877280E0,3.028224349E0
9.316901708E0,-1.013415443E0,-3.609076917E-2,-2.324853236E0,2.536386400E0
9.326871708E0,-1.267489827E0,-3.492471743E-1,-1.894255212E0,2.305798530E0
9.336840708E0,-1.350127941E0,-4.295545882E-1,-1.234295623E0,1.879055158E0
9.346810708E0,-1.432058542E0,-3.480315381E-1,-8.029047163E-1,1.678265058E0
9.356780708E0,-1.733511745E0,1.491039991E-4,-5.075513287E-1,1.806286618E0
9.366750708E0,-2.229096016E0,6.558301395E-1,-4.281098874E-1,2.362680744E0
9.376719708E0,-2.799579611E0,8.871594393E-1,-1.362857037E0,3.237603616E0
9.386689708E0,-3.067558674E0,1.213836361E0,-1.726080227E0,3.723260383E0
9.396659708E0,-2.446633489E0,1.655344412E0,-1.906632306E0,3.515882151E0
9.406629708E0,-3.290245789E-1,2.103768550E0,-2.786057048E0,3.506595666E0
9.416598708E0,2.066746904E0,2.036502766E0,-3.707413343E0,4.707833895E0
9.426568708E0,3.398970087E0,1.653986104E0,-3.842515892E0,5.390138780E0
9.436538708E0,4.081437802E0,1.176306592E0,-3.974539590E0,5.817112400E0
9.446508708E0,4.541654019E0,6.170478970E-1,-4.568756741E0,6.471545990E0
9.456478708E0,4.110697854E0,-7.597053409E-2,-5.184645427E0,6.616959768E0
9.466447708E0,4.150526748E0,9.492954612E-3,-5.409641608E0,6.818444451E0
9.476417708E0,5.173750895E0,6.923179346E-1,-4.528496907E0,6.910447647E0
9.486387708E0,5.594317144E0,9.998873252E-1,-2.488322090E0,6.203862167E0
9.496357708E0,5.744298225E0,1.187882910E0,-7.228667128E-1,5.910208473E0
9.506326708E0,6.044960300E0,1.734252003E0,1.004414240E-1,6.289615530E0
9.516296708E0,6.696920752E0,2.052638158E0,-1.366169778E-1,7.005764424E0
9.526266708E0,7.663792943E0,2.006679043E0,-1.338066890E0,8.034357850E0
9.536236708E0,7.686346824E0,1.080024585E0,-2.904283071E0,8.287414600E0
9.546205708E0,6.163705555E0,-1.388544148E-1,-5.141282476E0,8.027660445E0
9.556175708E0,4.549398072E0,-1.326963027E0,-6.360674277E0,7.931962616E0
9.566145708E0,3.875150957E0,-2.781286013E0,-6.017209414E0,7.678486567E0
9.576115708E0,3.728143185E0,-4.203973807E0,-6.824951971E0,8.840385556E0
9.586084708E0,3.087493002E0,-4.583663925E0,-7.846218470E0,9.597173141E0
9.596054708E0,2.252324665E0,-3.400319039E0,-5.663965083E0,6.979658762E0
9.606024708E0,1.945475067E0,-2.385637674E0,-1.953899589E0,3.646075143E0
9.615994708E0,2.389340131E0,-2.232058800E0,8.259646730E-1,3.372425001E0
9.625963708E0,3.036098900E0,-2.402533788E0,2.554022282E0,4.638221097E0
9.635933708E0,3.440637930E0,-2.794830503E0,3.758866210E0,5.811896600E0
9.645903708E0,3.167678209E0,-3.308539973E0,4.837669312E0,6.662106751E0
9.655873708E0,2.905591970E0,-4.252320925E0,4.609213918E0,6.911551989E0
9.665842708E0,2.970433499E0,-5.887545068E0,1.613029282E0,6.788853038E0
9.675812708E0,3.332679618E0,-7.757348394E0,-2.785705923E0,8.890633556E0
9.685782708E0,3.486965420E0,-8.265873138E0,-3.180859295E0,9.518479522E0
9.695752708E0,2.659447580E0,-7.095217879E0,-1.002996144E0,7.643348707E0
9.705721708E0,1.196521001E0,-5.516631036E0,1.116720103E0,5.754297897E0
9.715691708E0,2.626732993E-1,-4.775284199E0,4.012037492E0,6.242497999E0
9.725661708E0,1.430731809E-1,-4.328686731E0,6.075892071E0,7.461532229E0
9.735631708E0,7.772797322E-1,-3.287380069E0,4.684066173E0,5.775076398E0
9.745600708E0,7.829626411E-1,-1.883839567E0,4.349139999E0,4.803842289E0
9.755570708E0,6.158100414E-1,-2.447118223E-2,4.904309151E0,4.942880648E0
9.765540708E0,7.281180972E-1,1.820143508E0,5.131793615E0,5.493485602E0
9.775510708E0,5.261774880E-1,3.369473222E0,5.584461662E0,6.543426059E0
9.785479708E0,1.002516818E-1,4.199048697E0,6.544823563E0,7.776681544E0
9.795449708E0,-2.974355811E-1,4.747395903E0,6.923969305E0,8.400451579E0
9.805419708E0,-5.930018073E-1,5.517602259E0,6.670681956E0,8.677187539E0
9.815389708E0,-9.052401996E-1,6.365848478E0,6.607477648E0,9.219666346E0
9.825358708E0,-1.231568627E0,6.744810618E0,6.516604900E0,9.459142190E0
9.835328708E0,-1.483825112E0,6.363972107E0,6.512745153E0,9.225926911E0
9.845298708E0,-1.696471388E0,5.632351527E0,6.637238806E0,8.868728086E0
9.855267708E0,-1.919688261E0,5.093022482E0,6.843497000E0,8.743999783E0
9.865237708E0,-2.175438457E0,4.713218928E0,7.418761278E0,9.054555983E0
9.875207708E0,-2.722001093E0,4.253361145E0,7.710929688E0,9.217310216E0
9.885177708E0,-3.549780888E0,3.875162652E0,7.233925529E0,8.941337064E0
9.895146708E0,-4.336887451E0,3.652886011E0,6.908877642E0,8.937827434E0
9.905116708E0,-5.181921794E0,3.448774915E0,6.168655808E0,8.763485401E0
9.915086708E0,-6.155613009E0,3.020834159E0,4.652794971E0,8.286465566E0
9.925056708E0,-7.126975277E0,2.730880090E0,3.537998164E0,8.412426147E0
9.935025708E0,-8.035674105E0,2.527635552E0,2.442554763E0,8.770808034E0
9.944995708E0,-8.637732664E0,2.544686617E0,9.913936597E-1,9.059178602E0
9.954965708E0,-7.716305033E0,2.754401100E0,-1.512986931E0,8.331699600E0
9.964935708E0,-5.666244913E0,2.855383099E0,-4.893842928E0,8.013066994E0
9.974904708E0,-4.033656694E0,1.342739984E0,-8.715024669E0,9.696648492E0
9.984874708E0,-2.146709332E0,-2.583792211E0,-1.504447540E1,1.541494675E1
9.994844708E0,3.868035480E0,-8.943601100E0,-2.209143328E1,2.414500204E1
1.000481471E1,1.321000154E1,-1.379807706E1,-1.876909213E1,2.678002783E1
1.001478371E1,1.781773377E1,-1.576586861E1,-1.015351807E1,2.586751204E1
1.002475371E1,1.678459859E1,-1.317928494E1,-5.009606688E0,2.192059444E1
1.003472371E1,9.806751287E0,-7.543175994E0,-1.506944418E0,1.246365742E1
1.004469371E1,1.893797960E0,-1.318812593E0,5.456297126E-1,2.371381275E0
1.005466271E1,-3.415134714E0,2.118795894E0,9.927826658E-1,4.139813834E0
1.006463271E1,-6.393259640E0,4.355662860E0,1.241847448E0,7.835033686E0
1.007460271E1,-7.403014727E0,4.046290773E0,-4.879021990E-1,8.450748169E0
1.008457271E1,-7.601999568E0,8.834528893E-1,-3.600395264E0,8.457761672E0
1.009454171E1,-5.972789871E0,-1.885634662E0,-3.085176920E0,6.981987793E0
1.010451171E1,-2.206338068E0,-2.461519330E0,1.404625453E0,3.591653901E0
1.011448150E1,2.935725596E0,-3.963653244E0,5.038719975E0,7.051080116E0
1.012445050E1,4.831157268E0,-5.910659696E0,1.018285121E1,1.272660353E1
1.013442050E1,4.837336020E0,-8.907483433E0,1.471652261E1,1.786950248E1
1.014439050E1,5.675731435E0,-9.235753722E0,8.806528916E0,1.396667554E1
1.015436050E1,2.034559152E0,-2.414141681E0,5.841214070E0,6.639826264E0
1.016432950E1,-1.068832430E0,1.906607455E0,6.784117355E0,7.127538358E0
1.017429950E1,-2.414320605E0,5.035297015E0,5.322353203E0,7.714311611E0
1.018426950E1,-3.072714749E0,7.284189364E0,4.169394251E0,8.937831898E0
1.019423950E1,-3.325701551E0,7.132522531E0,5.060919514E0,9.356605943E0
1.020420850E1,-2.726858960E0,5.648249522E0,5.960658653E0,8.652625846E0
1.021417850E1,-7.779521620E-1,3.076209045E0,6.409489757E0,7.151910975E0
1.022414850E1,1.905580684E0,-1.427088994E-1,6.861416377E0,7.122544368E0
1.023411850E1,4.189497271E0,-2.634078850E0,6.270557574E0,7.988125629E0
1.024408750E1,5.481655331E0,-3.944799482E0,4.050698404E0,7.875160042E0
1.025405750E1,5.905546306E0,-4.195667253E0,3.997484064E-1,7.255267029E0
1.026402750E1,4.932511734E0,-3.164163448E0,-1.160363720E0,5.973947296E0
1.027399650E1,2.967116958E0,-1.261263127E0,5.682990754E-1,3.273764127E0
1.028396650E1,9.551567101E-1,1.033109450E0,2.743059840E0,3.082858538E0
1.029393650E1,-6.248293716E-1,2.864997675E0,3.630421593E0,4.666753086E0
1.030390650E1,-1.466339014E0,3.917074324E0,2.768862433E0,5.015996465E0
1.031387550E1,-2.058458476E0,4.220941842E0,6.853521466E-1,4.745872828E0
1.032384550E1,-2.329954054E0,3.463830326E0,-5.833258349E-1,4.215100883E0
1.033381550E1,-2.478288560E0,1.992660928E0,-1.608662581E0,3.563763048E0
1.034378550E1,-2.725781903E0,1.295759361E0,-3.269547815E0,4.449586747E0
1.035375450E1,-3.148137399E0,8.180511975E-1,-3.980440600E0,5.140416735E0
1.036372450E1,-2.990652586E0,5.681540644E-1,-2.799026465E0,4.135377985E0
1.037369450E1,-2.471247343E0,-1.103697038E-1,-1.310399619E0,2.799355651E0
1.038366350E1,-1.882979441E0,-6.595021909E-1,4.555551097E-2,1.995652781E0
1.039363350E1,-1.484019824E0,-8.094183683E-1,5.320223647E-1,1.772151441E0
1.040360350E1,-1.290552415E0,-5.644913685E-1,2.462518327E-1,1.429970631E0
1.041357350E1,-1.471690385E0,2.588585758E-1,-9.646730536E-1,1.778615881E0
1.042354250E1,-1.711173043E0,1.013544082E0,-2.176126967E0,2.948035509E0
1.043351250E1,-1.776249629E0,1.326210490E0,-2.352128450E0,3.232089921E0
1.044348250E1,-1.564652928E0,1.544761870E0,-2.051215091E0,3.006977115E0
1.045345250E1,-4.192903858E-1,2.023597376E0,-2.436804027E0,3.195115747E0
1.046342150E1,2.031313362E0,2.042432427E0,-3.907442790E0,4.854469421E0
1.047339150E1,3.825887581E0,1.572268342E0,-5.278730636E0,6.706298580E0
1.048336150E1,4.857524117E0,1.080809281E0,-5.718728351E0,7.580735004E0
1.049333050E1,5.448996293E0,9.165487146E-1,-5.132563108E0,7.541540042E0
1.050330050E1,5.431309635E0,1.149079617E0,-4.369605838E0,7.064910721E0
1.051327050E1,4.563917293E0,1.423131014E0,-3.937522329E0,6.193442099E0
1.052324050E1,3.957701363E0,1.336352486E0,-3.444120239E0,5.413982108E0
1.053320950E1,4.478193018E0,1.173994018E0,-2.611744825E0,5.315419616E0
1.054317950E1,5.182732219E0,9.830333108E-1,-1.230146585E0,5.416671336E0
1.055314950E1,5.160091799E0,9.995721602E-1,2.067283094E-1,5.260078752E0
1.056311950E1,4.662739331E0,1.465945496E0,1.007813226E0,4.990573290E0
1.057308850E1,4.737293669E0,1.677840990E0,9.830198622E-1,5.120881735E0
1.058305850E1,5.521937969E0,1.390819300E0,-1.713786748E-1,5.696977085E0
1.059302850E1,5.622306011E0,4.865935922E-2,-2.456279055E0,6.135633579E0
1.060299750E1,4.423626802E0,-1.515211796E0,-5.836654412E0,7.478694779E0
1.061296750E1,2.775919438E0,-2.539510662E0,-7.683516186E0,8.555189309E0
1.062293750E1,1.913853325E0,-3.315670652E0,-7.679769291E0,8.581104986E0
1.063290750E1,2.403393329E0,-4.109164714E0,-8.558122823E0,9.793007730E0
1.064287650E1,3.123606575E0,-4.462562826E0,-8.107556266E0,9.767489627E0
1.065284650E1,2.989926361E0,-3.700560114E0,-5.294090102E0,7.117667793E0
1.066281650E1,2.287971631E0,-2.420023980E0,-2.217466635E0,4.001060925E0
1.067278550E1,2.313568987E0,-1.972571649E0,9.687601112E-2,3.041878585E0
1.068275550E1,3.710935999E0,-2.116693820E0,2.221606902E0,4.815285655E0
1.069272550E1,5.345780073E0,-2.637349198E0,3.913616281E0,7.130874264E0
1.070269550E1,6.011345826E0,-3.585127307E0,5.004049494E0,8.604064609E0
1.071266450E1,5.690878063E0,-4.436415832E0,4.840727406E0,8.689103543E0
1.072263450E1,5.419096556E0,-5.360246084E0,1.960225253E0,7.870281355E0
1.073260450E1,5.493604116E0,-6.576437119E0,-2.678354552E0,8.977905907E0
1.074257350E1,5.277890391E0,-6.499188384E0,-3.614232992E0,9.119114910E0
1.075254350E1,4.042605858E0,-4.932063838E0,-4.428900406E-2,6.377293888E0
1.076251350E1,2.641102526E0,-3.816280020E0,3.411487806E0,5.760005625E0
1.077248350E1,2.089235880E0,-3.394575319E0,4.362525445E0,5.909287302E0
1.078245250E1,1.751926966E0,-2.929995909E0,4.587324574E0,5.718187726E0
1.079242250E1,1.344204712E0,-2.443031604E0,4.351411642E0,5.168178887E0
1.080239250E1,1.112202982E0,-1.510309491E0,4.009627562E0,4.426640195E0
1.081236150E1,7.427378905E-1,-2.879052043E-1,4.740878012E0,4.807335365E0
1.082233150E1,4.592169285E-1,1.024974804E0,6.432433062E0,6.529751039E0
1.083230150E1,1.189119011E-1,2.170728525E0,9.117233584E0,9.372841116E0
1.084227150E1,-4.475593346E-1,3.095458664E0,9.784447668E0,1.027217552E1
1.085224050E1,-7.831678784E-1,4.077540048E0,8.632017596E0,9.578695764E0
1.086221050E1,-1.266143214E0,5.287292129E0,7.569905956E0,9.319981377E0
1.087218050E1,-1.743822141E0,6.419846345E0,6.223471116E0,9.109716542E0
1.088215050E1,-2.040400520E0,6.868253526E0,5.293935151E0,8.908529068E0
1.089211950E1,-2.320887946E0,6.889982364E0,5.002004138E0,8.824875253E0
1.090208950E1,-2.570430154E0,6.616318054E0,5.526111712E0,8.995592610E0
1.091205950E1,-2.839935340E0,6.280625310E0,6.439468431E0,9.432827821E0
1.092202850E1,-3.008016477E0,5.642026330E0,7.496124035E0,9.852537733E0
1.093199850E1,-3.208805185E0,4.744762318E0,7.980227298E0,9.823096655E0
1.094196850E1,-3.539636554E0,3.928315011E0,7.507980434E0,9.183161544E0
1.095193850E1,-4.254364527E0,3.006037195E0,6.429037583E0,8.274563517E0
1.096190750E1,-5.212423795E0,2.335348111E0,5.592202790E0,7.993493896E0
1.097187750E1,-6.340533543E0,1.871148185E0,4.530391697E0,8.014237959E0
1.098184750E1,-7.405510318E0,1.633902673E0,3.873675120E0,8.515666736E0
1.099181650E1,-8.404022963E0,1.797026541E0,3.016592881E0,9.108059012E0
1.100178650E1,-8.875702062E0,2.409531151E0,1.627689421E0,9.339876890E0
1.101175650E1,-7.831431447E0,3.180721008E0,-5.020916373E-1,8.467608910E0
1.102172550E1,-6.214781569E0,3.092180715E0,-2.632278200E0,7.423879043E0
1.103169550E1,-4.553189991E0,1.606905493E0,-5.025501759E0,6.969171564E0
1.104166550E1,-2.604100760E0,-1.605147820E0,-8.437360278E0,8.974791851E0
1.105163550E1,2.027771704E0,-8.377491807E0,-1.506391037E1,1.735556461E1
1.106160450E1,1.225918814E1,-1.492717324E1,-1.937773816E1,2.736064566E1
1.107157450E1,2.167266739E1,-1.832666256E1,-1.401008073E1,3.165206841E1
1.108154450E1,2.282409174E1,-1.496862649E1,-1.174454896E1,2.971419481E1
1.109151450E1,1.568483556E1,-5.127925097E0,-8.948140878E0,1.877175824E1
1.110148350E1,5.128376502E0,7.624254656E-1,-3.129635639E0,6.056084326E0
1.111145350E1,-1.538103645E0,2.311892005E0,-8.786631426E-1,2.912500023E0
1.112142321E1,-5.589171009E0,2.968153085E0,4.586439013E-1,6.345007449E0
1.113139221E1,-7.435403039E0,2.810501041E0,-5.018510243E-1,7.964671299E0
1.114136221E1,-8.388903233E0,7.613419765E-1,-2.484339551E0,8.782100094E0
1.115133221E1,-6.877583343E0,-1.432160284E0,4.043276533E-1,7.036740479E0
1.116130121E1,-1.861494432E0,-2.744683612E0,6.479499639E0,7.278898627E0
1.117127121E1,4.157458037E0,-4.617466679E0,1.069538539E1,1.236918448E1
1.118124121E1,6.916659116E0,-6.844345431E0,1.520456164E1,1.805170165E1
1.119121121E1,8.571189011E0,-8.799773628E0,1.337297513E1,1.815868279E1
1.120118021E1,5.316821737E0,-3.904004627E0,4.488481779E0,7.978490722E0
1.121115021E1,-9.365877074E-1,1.141565945E0,3.683594711E0,3.968531130E0
1.122112021E1,-4.806841621E0,3.796234011E0,6.276141665E0,8.769667795E0
1.123108921E1,-6.736331570E0,7.032550346E0,4.127463283E0,1.057690316E1
1.124105921E1,-7.671256329E0,8.908055291E0,1.678268421E0,1.187510874E1
1.125102921E1,-6.940416938E0,7.819582649E0,1.786218255E0,1.060687681E1
1.126099921E1,-5.066708842E0,4.738216944E0,2.974367213E0,7.547787664E0
1.127096821E1,-3.094853477E0,4.504911286E-1,4.770414637E0,5.704201619E0
1.128093821E1,-5.419029897E-1,-3.963864328E0,6.818653350E0,7.905688633E0
1.129090821E1,2.873760898E0,-7.468048044E0,8.871186258E0,1.194689034E1
1.130087721E1,5.320786734E0,-8.603646905E0,8.918531163E0,1.348605612E1
1.131084721E1,5.909669178E0,-6.959188254E0,5.974313071E0,1.091086191E1
1.132081721E1,5.352482736E0,-3.203871304E0,2.959708536E0,6.904617107E0
1.133078621E1,4.009656798E0,8.539256197E-1,1.658954483E0,4.422518126E0
1.134075621E1,2.763467792E0,4.182957745E0,1.607116578E0,5.264666507E0
1.135072621E1,1.854398836E0,6.082404699E0,1.250605992E0,6.480621677E0
1.136069621E1,1.374698526E0,6.183375004E0,2.876479725E-2,6.334409988E0
1.137066521E1,9.474740535E-1,4.885256292E0,-2.415906955E0,5.531730519E0
1.138063521E1,3.173032504E-1,2.890845877E0,-3.931684762E0,4.890379975E0
1.139060521E1,-6.523574781E-1,1.175299117E0,-3.865080882E0,4.092156952E0
1.140057421E1,-1.520968965E0,3.656152850E-1,-3.459792824E0,3.796997170E0
1.141054421E1,-2.057562683E0,1.375539941E-1,-2.686775712E0,3.386923238E0
1.142051421E1,-2.289144582E0,-1.728904724E-2,-1.581117518E0,2.782160030E0
1.143048421E1,-2.069126136E0,-1.012363529E-1,-2.969837375E-1,2.092780712E0
1.144045321E1,-1.694378085E0,-6.915297300E-1,7.187713230E-1,1.966154286E0
1.145042321E1,-1.946466170E0,-7.301546824E-1,1.617835547E0,2.634245294E0
1.146039321E1,-2.169852027E0,-2.862288076E-1,3.571664970E-1,2.217600653E0
1.147036221E1,-2.488210115E0,6.141891932E-1,-1.770014743E0,3.114702255E0
1.148033221E1,-3.039649914E0,1.914557329E0,-2.954040245E0,4.650952068E0
1.149030221E1,-2.728069333E0,2.568485954E0,-3.033878712E0,4.821193050E0
1.150027121E1,-1.633215625E0,2.988002627E0,-2.740454321E0,4.371000213E0
1.151024121E1,4.863602883E-1,3.174908876E0,-3.297440203E0,4.603227628E0
1.152021121E1,2.703343797E0,2.765624245E0,-3.835538995E0,5.446843539E0
1.153018121E1,3.621409280E0,1.906717967E0,-3.657602083E0,5.488918980E0
1.154015021E1,3.897475042E0,1.185293178E0,-3.084481101E0,5.109721644E0
1.155012021E1,3.895185272E0,5.876574522E-1,-2.825626034E0,4.847883256E0
1.156009021E1,3.095223021E0,1.695984900E-1,-3.108025792E0,4.389646173E0
1.157005921E1,1.848020693E0,2.255867493E-1,-3.463161112E0,3.931864030E0
1.158002921E1,1.779475538E0,3.335509086E-1,-3.913275680E0,4.311788022E0
1.158999921E1,2.917281724E0,1.794896400E-1,-4.140658109E0,5.068313207E0
1.159996821E1,4.604695190E0,1.561148107E-2,-3.608814670E0,5.850385016E0
1.160993821E1,5.634781630E0,2.936465853E-1,-2.358741944E0,6.115607565E0
1.161990821E1,5.925358427E0,8.978820634E-1,-1.231958637E0,6.118315681E0
1.162987821E1,6.643762545E0,1.372340929E0,-1.229004916E0,6.894443666E0
1.163984721E1,7.813222632E0,1.350554788E0,-2.781098317E0,8.402675407E0
1.164981721E1,7.977165695E0,3.388145721E-1,-5.516830426E0,9.704915548E0
1.165978721E1,6.429664990E0,-1.011646076E0,-7.253727125E0,9.745797908E0
1.166975621E1,5.162229542E0,-2.076992396E0,-7.083526956E0,9.007711440E0
1.167972621E1,5.130079211E0,-3.218351349E0,-6.750461951E0,9.068860715E0
1.168969621E1,5.139066966E0,-3.484455795E0,-6.249717513E0,8.809677092E0
1.169966621E1,4.147965667E0,-2.897547956E0,-3.879632848E0,6.375966936E0
1.170963521E1,3.060526228E0,-2.554875975E0,-1.076672523E0,4.129580579E0
1.171960521E1,3.178623027E0,-3.167673531E0,1.067657139E0,4.612774839E0
1.172957521E1,4.204234593E0,-4.058948826E0,2.654038906E0,6.418300133E0
1.173954421E1,4.861351705E0,-5.215714608E0,3.896792672E0,8.125356139E0
1.174951421E1,4.761026348E0,-6.467151489E0,3.393550887E0,8.718234219E0
1.175948421E1,4.191640275E0,-7.498768730E0,1.181776151E0,8.671676628E0
1.176945321E1,3.763110704E0,-8.395244538E0,-1.169372964E0,9.274080340E0
1.177942321E1,3.299296694E0,-7.950542738E0,-1.588186655E0,8.753218000E0
1.178939321E1,2.635714316E0,-6.788038498E0,1.550857008E-1,7.283440683E0
1.179936321E1,1.853213021E0,-5.846762493E0,1.623961529E0,6.344783779E0
1.180933221E1,9.673996103E-1,-5.145417627E0,2.607570498E0,5.848983541E0
1.181930221E1,5.109431523E-1,-5.092980382E0,4.455194165E0,6.785887350E0
1.182927221E1,5.865610993E-1,-4.576434427E0,5.712927328E0,7.343387818E0
1.183924121E1,9.270134765E-1,-3.113493816E0,5.798134124E0,6.646168599E0
1.184921121E1,1.106975572E0,-1.542484964E0,6.220925238E0,6.504195999E0
1.185918121E1,6.391322458E-1,6.866484743E-1,7.140348444E0,7.201704802E0
1.186915021E1,3.611614609E-1,3.003044590E0,7.327818949E0,7.927524516E0
1.187912021E1,2.591813421E-1,4.564891439E0,7.726827682E0,8.978266807E0
1.188909021E1,-2.383640850E-1,5.725178415E0,7.322884483E0,9.298339770E0
1.189906021E1,-6.646179199E-1,6.584160122E0,5.928462714E0,8.884793281E0
1.190902921E1,-1.043358450E0,7.235044686E0,5.599268566E0,9.207946402E0
1.191899921E1,-1.453203244E0,7.288772412E0,6.460952856E0,9.847939619E0
1.192896921E1,-1.707719677E0,6.607778780E0,7.044902589E0,9.808654311E0
1.193893821E1,-1.829844623E0,5.811087461E0,7.261888669E0,9.479034543E0
1.194890821E1,-1.970430399E0,5.213314326E0,7.218069050E0,9.119307157E0
1.195887821E1,-2.309289994E0,4.843500740E0,7.112962425E0,8.909913252E0
1.196884721E1,-2.671575290E0,4.469590010E0,7.348282449E0,9.006209210E0
1.197881721E1,-3.190644903E0,3.928131409E0,6.960864066E0,8.606047862E0
1.198878721E1,-3.737438504E0,3.481457343E0,6.709871750E0,8.432755819E0
1.199875621E1,-4.422761999E0,3.123252819E0,6.387924056E0,8.373834582E0
1.200872621E1,-5.175088153E0,2.687551053E0,5.477097427E0,8.000191515E0
1.201869621E1,-6.022670129E0,2.536390003E0,4.012868088E0,7.668698718E0
1.202866621E1,-6.975665123E0,2.630264127E0,2.790369077E0,7.960172918E0
1.203863521E1,-7.886655475E0,2.636884344E0,1.040877184E0,8.380687259E0
1.204860521E1,-8.298757879E0,2.565952356E0,-8.959413725E-1,8.732479875E0
1.205857521E1,-7.310376120E0,2.701513619E0,-2.818020268E0,8.287400864E0
1.206854421E1,-5.548886032E0,2.191587882E0,-4.090428773E0,7.233588403E0
1.207851421E1,-3.903795882E0,-1.233990544E-1,-5.731190522E0,6.935516881E0
1.208848421E1,-2.184836687E0,-4.335629130E0,-9.048673226E0,1.026886939E1
1.209845321E1,3.243713062E0,-1.021653468E1,-1.366445649E1,1.736711336E1
1.210842321E1,1.307687915E1,-1.491657457E1,-1.342380615E1,2.395219273E1
1.211839358E1,2.127751724E1,-1.681566368E1,-1.085004191E1,2.920997594E1
1.212836358E1,2.145603039E1,-1.168798533E1,-9.684735099E0,2.628239592E1
1.213833258E1,1.271542766E1,-2.322691813E0,-6.307495605E0,1.438268051E1
1.214830258E1,3.285527671E0,1.165768155E0,-3.271745784E0,4.781007001E0
1.215827258E1,-2.249182371E0,2.804621665E0,-2.811354150E0,4.563818158E0
1.216824158E1,-5.592542514E0,3.789078189E0,-2.209031003E0,7.107282410E0
1.217821158E1,-7.049399098E0,4.318005037E0,-2.031891944E0,8.512800950E0
1.218818158E1,-8.522368269E0,4.167898825E0,-2.631658688E0,9.845190144E0
1.219815058E1,-8.784928717E0,3.018253198E0,-1.587486305E0,9.423637180E0
1.220812058E1,-6.547535502E0,2.731694022E0,2.735378061E0,7.603595631E0
1.221809058E1,-3.469960547E0,2.104750882E0,7.289839529E0,8.343402353E0
1.222805958E1,-1.805222583E-1,-1.008939400E0,1.369677288E1,1.373506951E1
1.223802958E1,3.416157977E0,-8.476106268E0,1.974542044E1,2.175766856E1
1.224799958E1,8.417401392E0,-1.443318058E1,1.238985002E1,2.080090698E1
1.225796958E1,8.276081207E0,-1.145754423E1,-3.163267362E0,1.448361489E1
1.226793858E1,2.715905371E0,-5.524137107E0,3.412421021E0,7.038241967E0
1.227790858E1,-5.163266838E-1,-1.490404984E0,6.210458722E0,6.407628095E0
1.228787858E1,-2.464460480E0,2.528883932E0,4.673861612E0,5.857798372E0
1.229784758E1,-4.022519503E0,4.613727384E0,3.913693464E0,7.265269441E0
1.230781758E1,-4.818022667E0,4.927255672E0,4.204910531E0,8.072946392E0
1.231778758E1,-4.391528512E0,4.309135396E0,5.280564322E0,8.107930074E0
1.232775658E1,-2.322450323E0,2.202520421E0,5.952338065E0,6.758343003E0
1.233772658E1,-6.456086218E-2,2.653793907E-1,6.135309137E0,6.141385229E0
1.234769658E1,1.606705518E0,-6.965940034E-1,5.644871585E0,5.910272502E0
1.235766558E1,2.819147903E0,-1.176245781E0,4.138014876E0,5.143375949E0
1.236763558E1,3.840720212E0,-9.244816321E-1,1.504731832E0,4.227294161E0
1.237760558E1,4.184560466E0,-3.810928649E-1,6.466820244E-1,4.251349869E0
1.238757558E1,3.820529777E0,7.809909600E-1,2.137128085E0,4.446764116E0
1.239754458E1,2.972775308E0,2.634025640E0,3.586027193E0,5.351175118E0
1.240751458E1,1.869203986E0,4.122157812E0,3.205002741E0,5.546003167E0
1.241748458E1,1.182461956E0,4.822715642E0,5.048088384E-1,4.991155619E0
1.242745358E1,4.460337961E-1,4.028905247E0,-2.385520145E0,4.703374320E0
1.243742358E1,-3.896046567E-1,2.015927584E0,-4.217538178E0,4.690776492E0
1.244739358E1,-1.193373445E0,3.966254085E-1,-4.756293612E0,4.919733815E0
1.245736258E1,-1.939326135E0,-6.304409444E-2,-3.785172248E0,4.253526697E0
1.246733258E1,-2.512719889E0,1.929990470E-2,-2.227453095E0,3.357928084E0
1.247730258E1,-2.624101746E0,-1.387965274E-1,-1.209241619E0,2.892652717E0
1.248727158E1,-2.514187540E0,-5.663689095E-1,-7.127808505E-1,2.673942645E0
1.249724158E1,-2.164129357E0,-7.495306009E-1,2.018024687E-1,2.299125102E0
1.250721158E1,-2.192963147E0,-1.662603146E-1,7.330870610E-1,2.318220545E0
1.251718158E1,-2.677081028E0,7.950505900E-1,2.860222547E-1,2.807254353E0
1.252715058E1,-3.030783781E0,1.303689939E0,-4.099338175E-1,3.324650887E0
1.253712058E1,-2.978503241E0,1.421177459E0,-1.042129365E0,3.460817900E0
1.254709058E1,-2.428760304E0,1.665205742E0,-1.633453899E0,3.367485474E0
1.255705958E1,-8.675689280E-1,2.151011714E0,-2.414502454E0,3.348036639E0
1.256702958E1,1.727073961E0,2.268778730E0,-3.356150926E0,4.403849502E0
1.257699958E1,3.638357434E0,2.065214349E0,-4.150396355E0,5.893092993E0
1.258696858E1,4.540249518E0,1.398280932E0,-4.191112856E0,6.335178153E0
1.259693858E1,4.930783882E0,2.873292536E-1,-4.410942437E0,6.622054136E0
1.260690858E1,4.491156296E0,-8.739184195E-1,-5.363965498E0,7.050272629E0
1.261687758E1,3.350394343E0,-8.984977752E-1,-5.752197229E0,6.717158139E0
1.262684758E1,3.193348655E0,6.513915181E-2,-5.210225827E0,6.111315072E0
1.263681758E1,4.060825782E0,1.145063165E0,-3.899212250E0,5.745026706E0
1.264678658E1,4.837653524E0,1.574595534E0,-2.147107820E0,5.521984671E0
1.265675658E1,5.136703522E0,1.422089624E0,-5.929366109E-1,5.362801114E0
1.266672658E1,5.728351114E0,1.460463147E0,-2.511425900E-1,5.916927555E0
1.267669658E1,6.665277960E0,1.708852283E0,-4.782569245E-1,6.897451420E0
1.268666558E1,7.671927005E0,2.078305095E0,-1.269412392E0,8.049175353E0
1.269663558E1,7.974961295E0,1.766660196E0,-3.644314578E0,8.944390681E0
1.270660558E1,6.602337946E0,-1.658112484E-1,-6.113171579E0,8.999401451E0
1.271657458E1,4.938815618E0,-1.887054366E0,-6.201377996E0,8.149230819E0
1.272654458E1,4.208538144E0,-3.673105683E0,-4.938159560E0,7.455797644E0
1.273651458E1,3.790928832E0,-4.743736131E0,-5.452684132E0,8.161246114E0
1.274648358E1,2.937159333E0,-3.734820705E0,-6.224294989E0,7.830558010E0
1.275645358E1,2.440206814E0,-2.539142287E0,-3.998497971E0,5.328211602E0
1.276642358E1,2.970755680E0,-2.468334845E0,-8.751412185E-1,3.960295238E0
1.277639258E1,3.464298103E0,-2.927414948E0,1.187827946E0,4.688502411E0
1.278636258E1,3.754965532E0,-3.561899242E0,2.539883130E0,5.765231884E0
1.279633258E1,3.780834784E0,-3.909771152E0,3.407749681E0,6.418238077E0
1.280630158E1,3.361504637E0,-4.294058935E0,3.688534731E0,6.583611776E0
1.281627158E1,3.024453585E0,-5.204444100E0,3.147882460E0,6.792843430E0
1.282624158E1,2.748984239E0,-6.812156509E0,9.759938478E-1,7.410462512E0
1.283621158E1,2.570494473E0,-8.734831527E0,-2.439130926E0,9.426244391E0
1.284618058E1,2.364955487E0,-8.864316364E0,-2.998786647E0,9.652038148E0
1.285615058E1,1.298343245E0,-7.144953711E0,-1.517226162E0,7.418762292E0
1.286612058E1,-2.047297311E-1,-5.603706602E0,1.859801809E0,5.907817255E0
1.287608958E1,-6.556307495E-1,-5.150539788E0,6.383264995E0,8.228243055E0
1.288605958E1,-3.364259845E-1,-4.326375327E0,7.600587466E0,8.752121785E0
1.289602958E1,1.421013737E-1,-3.023777062E0,6.804870878E0,7.447797539E0
1.290599858E1,3.426971233E-1,-1.110893206E0,5.679557269E0,5.797317983E0
1.291596858E1,4.259877867E-1,1.019383696E0,4.671621836E0,4.800485318E0
1.292593858E1,6.352467710E-1,2.867073437E0,4.542884274E0,5.409385000E0
1.293590758E1,3.885305232E-1,4.211731893E0,6.076461589E0,7.403582035E0
1.294587758E1,-2.182514173E-1,5.297243505E0,6.909512649E0,8.709178347E0
1.295584758E1,-7.246401733E-1,5.850592420E0,6.708966601E0,8.931112355E0
1.296581658E1,-1.204649216E0,6.431612113E0,6.358254699E0,9.123826879E0
1.297578658E1,-1.571736830E0,6.677465311E0,6.174935718E0,9.229774145E0
1.298575658E1,-1.693868793E0,6.400306705E0,5.654156379E0,8.706468960E0
1.299572558E1,-1.799877058E0,5.717807999E0,5.471187061E0,8.115834744E0
1.300569558E1,-1.896218122E0,5.154213009E0,5.928734025E0,8.081549483E0
1.301566558E1,-2.232359932E0,4.755689594E0,6.618075142E0,8.449788930E0
1.302563558E1,-2.825432491E0,4.316759580E0,7.321341403E0,8.956535155E0
1.303560458E1,-3.538548971E0,3.894333917E0,7.472478479E0,9.139206755E0
1.304557458E1,-4.219454311E0,3.412140355E0,7.268691904E0,9.070853239E0
1.305554458E1,-4.967642391E0,3.070217988E0,6.660286192E0,8.857941159E0
1.306551358E1,-5.674134561E0,2.942503104E0,5.796477023E0,8.628631028E0
1.307548358E1,-6.486944314E0,2.891227700E0,4.950237569E0,8.657048928E0
1.308545358E1,-7.183241864E0,2.842823280E0,4.024262558E0,8.710642744E0
1.309542258E1,-7.893482684E0,2.791635000E0,2.418672688E0,8.714945348E0
1.310539258E1,-7.844320464E0,2.895288007E0,5.464190868E-1,8.379417044E0
1.311536258E1,-6.443142237E0,3.234573280E0,-1.801006740E0,7.431027619E0
1.312533500E1,-4.925665814E0,2.634612116E0,-4.510728973E0,7.179835693E0
1.313530500E1,-3.546336878E0,5.790024036E-1,-8.170962303E0,8.926162333E0
1.314527500E1,-9.661629242E-1,-4.125208889E0,-1.560592154E1,1.617082577E1
1.315524400E1,6.846903588E0,-1.085572306E1,-2.248904161E1,2.589370202E1
1.316521400E1,1.607722817E1,-1.498357431E1,-1.659199599E1,2.753686793E1
1.317518400E1,1.930058532E1,-1.519011434E1,-9.776025923E0,2.643525771E1
1.318515300E1,1.678850219E1,-1.029272741E1,-6.164925284E0,2.063493027E1
1.319512300E1,8.284967805E0,-3.702446426E0,-2.620160723E0,9.445318591E0
1.320509300E1,4.387212682E-1,3.927446115E-1,-1.847474855E0,1.939043069E0
1.321506200E1,-4.265814545E0,2.770745237E0,-2.437166846E0,5.640388740E0
1.322503200E1,-6.580076426E0,3.211489642E0,-2.028909572E0,7.597864538E0
1.323500200E1,-7.077551102E0,3.689055133E-1,-2.799451850E0,7.620023067E0
1.324497100E1,-5.424165507E0,-5.084725868E0,-4.901725559E0,8.905218810E0
1.325494100E1,-1.230615531E0,-8.866899664E0,-1.221172278E0,9.034798612E0
1.326491100E1,4.691426940E0,-1.130261874E1,4.994949473E0,1.321772285E1
1.327488100E1,6.867339022E0,-9.642503584E0,1.081335765E1,1.603330672E1
1.328485000E1,4.089339144E0,-5.489962471E0,1.596138079E1,1.736744251E1
1.329482000E1,1.282390287E0,-4.893528932E-1,1.737964751E1,1.743376433E1
1.330479000E1,-1.138734139E0,3.432258870E0,1.514464639E1,1.557040239E1
1.331475900E1,-3.330755299E0,6.231240896E0,1.017741798E1,1.238959768E1
1.332472900E1,-5.573502810E0,9.385209723E0,1.945088566E0,1.108735607E1
1.333469900E1,-6.506290997E0,1.267245764E1,-3.258826068E0,1.461310893E1
1.334466800E1,-5.331653785E0,1.151790036E1,6.583649075E-1,1.270913077E1
1.335463800E1,-3.887326030E0,7.425745777E0,4.421042917E0,9.476213616E0
1.336460800E1,-1.799692286E0,2.966881900E0,6.738814298E0,7.579769038E0
1.337457700E1,2.051761660E0,-2.520936397E0,9.427091575E0,9.971705059E0
1.338454700E1,5.990847827E0,-7.448793163E0,1.021127921E1,1.398731569E1
1.339451700E1,7.794517974E0,-1.093061069E1,8.620069395E0,1.595425827E1
1.340448600E1,7.778245758E0,-1.111293740E1,4.797470874E0,1.438798845E1
1.341445600E1,5.577085399E0,-7.151174564E0,-1.257348709E-1,9.069674109E0
1.342442600E1,2.329644737E0,-2.032281076E0,-5.349429759E-1,3.137447204E0
1.343439500E1,3.765677047E-1,1.696788892E0,3.647903160E-1,1.775941372E0
1.344436500E1,-5.656812769E-1,4.172083678E0,8.673082153E-1,4.298662706E0
1.345433500E1,-7.887917304E-1,5.555627287E0,4.549368032E-1,5.629756162E0
1.346430400E1,-7.608654284E-1,6.042071190E0,-6.864748120E-1,6.128359335E0
1.347427400E1,-5.431554633E-1,5.617477965E0,-1.749153632E0,5.908520540E0
1.348424400E1,-1.399671400E-1,4.369869840E0,-2.723818992E0,5.151169103E0
1.349421300E1,2.778696281E-1,2.958112246E0,-3.231820410E0,4.390023093E0
1.350418300E1,1.207502657E-1,1.528924102E0,-3.393130472E0,3.723643906E0
1.351415300E1,-4.892944211E-1,1.050486206E0,-3.100037618E0,3.309556395E0
1.352412200E1,-1.282084478E0,1.020119276E0,-2.826933471E0,3.267405208E0
1.353409200E1,-1.693470013E0,7.026441175E-1,-2.440197020E0,3.052230485E0
1.354406200E1,-1.732797216E0,1.048873544E-1,-1.354367904E0,2.201794715E0
1.355403100E1,-2.228366284E0,1.769221276E-1,-9.553414822E-2,2.237419162E0
1.356400100E1,-3.091466185E0,4.130022901E-1,-8.629320860E-2,3.120125091E0
1.357397100E1,-3.769202333E0,3.116343749E-1,-5.056876749E-1,3.815720409E0
1.358394000E1,-4.180391986E0,2.328577620E-1,-8.184286353E-1,4.266113609E0
1.359391000E1,-3.892188574E0,4.757680571E-1,-1.076807301E0,4.066325258E0
1.360388000E1,-2.734115939E0,1.084961974E0,-1.248047397E0,3.195333278E0
1.361384900E1,-2.639292812E-1,1.738349732E0,-2.257553830E0,2.861479993E0
1.362381900E1,2.470118830E0,1.886155649E0,-4.005146840E0,5.069543508E0
1.363378900E1,4.134265641E0,1.904864400E0,-5.913397363E0,7.462501534E0
1.364375800E1,5.266028144E0,1.966469495E0,-6.744193152E0,8.779646687E0
1.365372800E1,5.693910429E0,2.149888464E0,-6.506816661E0,8.909618367E0
1.366369800E1,4.626142192E0,1.860739557E0,-5.527337873E0,7.444125687E0
1.367366800E1,2.590878451E0,1.301580849E0,-4.525348766E0,5.374527450E0
1.368363700E1,2.026357847E0,1.327043719E0,-3.918228564E0,4.606483066E0
1.369360700E1,2.655108946E0,1.310741681E0,-2.746431929E0,4.038630413E0
1.370357600E1,3.907601835E0,1.343320613E0,-1.009637557E0,4.253613800E0
1.371354600E1,4.808768279E0,1.478845623E0,2.396890640E-2,5.031084500E0
1.372351600E1,5.182442197E0,1.988203595E0,5.748035181E-1,5.580417524E0
1.373348600E1,5.962299381E0,2.597461832E0,1.319669795E-1,6.504862578E0
1.374345500E1,7.333781354E0,2.680608069E0,-1.696729835E0,7.990550714E0
1.375342500E1,8.008726042E0,1.171161042E0,-4.481976167E0,9.251995534E0
1.376339500E1,6.541362011E0,-9.880841357E-1,-7.039782182E0,9.660448250E0
1.377336400E1,4.079378412E0,-1.736179245E0,-9.909442427E0,1.085599815E1
1.378333400E1,2.063252608E0,-1.008311993E0,-1.271744612E1,1.292312425E1
1.379330400E1,1.007341356E0,-4.263199085E-1,-1.183593743E1,1.188637456E1
1.380327300E1,8.114339036E-1,-1.397578096E0,-8.237106006E0,8.394138721E0
1.381324300E1,6.334119147E-1,-2.645886717E0,-5.175010970E0,5.846594369E0
1.382321300E1,3.045054495E-1,-3.292196420E0,-2.803999522E0,4.335169450E0
1.383318200E1,1.258210881E0,-3.437692688E0,6.550753371E-1,3.718863984E0
1.384315200E1,4.169073531E0,-3.800276776E0,4.997511138E0,7.536471008E0
1.385312200E1,8.011588254E0,-5.255332417E0,8.161727210E0,1.258641554E1
1.386309100E1,1.081969603E1,-7.015074772E0,8.752771955E0,1.558486808E1
1.387306100E1,1.190515092E1,-9.197984217E0,5.255547595E0,1.593600680E1
1.388303100E1,1.265073173E1,-1.148827368E1,-1.533182190E0,1.715727523E1
1.389300000E1,1.175752744E1,-1.084507879E1,-4.001214588E0,1.648832629E1
1.390297000E1,6.981806454E0,-6.895937169E0,-8.361728883E-1,9.848794642E0
1.391294000E1,2.679046277E0,-4.131782913E0,2.773301640E0,5.651559164E0
1.392290900E1,6.879003632E-1,-3.552382314E0,3.653174571E0,5.141819859E0
1.393287900E1,4.365624762E-1,-3.802927904E0,3.307450052E0,5.058860868E0
1.394284900E1,9.697963840E-1,-3.460122607E0,4.236843345E0,5.555519329E0
1.395281800E1,9.417689252E-1,-2.116973902E0,6.733976312E0,7.121442563E0
1.396278800E1,4.298896337E-1,-1.185037655E-1,7.729270649E0,7.742123288E0
1.397275800E1,-2.456906462E-1,2.062273200E0,7.310501250E0,7.599787048E0
1.398272700E1,-5.406166023E-1,3.673610882E0,7.062302148E0,7.978959510E0
1.399269700E1,-9.544778484E-1,4.309927109E0,7.477115321E0,8.682957628E0
1.400266700E1,-1.754118503E0,4.445564386E0,7.130530384E0,8.583964002E0
1.401263600E1,-2.189440200E0,4.648199059E0,6.646294389E0,8.400751871E0
1.402260600E1,-2.644892106E0,4.956108173E0,6.904622038E0,8.901250921E0
1.403257600E1,-2.985798812E0,5.357820659E0,6.987015738E0,9.297291309E0
1.404254500E1,-3.283359523E0,5.864305310E0,6.744479665E0,9.521477432E0
1.405251500E1,-3.432609703E0,6.085392042E0,6.590428922E0,9.604611343E0
1.406248500E1,-3.662491817E0,6.030724084E0,6.860007783E0,9.840893560E0
1.407245400E1,-4.015874727E0,6.052571036E0,7.136282290E0,1.018270057E1
1.408242400E1,-4.255740961E0,5.850301228E0,7.084774752E0,1.012577843E1
1.409239400E1,-4.553478844E0,5.308098861E0,6.761958747E0,9.728009518E0
1.410236300E1,-5.089656240E0,4.402241780E0,5.880762298E0,8.936872973E0
1.411233300E1,-5.814531471E0,3.439716994E0,4.819776247E0,8.298835599E0
1.412230321E1,-6.638842698E0,2.818913430E0,4.030367928E0,8.262225543E0
1.413227221E1,-7.316976457E0,2.580973853E0,3.141194415E0,8.370583782E0
1.414224221E1,-7.797115307E0,2.494792911E0,1.399477857E0,8.305271643E0
1.415221221E1,-7.295749894E0,2.792237847E0,-1.570206614E0,7.968067992E0
1.416218121E1,-5.940661760E0,3.002150550E0,-5.070508947E0,8.367462642E0
1.417215121E1,-4.443546512E0,1.444048843E0,-8.251492496E0,9.482484435E0
1.418212121E1,-2.099196028E0,-2.961936325E0,-1.107213319E1,1.165211673E1
1.419209021E1,3.217652022E0,-1.005410956E1,-1.642754071E1,1.952696846E1
1.420206021E1,9.015825908E0,-1.384225395E1,-1.369346804E1,2.145703097E1
1.421203021E1,1.359763217E1,-1.512567568E1,-9.306585138E0,2.236725715E1
1.422199921E1,1.405336299E1,-1.147267214E1,-1.129849177E1,2.137229828E1
1.423196921E1,7.593718742E0,-3.992463060E0,-8.924726872E0,1.237962339E1
1.424193921E1,5.441512442E-1,1.842926599E0,-4.567935500E0,4.955654725E0
1.425190821E1,-4.490700797E0,4.791472215E0,-1.359969390E0,6.706274404E0
1.426187821E1,-6.678372799E0,5.243763117E0,3.659050146E-1,8.498917657E0
1.427184721E1,-6.345213069E0,5.446348089E-1,2.927876294E-1,6.375271019E0
1.428181721E1,-3.785428941E-1,-7.132649415E0,5.842798081E-1,7.166544865E0
1.429178721E1,6.848608636E0,-1.149749357E1,5.728575062E0,1.455721027E1
1.430175621E1,8.305703201E0,-1.385172293E1,1.407214308E1,2.142148792E1
1.431172621E1,7.570195978E0,-1.341124399E1,1.807765654E1,2.374807357E1
1.432169621E1,4.356739333E0,-5.651300014E0,1.683068868E1,1.828087665E1
1.433166521E1,1.135967821E0,4.617008257E-1,1.132726592E1,1.139344302E1
1.434163521E1,-1.435031852E0,4.359875194E0,6.944377842E0,8.324194360E0
1.435160521E1,-2.926899224E0,7.707006206E0,1.703949100E0,8.418320869E0
1.436157421E1,-3.511603832E0,8.454953381E0,-1.283516461E-1,9.156094817E0
1.437154421E1,-3.576920155E0,6.494866707E0,2.260129236E0,7.751505370E0
1.438151421E1,-2.888323973E0,3.677984599E0,2.838977858E0,5.470811765E0
1.439148321E1,-5.541406274E-1,-5.621700239E-1,3.425983053E0,3.515745562E0
1.440145321E1,2.361852955E0,-4.035602063E0,3.644371880E0,5.928396056E0
1.441142321E1,4.161961563E0,-6.109295459E0,4.349178883E0,8.576757663E0
1.442139221E1,4.596396237E0,-7.563214987E0,5.470264370E0,1.040446402E1
1.443136221E1,3.818489683E0,-7.189373839E0,5.602507339E0,9.882107474E0
1.444133221E1,2.596692923E0,-4.623914403E0,5.564749528E0,7.686991340E0
1.445130121E1,1.378318537E0,-1.651161899E0,5.382947899E0,5.796742679E0
1.446127121E1,5.414170861E-1,1.148439347E0,5.398033715E0,5.545341594E0
1.447124121E1,3.963067353E-2,3.486685923E0,5.495421431E0,6.508318217E0
1.448121021E1,2.067984760E-2,5.605968890E0,4.115685529E0,6.954579946E0
1.449118021E1,4.326068348E-1,8.001911112E0,-4.985827231E-1,8.029091782E0
1.450115021E1,8.733763826E-1,9.164531127E0,-6.142105356E0,1.106692709E1
1.451111921E1,9.517466140E-1,7.979169536E0,-7.950556186E0,1.130417232E1
1.452108921E1,1.657089221E-1,4.299567012E0,-6.323460842E0,7.648522273E0
1.453105921E1,-8.082652974E-1,1.237597691E0,-3.432412652E0,3.737164359E0
1.454102821E1,-9.901885486E-1,3.850274563E-2,-8.471120055E-1,1.303669656E0
1.455099821E1,-1.031389784E0,-5.116085654E-1,9.580561982E-1,1.497791671E0
1.456096721E1,-1.143303738E0,-6.490052694E-1,8.916505395E-1,1.588518795E0
1.457093721E1,-1.308391101E0,-4.296750408E-1,5.796681091E-2,1.378357016E0
1.458090721E1,-1.596985692E0,-1.088184375E-1,-5.652189083E-1,1.697550343E0
1.459087621E1,-2.644966366E0,4.701272482E-1,-2.737725133E0,3.835623236E0
1.460084621E1,-4.272929437E0,6.969232017E-1,-6.746959469E0,8.016551004E0
1.461081621E1,-5.103607696E0,1.318008601E0,-5.247309453E0,7.437621574E0
1.462078521E1,-4.998371263E0,2.064420297E0,-1.516192374E0,5.616438886E0
1.463075521E1,-2.372776723E0,2.396471395E0,-2.263097575E-1,3.379994176E0
1.464072521E1,1.099783496E0,1.934004584E0,-1.506928338E0,2.687141694E0
1.465069421E1,3.242545958E0,1.394518833E0,-3.720616356E0,5.128525435E0
1.466066421E1,5.550756556E0,1.044403932E0,-7.169800869E0,9.127306417E0
1.467063421E1,7.131971138E0,3.540828216E-1,-8.398041261E0,1.102349690E1
1.468060321E1,7.441394096E0,6.270554066E-3,-6.041436768E0,9.585058353E0
1.469057321E1,6.946598614E0,1.937252712E-1,-3.524021272E0,7.791757678E0
1.470054321E1,6.190067142E0,9.407123333E-1,-2.511512147E0,6.746077689E0
1.471051221E1,5.926046060E0,1.567016957E0,-2.439525028E0,6.597336312E0
1.472048221E1,6.132960311E0,1.940341212E0,-2.163527971E0,6.786676615E0
1.473045221E1,6.522574323E0,2.032436612E0,-1.593972329E0,7.015377550E0
1.474042121E1,7.033268384E0,1.431865584E0,-1.210292364E0,7.278867413E0
1.475039121E1,6.729259948E0,-4.513705498E-1,-2.246504347E0,7.108688810E0
1.476036121E1,5.561323645E0,-1.741451095E0,-4.558435528E0,7.398669276E0
1.477033021E1,4.015266032E0,-2.609679004E0,-6.622326068E0,8.172391838E0
1.478030021E1,3.385654222E0,-3.515625547E0,-7.839909325E0,9.235066633E0
1.479026921E1,3.566189929E0,-4.392990316E0,-8.499276445E0,1.021047377E1
1.480023921E1,3.628487919E0,-4.361714144E0,-7.430103707E0,9.348631769E0
1.481020921E1,2.926099325E0,-3.453239849E0,-4.600722592E0,6.453957784E0
1.482017821E1,2.565653563E0,-2.933715908E0,-1.978613577E0,4.370832749E0
1.483014821E1,3.541642148E0,-3.067220120E0,2.647062300E-1,4.692668512E0
1.484011821E1,4.983270829E0,-4.198370420E0,2.327997576E0,6.919456269E0
1.485008721E1,5.521967205E0,-6.079847712E0,4.141224997E0,9.198174520E0
1.486005721E1,5.249349546E0,-7.642050657E0,4.985490432E0,1.052671477E1
1.487002721E1,4.728152132E0,-9.401586020E0,3.897586724E0,1.122213993E1
1.487999621E1,4.329753263E0,-1.139290560E1,1.598706089E0,1.229231152E1
1.488996621E1,4.266368276E0,-1.140390304E1,7.129793635E-1,1.219668981E1
1.489993621E1,3.671424608E0,-8.861444212E0,1.676951336E0,9.737387635E0
1.490990521E1,2.329237186E0,-6.618409018E0,3.795951298E0,7.977338532E0
1.491987521E1,1.131821560E0,-4.562954257E0,5.261828674E0,7.056090461E0
1.492984521E1,5.598393238E-1,-2.896514753E0,5.872144672E0,6.571552391E0
1.493981421E1,4.785448998E-1,-1.495756356E0,5.792584532E0,6.001693749E0
1.494978421E1,3.328416413E-1,7.256102264E-2,5.140035850E0,5.151312182E0
1.495975421E1,-3.268038064E-1,2.020735164E0,4.765027013E0,5.186101982E0
1.496972321E1,-6.873934096E-1,3.269036184E0,5.696041739E0,6.603332398E0
1.497969321E1,-8.780980092E-1,3.846691974E0,8.037664497E0,8.953889983E0
1.498966221E1,-1.101999006E0,4.231136463E0,9.213268254E0,1.019809931E1
1.499963221E1,-1.909518199E0,5.033296098E0,8.883426819E0,1.038728075E1
1.500960221E1,-2.666898687E0,5.519010268E0,8.676341829E0,1.062312245E1
1.501957121E1,-3.152191858E0,5.971182472E0,7.493079974E0,1.008650490E1
1.502954121E1,-3.540252850E0,6.895089322E0,5.587146703E0,9.554677142E0
1.503951121E1,-3.716180951E0,7.253182164E0,3.895099318E0,9.032743275E0
1.504948021E1,-3.748372797E0,6.781261575E0,4.250524076E0,8.837576709E0
1.505945021E1,-3.809864455E0,6.309579552E0,5.225002910E0,9.034739438E0
1.506942021E1,-3.931672482E0,6.095302488E0,6.306543678E0,9.611620784E0
1.507938921E1,-4.102605892E0,5.638264816E0,7.361560307E0,1.013972265E1
1.508935921E1,-4.258418986E0,5.128653075E0,7.933582889E0,1.036238158E1
1.509932821E1,-4.495754546E0,4.539674737E0,7.310367934E0,9.708858583E0
1.510929821E1,-4.752566012E0,4.128776860E0,6.098153590E0,8.764768066E0
1.511926846E1,-5.477644141E0,3.643562626E0,4.397613709E0,7.913225656E0
1.512923746E1,-6.510144312E0,3.481952602E0,2.833525037E0,7.907897130E0
1.513920746E1,-7.367333847E0,3.412586498E0,1.500168372E0,8.256746318E0
1.514917746E1,-7.570446823E0,3.088113976E0,-1.732968539E-1,8.177905895E0
1.515914646E1,-6.613464028E0,2.181957518E0,-2.801731972E0,7.506566931E0
1.516911646E1,-5.106862841E0,2.684287137E-1,-6.996357250E0,8.666090054E0
1.517908646E1,-1.812911671E0,-4.375910014E0,-1.843237086E1,1.903122520E1
1.518905546E1,6.521620057E0,-1.069860136E1,-2.689735806E1,2.967253730E1
1.519902546E1,1.350437376E1,-1.356226821E1,-1.579669981E1,2.481610273E1
1.520899446E1,1.523733879E1,-1.466639794E1,-6.986028728E0,2.227295040E1
1.521896446E1,1.395283649E1,-1.410914426E1,-4.936063918E0,2.044784401E1
1.522893446E1,6.814100123E0,-9.889561894E0,-4.804916133E0,1.293532427E1
1.523890346E1,-1.193032553E0,-4.048004007E0,-4.044347159E0,5.845203765E0
1.524887346E1,-4.986685603E0,3.861776036E-1,-1.576105285E-1,5.004099072E0
1.525884346E1,-6.143292341E0,1.407162268E0,3.612902750E0,7.264517376E0
1.526881246E1,-6.765646586E0,-1.076203430E-1,2.661852540E0,7.271245753E0
1.527878246E1,-6.825880508E0,-3.355219465E0,-3.198918128E-1,7.612652175E0
1.528875246E1,-5.414991226E0,-5.853769796E0,1.309387466E0,8.081042404E0
1.529872146E1,-1.621106041E0,-8.197394641E0,3.373521250E0,9.011432146E0
1.530869146E1,4.392142469E0,-9.839869916E0,5.350041524E0,1.203066498E1
1.531866146E1,7.173998585E0,-7.673359573E0,1.086216436E1,1.511070208E1
1.532863046E1,6.793437232E0,-1.688568292E0,1.469113400E1,1.627364343E1
1.533860046E1,3.232202818E0,3.051319202E0,1.229235121E1,1.307132671E1
1.534856946E1,5.503703427E-1,4.910567719E0,7.949555143E0,9.360128728E0
1.535853946E1,-1.080297065E0,6.743852844E0,3.784993031E0,7.808505950E0
1.536850946E1,-1.940432428E0,7.994763476E0,7.248430717E-1,8.258747999E0
1.537847846E1,-2.241517841E0,7.291103112E0,1.474614286E0,7.769110252E0
1.538844846E1,-2.223447606E0,5.428405323E0,3.039632957E0,6.606865529E0
1.539841846E1,-1.482159825E0,3.190819734E0,3.565041828E0,5.008757487E0
1.540838746E1,4.477739275E-2,5.208056509E-1,4.771025087E0,4.799575389E0
1.541835746E1,2.233097851E0,-2.328288183E0,6.088724370E0,6.890588968E0
1.542832646E1,4.043514515E0,-4.874354158E0,7.244131844E0,9.622202672E0
1.543829646E1,4.669401648E0,-6.350343416E0,7.576616220E0,1.093321941E1
1.544826646E1,4.306783646E0,-5.851953067E0,6.597628598E0,9.814399787E0
1.545823546E1,3.335281044E0,-4.050597247E0,5.415726221E0,7.540658340E0
1.546820546E1,2.264383963E0,-1.262225579E0,4.368626722E0,5.079916100E0
1.547817546E1,1.161827132E0,1.686218296E0,2.668114908E0,3.363333404E0
1.548814446E1,2.030229288E-1,4.358459584E0,2.859778889E-1,4.372547496E0
1.549811446E1,-4.431177896E-1,6.287799259E0,-8.986492181E-1,6.367129912E0
1.550808346E1,-8.879417968E-1,6.973992820E0,-1.911535488E0,7.285532541E0
1.551805346E1,-1.085796956E0,5.731767057E0,-2.570769292E0,6.375026540E0
1.552802346E1,-9.085766208E-1,3.399640177E0,-2.714261134E0,4.444128521E0
1.553799246E1,-9.345569694E-1,1.782107370E0,-3.058824688E0,3.661381144E0
1.554796246E1,-1.108599928E0,2.366368175E-1,-3.301467766E0,3.490656126E0
1.555793246E1,-1.245616563E0,-2.274157584E-1,-2.848651199E0,3.117385476E0
1.556790146E1,-1.392002776E0,-2.421916723E-2,-2.209268547E0,2.611345593E0
1.557787146E1,-1.269780766E0,-2.317719340E-1,-1.417307771E0,1.916982719E0
1.558784146E1,-1.341457105E0,-3.803976309E-1,-5.665298541E-1,1.505046710E0
1.559781046E1,-1.626815262E0,-5.738632858E-2,-4.809196003E-1,1.697381734E0
1.560778046E1,-1.998708703E0,4.138764489E-1,-1.164149208E0,2.349760322E0
1.561774946E1,-2.310307994E0,9.705027276E-1,-2.213008718E0,3.343173068E0
1.562771946E1,-2.571993699E0,1.418019378E0,-2.557200536E0,3.894252833E0
1.563768946E1,-2.600028759E0,1.865785119E0,-1.712806901E0,3.629739817E0
1.564765846E1,-1.911705058E0,2.279613621E0,-7.641913247E-1,3.071684044E0
1.565762846E1,-4.930869251E-1,2.291861783E0,-1.030177949E0,2.560670177E0
1.566759846E1,1.519489034E0,1.902550657E0,-2.496918666E0,3.487570609E0
1.567756746E1,3.639525123E0,1.318532512E0,-4.889631178E0,6.236438420E0
1.568753746E1,5.469689589E0,6.460430700E-1,-6.684177915E0,8.661010925E0
1.569750646E1,6.308196101E0,-1.726302713E-1,-6.985744554E0,9.414019664E0
1.570747646E1,6.526034120E0,-8.370593262E-1,-6.248275005E0,9.073628281E0
1.571744646E1,6.554767923E0,-7.928877050E-1,-5.198554784E0,8.403488875E0
1.572741546E1,6.545572007E0,-2.366759938E-1,-3.595326605E0,7.471740213E0
1.573738546E1,6.167271187E0,6.166128641E-1,-1.666057681E0,6.418036578E0
1.574735546E1,5.400732206E0,1.520795887E0,-2.608498451E-1,5.616829277E0
1.575732446E1,4.947664209E0,2.142059627E0,1.020602256E-2,5.391465917E0
1.576729446E1,5.261921060E0,2.156306952E0,-4.924817383E-1,5.707890256E0
1.577726346E1,5.754257787E0,7.165353477E-1,-1.927809751E0,6.110757402E0
1.578723346E1,5.735325673E0,-7.871808225E-1,-3.599199508E0,6.816733185E0
1.579720346E1,4.263433558E0,-1.531809118E0,-4.894760356E0,6.669481526E0
1.580717246E1,2.299880655E0,-2.065749369E0,-4.665506525E0,5.596760011E0
1.581714246E1,1.906081206E0,-3.289653466E0,-5.175617326E0,6.421991919E0
1.582711246E1,2.897276645E0,-5.074997270E0,-8.392106338E0,1.022630227E1
1.583708146E1,3.607899873E0,-5.952881271E0,-9.590890211E0,1.185069247E1
1.584705146E1,3.211922336E0,-4.853618762E0,-6.451699637E0,8.688986614E0
1.585702046E1,3.080233684E0,-3.552248998E0,-2.569775850E0,5.358176967E0
1.586699046E1,3.883352262E0,-2.891163965E0,2.054114433E-1,4.845765959E0
1.587696046E1,4.889539962E0,-2.850802390E0,2.086554932E0,6.032278739E0
1.588692946E1,5.269708382E0,-3.416589502E0,3.579964800E0,7.229042690E0
1.589689946E1,5.053226332E0,-3.980490301E0,4.344302305E0,7.762239491E0
1.590686946E1,4.510567297E0,-4.632800417E0,4.338329959E0,7.786473135E0
1.591683846E1,4.243689850E0,-5.719311318E0,2.997738826E0,7.726956941E0
1.592680846E1,4.618393462E0,-7.476587902E0,-1.122564687E0,8.859406092E0
1.593677746E1,4.736409570E0,-7.449438695E0,-1.598511815E0,8.971229153E0
1.594674746E1,3.761174691E0,-5.305447733E0,1.206510677E0,6.614369110E0
1.595671746E1,2.253439729E0,-3.924215528E0,3.734796439E0,5.867381236E0
1.596668646E1,1.386744375E0,-3.141570391E0,5.034824560E0,6.094422272E0
1.597665646E1,1.133258806E0,-2.837274272E0,5.904817159E0,6.648403304E0
1.598662646E1,1.096459354E0,-1.931318373E0,6.070455329E0,6.463949387E0
1.599659546E1,8.371031803E-1,-5.749625623E-1,6.133683611E0,6.217185724E0
1.600656546E1,5.802870369E-1,8.140891242E-1,6.285263321E0,6.364276013E0
1.601653446E1,3.011549950E-1,1.515938020E0,8.306699567E0,8.449261512E0
1.602650446E1,2.013517946E-1,1.343115960E0,9.824288256E0,9.917718627E0
1.603647446E1,-2.782087666E-1,2.458858262E0,7.931651554E0,8.308699082E0
1.604644346E1,-9.898897558E-1,3.256721948E0,6.595911271E0,7.422409654E0
1.605641346E1,-1.532782679E0,3.801318165E0,6.087408746E0,7.338663896E0
1.606638246E1,-2.067515813E0,4.923620458E0,5.344881356E0,7.555423003E0
1.607635246E1,-2.727095187E0,6.079972258E0,4.144554402E0,7.847320689E0
1.608632246E1,-3.140166475E0,6.611695830E0,3.869006703E0,8.279153344E0
1.609629146E1,-3.253921131E0,6.672465942E0,4.914364901E0,8.902852737E0
1.610626146E1,-3.426585317E0,6.269579335E0,6.386563994E0,9.583178576E0
1.611623146E1,-3.719471179E0,5.569785150E0,7.358867079E0,9.950371710E0
1.612619621E1,-3.867138810E0,5.084942214E0,8.244446601E0,1.042987534E1
1.613616621E1,-4.012105612E0,4.745425392E0,8.593079233E0,1.060457752E1
1.614613521E1,-4.337391481E0,4.532810690E0,7.926529977E0,1.010886814E1
1.615610521E1,-4.685097329E0,4.353823326E0,6.827721212E0,9.355409744E0
1.616607521E1,-5.239760113E0,4.164410961E0,5.875680483E0,8.906235222E0
1.617604421E1,-5.919722881E0,3.991236899E0,4.909228706E0,8.664503301E0
1.618601421E1,-6.543276975E0,3.816427955E0,3.298019370E0,8.261750884E0
1.619598421E1,-6.774419748E0,3.399745427E0,9.814905229E-1,7.642928466E0
1.620595321E1,-5.881861575E0,2.894446008E0,-2.056526556E0,6.870474128E0
1.621592321E1,-4.311112339E0,2.425431485E0,-5.445241211E0,7.356565730E0
1.622589221E1,-2.592346687E0,3.819641000E-1,-9.224377379E0,9.589332404E0
1.623586221E1,1.940510196E0,-4.723625802E0,-1.678551310E1,1.754513239E1
1.624583221E1,1.036337815E1,-1.062280741E1,-2.319154013E1,2.753345561E1
1.625580121E1,1.501925402E1,-1.331782419E1,-1.430786305E1,2.465070745E1
1.626577121E1,1.524512962E1,-1.394767340E1,-6.357063037E0,2.161859896E1
1.627574021E1,1.127788268E1,-1.051693305E1,-5.531701065E0,1.638280303E1
1.628571021E1,3.912141028E0,-4.242241495E0,-4.726855220E0,7.459532196E0
1.629568021E1,-1.957387599E0,5.991407990E-1,-2.191620626E0,2.998922620E0
1.630564921E1,-5.716704630E0,2.791078345E0,1.211119160E0,6.475927715E0
1.631561921E1,-6.591103106E0,1.804465368E0,2.588236679E0,7.307373298E0
1.632558821E1,-5.882824611E0,-2.207131535E0,1.341343669E0,6.424815784E0
1.633555821E1,-4.218535128E0,-6.375999244E0,1.776753075E0,7.848965313E0
1.634552821E1,3.870301276E-1,-1.191536952E1,-4.080631471E-1,1.192863524E1
1.635549721E1,3.752754700E0,-1.335132874E1,-5.295908001E-1,1.387881887E1
1.636546721E1,2.679993526E0,-9.198972396E0,1.073430914E1,1.438849718E1
1.637543721E1,2.973075271E-1,-3.390762350E0,1.528868553E1,1.566299991E1
1.638540621E1,-1.478369075E0,2.119102873E0,1.180044132E1,1.208000776E1
1.639537621E1,-2.638941979E0,4.813477626E0,8.619182957E0,1.021880113E1
1.640534521E1,-3.303146501E0,7.171235191E0,4.054864253E0,8.875771239E0
1.641531521E1,-2.356027374E0,8.613659093E0,-1.464943868E-1,8.931262428E0
1.642528521E1,-1.507473006E0,7.096915911E0,9.229797748E-1,7.313725588E0
1.643525421E1,-1.280774701E0,4.426279099E0,4.391890454E0,6.365613267E0
1.644522421E1,-4.372629726E-1,1.533633449E0,5.574392756E0,5.798024238E0
1.645519421E1,1.417545753E0,-1.740640086E0,6.539393839E0,6.913966709E0
1.646516321E1,4.131319229E0,-4.006413347E0,8.012086437E0,9.864718726E0
1.647513321E1,5.692635151E0,-4.728209435E0,8.440979705E0,1.122551548E1
1.648510221E1,5.742251700E0,-4.507893366E0,7.989637806E0,1.082260918E1
1.649507221E1,5.271999321E0,-3.430283681E0,7.045994264E0,9.444938228E0
1.650504221E1,4.282811231E0,-1.502107016E0,5.014883215E0,6.763715783E0
1.651501121E1,3.378387303E0,7.562420350E-1,2.578470075E0,4.316701369E0
1.652498121E1,2.833509250E0,3.143885304E0,-6.688279152E-2,4.232878782E0
1.653495021E1,2.175001670E0,4.827323833E0,-1.775008850E0,5.584294411E0
1.654492021E1,1.548928011E0,5.534842774E0,-2.043625113E0,6.100005420E0
1.655489021E1,9.558151066E-1,5.658366374E0,-1.768431756E0,6.004835004E0
1.656485921E1,4.149342102E-1,4.842168744E0,-1.392665266E0,5.055520259E0
1.657482921E1,3.747129679E-2,3.410332396E0,-7.658121729E-1,3.495459832E0
1.658479821E1,-2.896470898E-1,1.753812109E0,-8.048785901E-1,1.951302615E0
1.659476821E1,-6.124046230E-1,4.469360214E-1,-1.282969746E0,1.490235753E0
