Time (s),Linear Acceleration x (m/s^2),Linear Acceleration y (m/s^2),Linear Acceleration z (m/s^2),Absolute acceleration (m/s^2),label
-0.001816375006,-0.5780289884,-0.877904174,-0.4891429782,1.159350725,1
0.008263625001,-0.4413804357,-0.9120785183,-1.068192744,1.472324574,1
0.018344625,-0.2154272121,-0.7315191302,-1.581985829,1.756191415,1
0.028425625,0.01785125703,-0.3686616844,-1.60816206,1.649974338,1
0.038506625,0.2422589153,-0.013476955,-1.075102984,1.102142203,1
0.048587625,0.3463025165,0.1791072321,-0.4043039721,0.561664077,1
0.058668625,0.2944871226,0.1639743456,-0.1058696866,0.3532968185,1
0.068749625,0.1778076884,-0.0005651333928,-0.08852041304,0.1986246635,1
0.078830625,0.1293687692,-0.1156608492,-0.2824427354,0.3314930004,1
0.088910625,0.2234577781,-0.07152343422,-0.5544423437,0.6020426004,1
0.098991625,0.1664418706,-0.04705049783,-0.5154472625,0.5436934119,1
0.109072625,0.1855010162,-0.07718997091,0.04049372256,0.2049601429,1
0.119153625,0.2616884089,-0.1511543253,-0.02602654159,0.3033246352,1
0.129234625,0.05578536093,-0.3665672117,-0.2045344341,0.4234593982,1
0.139315625,-0.1639475215,-0.5637701145,-0.5273855227,0.7892091113,1
0.149396625,-0.5500354435,-0.7128524789,-1.019617585,1.360263822,1
0.159477625,-0.7982558875,-0.7607923383,-1.58998599,1.934960695,1
0.169558625,-0.6199850265,-0.7288098228,-1.718998371,1.967358786,1
0.179638625,-0.317556508,-0.6070219687,-1.389755107,1.549431206,1
0.189719625,-0.09543489173,-0.3513686903,-0.7661869794,0.8482984513,1
0.199800625,0.4358420261,-0.2295451681,-0.6158427858,0.7886137158,1
0.209881625,0.7033932189,-0.2192267329,-0.8183885819,1.101173125,1
0.219962625,0.4473282965,-0.1021023256,-0.5239192933,0.6964329944,1
0.230043625,0.8140394229,0.006434568465,1.37786187,1.600376493,1
0.240124625,1.121172026,-0.1815575078,2.485922685,2.733093748,1
0.250205625,0.9579920981,-0.3346417066,2.408183953,2.613251592,1
0.260285625,1.042541009,-0.5006291024,1.507228008,1.899804601,1
0.270366625,1.285621312,-0.8218366119,0.7191572392,1.686838673,1
0.280447625,1.604914224,-1.100812825,0.1591489309,1.952656377,1
0.290528625,1.836088865,-1.391474773,-0.8865378803,2.468476003,1
0.300609625,2.17801898,-1.475842493,-3.357264821,4.265337597,1
0.310690625,2.98957699,-1.640000734,-5.539201289,6.504607898,1
0.320771625,2.336026973,-1.87208754,-7.190236888,7.788532614,1
0.330852625,-2.565973113,-2.527930251,-8.698578206,9.414877173,1
0.340932625,-2.41484437,-1.972962243,-6.965919569,7.632043552,1
0.351013625,-1.551999115,-2.006512835,-4.722541729,5.360708478,1
0.361094625,-0.6784363523,-2.252944324,-5.018521938,5.5427066,1
0.371175625,1.1652938,-1.893002446,-5.049699292,5.517320984,1
0.381256625,1.89751942,-1.741853091,-6.168313746,6.684513939,1
0.391337625,1.554178226,-1.540700979,-7.640373091,7.947611618,1
0.401418625,1.101499654,-1.468489912,-7.967411955,8.1761493,1
0.411499625,0.3393338048,-1.844826652,-6.214499148,6.491419911,1
0.421579625,0.4631719851,-2.233442544,-4.602224157,5.136463869,1
0.431660625,0.7309691995,-2.547333944,-5.67919708,6.267097069,1
0.441741625,0.2400340497,-3.361157312,-3.991542124,5.223734617,1
0.451822625,-0.2290447927,-4.524671951,-0.2901505351,4.539747252,1
0.461903625,-0.2234098309,-6.190551876,0.5068577027,6.215283519,1
0.471984625,-1.284062006,-7.693482766,-2.867765747,8.310389442,1
0.482065625,-2.032922516,-7.216265768,-5.491885035,9.293442141,1
0.492146625,-1.779645692,-5.902282975,-5.838679302,8.490833829,1
0.502226625,-1.096189798,-5.385686735,-5.472340132,7.75588552,1
0.512307625,-0.6142628682,-5.690718434,-4.678741406,7.392713731,1
0.522388625,-0.665335958,-6.755915065,-3.166367263,7.490723726,1
0.532469625,-0.8052855563,-7.864381092,-1.315760639,8.014249861,1
0.542550625,-1.209212383,-8.572274839,0.2055401552,8.659580663,1
0.552631625,-1.036541766,-9.217342594,1.085350522,9.338726309,1
0.562712625,1.233004704,-9.150742807,2.119092933,9.473486654,1
0.572793625,5.140294297,-7.679735377,4.063457906,10.0951796,1
0.582874625,7.542141037,-5.980840902,5.883390037,11.2813398,1
0.592954625,8.085064951,-4.872041584,6.051408609,11.21269863,1
0.603035625,7.701001115,-4.701061397,5.054464188,10.34180858,1
0.613116625,7.193040043,-4.064886673,3.99050015,9.175359403,1
0.623197625,8.100886931,-3.409970453,4.840280094,10.03397125,1
0.633278625,9.005179297,-2.639839527,6.627615459,11.4885723,1
0.643359625,9.009994479,-2.231095764,8.032183902,12.27492432,1
0.653440625,7.99722106,-2.291858275,7.82527199,11.42116635,1
0.663521625,6.420324063,-1.958575169,6.267601222,9.183648667,1
0.673601625,6.200653526,-1.879382234,4.668897618,7.986162201,1
0.683682625,6.304916983,-1.141037942,3.930383171,7.516771755,1
0.693764125,6.34870912,-0.1058790421,3.67472887,7.336276312,1
0.703845125,6.644861822,0.8192925614,3.30193145,7.465130958,1
0.713926125,6.753969696,1.660200525,2.404626507,7.358980981,1
0.724007125,6.150594928,2.13031374,1.517759428,6.683685232,1
0.734088125,5.74408831,2.39682866,1.074953295,6.31623802,1
0.744169125,5.68390175,2.797803227,0.5755139182,6.361262317,1
0.754249125,5.202432073,2.992894993,0.6580269384,6.037857183,1
0.764330125,4.533042533,2.696970917,1.009191999,5.37034405,1
0.774411125,3.912268497,2.147725579,1.542836967,4.72217279,1
0.784492125,3.516235996,1.72560514,2.116271651,4.451992182,1
0.794573125,3.206382099,1.454549857,2.406296471,4.264605979,1
0.804654125,3.371126815,1.428979983,2.526497684,4.448558232,1
0.814735125,3.386362905,1.307096527,2.253802257,4.272654873,1
0.824816125,3.123720888,1.171395516,1.539216371,3.674096716,1
0.834896125,3.028299007,1.166118988,1.033789482,3.405752349,1
0.844977125,2.767994122,1.240629473,0.6401958543,3.100129623,1
0.855058125,3.028321811,1.441427536,0.5097122769,3.392381602,1
0.865139125,3.015372275,1.19573689,0.6265636557,3.303761293,1
0.875220125,2.47590962,1.093705316,0.3303255844,2.726799361,1
0.885301125,2.376929415,1.085133297,0.1366155159,2.616480751,1
0.895382125,2.243235753,1.103072555,-0.03245087743,2.499985753,1
0.905463125,1.947762205,1.321461382,0.1107532811,2.356332761,1
0.915544125,1.733615241,1.475464763,0.3706128637,2.306463086,1
0.925624125,1.36927348,1.616349331,0.4627334074,2.168321293,1
0.935705125,1.198046832,1.853874341,0.6955608004,2.314297109,1
0.945786125,1.106915053,1.865446565,0.4836822269,2.222408675,1
0.955867125,1.130901501,1.404226965,-0.2741829586,1.823723628,1
0.965948125,1.157596379,1.128326679,-0.9459192058,1.872942502,1
0.976029125,1.305139464,1.149898227,-1.027661526,2.02033244,1
0.986110125,1.450431371,1.088658584,-0.7086936468,1.947094081,1
0.996191125,1.587467009,0.9994979006,-0.4157001954,1.921419843,1
1.006271125,1.615698244,0.9765762305,-0.1912665536,1.897568139,1
1.016352125,1.637688745,1.060534061,-0.02664342284,1.951273121,1
1.026433125,1.66385942,1.322654214,0.2650244647,2.141980464,1
1.036514125,1.659385423,1.691989498,0.6578222128,2.45949558,1
1.046595125,1.628875237,1.878154904,0.7536389277,2.597820627,1
1.056676125,1.274304172,1.701064961,0.6938000576,2.23580671,1
1.066757125,0.8155465427,1.1522453,0.2597426748,1.435357674,1
1.076838125,0.6375154907,0.6730344021,-0.3925289223,1.006717568,1
1.086918125,0.5561269265,0.3671338069,-0.670714227,0.9454744655,1
1.096999125,0.5746362877,0.04057149053,-0.7378624821,0.9361057373,1
1.107080125,0.4896651345,-0.1716988099,-0.6702569016,0.8476418698,1
1.117161125,0.4758510876,-0.3003241056,-0.3715970597,0.6743242549,1
1.127242125,0.4855188739,-0.3094159412,0.03114738688,0.5765734657,1
1.137323125,0.4043799859,-0.0886601615,0.2665750732,0.4923881263,1
1.147404125,0.2738023049,0.3864670408,0.1798567721,0.5066289907,1
1.157485125,-0.02594731182,0.8491858667,-0.08454313695,0.8537783326,1
1.167566125,-0.2213492721,1.400035681,-0.2545228654,1.440096281,1
1.177646125,-0.5960385588,2.035956636,-0.5704035614,2.196757067,1
1.187727125,-0.767005882,2.635280453,-1.111591364,2.961188351,1
1.197808125,-1.031005915,2.842018118,-1.63960897,3.439237961,1
1.207889125,-1.194330342,3.038890361,-1.961008195,3.808783629,1
1.217970125,-1.367136322,3.264103473,-2.188944941,4.161119219,1
1.228051125,-1.409038639,3.309958507,-2.495551879,4.378241016,1
1.238132125,-1.27080666,3.30157477,-2.707673661,4.454979481,1
1.248213125,-0.9939053312,3.533456631,-2.69280653,4.552402726,1
1.258293125,-0.6242621917,3.628701342,-2.419909374,4.406034282,1
1.268374125,-0.3172734296,3.170803546,-1.921092178,3.720920949,1
1.278455125,0.07226690769,2.415631551,-1.179543099,2.689204384,1
1.288536125,0.2571693152,1.86075359,-0.6337077838,1.982454422,1
1.298617125,0.346759184,1.483183672,-0.02215685427,1.523340626,1
1.308698125,0.3991379571,1.011499311,0.490781368,1.19302486,1
1.318779125,0.3850979152,0.3811144996,0.9515413767,1.094979296,1
1.328860125,0.1507859507,-0.3418533701,1.192140267,1.249319233,1
1.338940125,0.241748161,-1.044289327,0.7269796443,1.295176349,1
1.349021125,0.1719788915,-1.697844899,0.2606782293,1.726327657,1
1.359102125,0.4443220237,-2.900538222,0.1333328891,2.9374005,1
1.369183125,1.197848612,-4.71359315,-0.04158196248,4.86359237,1
1.379264125,2.398847996,-6.653921497,0.09173535839,7.073723092,1
1.389345125,4.383346503,-9.114179583,0.83733875,10.14806052,1
1.399426125,6.37491751,-12.26558031,1.604022231,13.91606701,1
1.409507125,7.852945107,-15.10101914,2.322004765,17.17851077,1
1.419588125,8.145586556,-16.63968822,2.506758653,18.69528398,1
1.429668125,7.383454036,-16.93635021,2.261932079,18.61374999,1
1.439749125,6.399178777,-16.20153296,2.030146843,17.53740732,1
1.449830125,5.849484957,-15.31815082,2.327935596,16.56144628,1
1.459911125,5.886144075,-14.86696797,2.553535209,16.19240472,1
1.469992125,5.967221568,-14.261511,2.613941039,15.67900243,1
1.480073125,5.933673168,-13.4819263,2.46665494,14.93503266,1
1.490154125,5.574237805,-12.87574311,1.787325425,14.14395348,1
1.500235125,4.674473815,-12.26025116,1.036451134,13.16201713,1
1.510315125,3.315171593,-11.03606991,0.3830557752,11.52961115,1
1.520396125,1.500716549,-8.839149363,-0.1348834976,8.966655183,1
1.530477125,-0.2719531229,-5.906890581,-0.7137924919,5.956073754,1
1.540558125,-2.18950218,-2.999681271,-1.0923674,3.871081769,1
1.550639125,-3.857144749,0.05210570812,-1.052891093,3.998607291,1
1.560720125,-5.308792925,3.207255088,-0.641662336,6.235503033,1
1.570801125,-6.314756677,5.740074196,-0.336172727,8.540352204,1
1.580882125,-7.058923042,7.677373686,-0.3755474386,10.43606713,1
1.590963125,-7.35403494,9.54531175,-0.6320308024,12.06624503,1
1.601043125,-6.837896537,10.68309221,-1.39788449,12.760853,1
1.611124125,-5.999341493,11.06170761,-2.213358235,12.77702736,1
1.621205125,-5.105248425,11.22534428,-2.186438824,12.52407403,1
1.631286125,-4.065191021,10.77053147,-1.786691587,11.64999541,1
1.641367125,-3.409060627,9.540017096,-1.662338852,10.26630367,1
1.651448125,-3.114870835,8.027054724,-1.853970235,8.807566832,1
1.661529125,-2.98561287,6.407808098,-1.865673437,7.311267072,1
1.671610125,-3.116212479,5.058737918,-1.181485471,6.057847592,1
1.681691125,-3.43198639,4.341299175,0.1431533609,5.535874095,1
1.691771125,-3.477570114,3.963390119,1.480181712,5.476576762,1
1.701852125,-3.506035821,4.021448877,2.744561405,5.999746291,1
1.711933125,-3.381816695,4.674979892,3.019646589,6.51232575,1
1.722014125,-3.054843904,5.19438338,2.178364989,6.407726898,1
1.732095125,-2.746925142,5.959831272,0.8559369157,6.617991729,1
1.742176125,-2.369735001,7.20967888,-0.2899247595,7.594680368,1
1.752257125,-2.080322092,8.916650698,-1.37664331,9.259025137,1
1.762338125,-1.78931114,10.99309287,-1.883464175,11.2958914,1
1.772418125,-1.666416261,13.03065106,-2.061653395,13.29756462,1
1.782499125,-1.445118445,15.00392028,-2.077016954,15.21578097,1
1.792580125,-1.788195783,16.38273349,-1.753268902,16.57303692,1
1.802661125,-2.476727353,16.75350661,-1.922041765,17.04430716,1
1.812742125,-3.002175109,16.04866686,-2.40630992,16.50342664,1
1.822823125,-3.21948834,15.25326544,-2.6235065,15.80854193,1
1.832904125,-2.800981189,14.49507452,-1.811888555,14.87399144,1
1.842985125,-1.7555002,13.64390821,-0.04162523188,13.75644375,1
1.853066125,-0.4771079466,12.84170998,1.167443383,12.90349066,1
1.863146125,0.9838565987,12.06731994,1.124606096,12.15947874,1
1.873227125,1.909697708,10.76348441,0.1764333004,10.93300831,1
1.883308125,2.97591117,8.80493672,-1.622986506,9.434884373,1
1.893389125,4.887714169,5.785173186,-3.581818367,8.377792156,1
1.903470125,7.484557073,0.9599338853,-3.841794931,8.467553125,1
1.913551125,9.607134361,-5.275029933,-2.770863351,11.30489518,1
1.923632125,12.74766804,-11.29614938,-1.172292479,17.07279418,1
1.933713125,15.31227905,-16.16613158,3.175452082,22.49206962,1
1.943794125,13.59418933,-17.32456089,9.187140555,23.86097117,1
1.953874125,11.2213097,-17.51113853,12.83157325,24.43781978,1
1.963955125,5.918130099,-17.22646332,10.61519551,21.08216493,1
1.974036125,0.08134266347,-16.37793059,4.202400321,16.90867811,1
1.984117125,-1.902762618,-14.61984592,-2.511063373,14.95546186,1
1.994198125,0.1550593883,-10.95923164,-6.486837895,12.73608525,1
2.004279125,3.615842146,-7.308910807,-7.552696431,11.11475213,1
2.014360125,5.975918716,-5.589655159,-6.268867144,10.30798451,1
2.024441125,6.253332846,-5.806624281,-3.60287653,9.262924836,1
2.034522125,4.464659345,-7.239640013,-0.7653448342,8.5399838,1
2.044602125,1.783229451,-8.96543051,0.3890667129,9.149329178,1
2.054683125,-0.7752045554,-10.24391018,0.5611936851,10.28851672,1
2.064764125,-2.015964713,-9.891540592,0.987722193,10.14309046,1
2.074845125,-1.706787046,-8.219111785,1.670756503,8.559109057,1
2.084926125,-0.6677148977,-6.147032804,2.09921547,6.529820907,1
2.095007125,0.5124125576,-3.956955843,2.096240845,4.507137878,1
2.105088125,1.468148727,-1.797469175,2.231699051,3.219757253,1
2.115169125,1.633118853,-0.1359027404,2.189178244,2.734602006,1
2.125250125,0.7978265557,1.25279402,1.387568394,2.032576227,1
2.135331125,-0.6928991479,2.254538421,0.477219336,2.406406245,1
2.145411125,-1.775291563,2.678125926,-0.6280401508,3.273904861,1
2.155492125,-2.234000661,3.123738137,-1.348214294,4.070157329,1
2.165573125,-2.305187588,3.880264347,-1.376371999,4.718552861,1
2.175654125,-2.174987929,4.501412312,-0.8502640933,5.07111766,1
2.185735125,-2.019428896,4.981345925,-0.007444674969,5.375123786,1
2.195816125,-1.920659484,5.2817554,0.8990007088,5.691579327,1
2.205897125,-1.836726211,5.310789165,1.783957429,5.895807734,1
2.215978125,-1.831256726,5.152014456,2.297915406,5.931034426,1
2.226059125,-2.049461365,4.911859369,2.201907633,5.759778778,1
2.236139125,-2.430726723,4.522211443,1.688716811,5.404682525,1
2.246220125,-2.776895338,3.988303936,1.140515858,4.991842588,1
2.256301125,-2.823012036,3.587077938,0.7295261067,4.622632738,1
2.266382125,-2.565434585,3.173192718,0.3564825189,4.096057424,1
2.276463125,-2.261167117,2.837160836,-0.03790925324,3.628194517,1
2.286544125,-1.882364607,2.588172945,-0.2643665068,3.211203101,1
2.296625125,-1.428916833,2.025317627,-0.1090394622,2.481049055,1
2.306706125,-1.185925262,1.241093157,0.5213668375,1.794032979,1
2.316787125,-1.236422401,0.4414308679,1.162987804,1.75389344,1
2.326868125,-1.181527863,-0.3719869959,1.631124076,2.048157261,1
2.336948125,-0.8745695069,-1.032480875,2.155442149,2.544959614,1
2.347029125,-0.4632085302,-1.445738688,2.275004114,2.735025817,1
2.357110125,-0.108884511,-1.790433805,2.033982908,2.711935751,1
2.367191125,0.1481052947,-2.106663507,1.906510245,2.845126996,1
2.377272125,0.006144838929,-2.448965358,1.392918889,2.817391012,1
2.387353125,-0.5024883708,-2.604455686,0.634566082,2.727335347,1
2.397434125,-1.059745272,-2.511666806,-0.03172180273,2.726267862,1
2.407515125,-1.378538685,-2.380549427,-0.4294097234,2.784201356,1
2.417596125,-1.450966684,-2.0715539,-0.4867638923,2.575573522,1
2.427676125,-1.398388228,-1.59151913,-0.429186506,2.161625276,1
2.437757125,-1.24670473,-1.134179742,-0.3088639641,1.713485722,1
2.447838125,-1.226730933,-0.9228637075,-0.4925507355,1.612188709,1
2.457919125,-1.237056532,-0.914561246,-0.6323250635,1.663299769,1
2.468000125,-1.304787754,-0.9870813382,-0.6960825182,1.778013364,1
2.478081125,-1.317237938,-1.044494564,-0.8812153061,1.898058243,1
2.488162125,-1.054269062,-0.8548214132,-0.8003108914,1.575658728,1
2.498243125,-0.6846066266,-0.6204837209,-0.70814357,1.164110646,1
2.508324125,-0.4387893882,-0.5707847267,-0.7291644564,1.024700998,1
2.518405125,-0.3918605125,-0.5880234879,-0.667742672,0.9722173417,1
2.528485125,-0.3576543009,-0.6057762194,-0.4422464083,0.8309412209,1
2.538566125,-0.3461171597,-0.6272290689,-0.1013193834,0.7235184936,1
2.548647125,-0.5385218373,-0.8084746277,0.07734565303,0.974484142,1
2.558728125,-0.6536856732,-1.082554091,0.176668797,1.276886911,1
2.568809125,-0.6215216017,-1.169388751,0.3030737588,1.358533348,1
2.578890125,-0.5445146486,-0.9330594975,0.1934103987,1.097498889,1
2.588971125,-0.4954515392,-0.4422015309,-0.2446099345,0.7077064658,1
2.599052125,-0.6397631603,0.1757240331,-0.6675859666,0.9411943795,1
2.609133125,-0.8058074203,0.6859965098,-0.7130610783,1.276077157,1
2.619214125,-1.010068497,0.9572096676,-0.8000647236,1.605176713,1
2.629294125,-1.102900355,1.01051464,-1.041147033,1.822502722,1
2.639375125,-1.031891183,0.898552739,-1.40185972,1.958930094,1
2.649456125,-0.7268840423,0.6617691565,-1.636825696,1.909318513,1
2.659537125,-0.3363865158,0.2892781305,-1.502764243,1.566888029,1
2.669618125,0.147988058,-0.3168688023,-1.14137708,1.193753719,1
2.679699125,0.7317740688,-1.039496364,-0.3446291164,1.317123839,1
2.689780125,1.045358198,-1.6514221,0.4645530975,2.008924661,1
2.699860917,0.8130477351,-2.058991157,0.8961900254,2.388231096,1
2.709941917,0.5362823537,-2.359666681,1.216037107,2.708204544,1
2.720021917,0.3330515563,-2.343958721,1.347982598,2.724357338,1
2.730102917,0.1549208093,-2.03962284,0.987411048,2.271352541,1
2.740183917,0.0427589339,-1.672027103,0.6720697577,1.802548396,1
2.750264917,0.06886324346,-1.241111283,0.5989971037,1.379817703,1
2.760345917,0.1612322938,-0.8873442113,0.5596861267,1.061425533,1
2.770426917,0.1854005903,-0.6004412198,0.5091346085,0.8087775262,1
2.780507917,0.1629010892,-0.3803713185,0.4744670516,0.62955388,1
2.790588917,0.1764344698,-0.06631268799,0.3512514536,0.3986277441,1
2.800669917,0.1168589437,0.3265453595,0.120669428,0.3672179127,1
2.810750917,0.08284072012,0.706441884,-0.2408569723,0.7509559252,1
2.820830917,0.110113011,1.002039101,-0.6454222418,1.196986677,1
2.830911917,0.1416850519,1.226707252,-0.7960551417,1.469213778,1
2.840992917,0.1841551334,1.41425611,-0.6878956854,1.583424747,1
2.851073917,0.3161174351,1.589631649,-0.564347527,1.71620137,1
2.861154917,0.4598162681,1.70671688,-0.5693194145,1.856997066,1
2.871235917,0.6372585055,1.750421308,-0.7821183032,2.0203421,1
2.881316917,0.7498533672,1.67177158,-0.9309575696,2.055184246,1
2.891397917,0.9303534061,1.467389758,-0.7890694731,1.908250716,1
2.901478917,1.010956689,1.078006711,-0.5354125804,1.571877389,1
2.911558917,1.070627232,0.6922033292,-0.1649763391,1.285536974,1
2.921639917,1.181063887,0.3528005272,0.2035667199,1.24932763,1
2.931720917,1.200978626,0.0174451679,0.560443268,1.325424706,1
2.941801917,1.013589398,-0.2719352889,0.7506204488,1.290249328,1
2.951882917,0.8992421257,-0.4201206905,0.8929562227,1.335106217,1
2.961963917,0.7595568216,-0.3871067262,0.9338399546,1.26445057,1
2.972044917,0.6216996494,-0.3350232375,0.784069446,1.055232638,1
2.982125917,0.5732668698,-0.4076129115,0.5444832198,0.8895196267,1
2.992206917,0.5002012324,-0.4221683854,0.2709973955,0.7084257244,1
3.002287917,0.4991083878,-0.3234685546,0.2107604762,0.6310000531,1
3.012367917,0.6023240232,-0.2060102713,0.1643797038,0.6574611379,1
3.022448917,0.6804048175,-0.08468990207,0.2479897714,0.7291241471,1
3.032529917,0.6833316413,0.1643014973,0.2382803236,0.7421014935,1
3.042610917,0.8149425253,0.4509226531,0.1773155721,0.9481051475,1
3.052691917,0.9846562055,0.6788722622,0.2044350314,1.21334623,1
3.062772917,1.055951014,0.76074673,0.2278151232,1.321237246,1
3.072853917,1.004248763,0.658313452,0.1547845691,1.210723107,1
3.082934917,0.7309396711,0.6110930926,-0.1309911523,0.9616996686,1
3.093015917,0.4150698656,0.4979681808,-0.5187801754,0.8302940279,1
3.103095917,0.3077494848,0.2409602487,-0.6631612323,0.7697755562,1
3.113176917,0.1657492679,-0.06129811585,-0.7321006358,0.7531278907,1
3.123257917,-0.02249950111,-0.1400033927,-0.8032517485,0.8156718391,1
3.133338917,-0.07177194089,-0.09563764393,-0.8517534522,0.860105641,1
3.143419917,-0.002343856394,-0.07490224779,-0.7768073503,0.7804136723,1
3.153500917,0.07502854764,-0.07295395553,-0.8368015371,0.8433198533,1
3.163581917,0.06456583232,-0.04712855816,-0.8825939333,0.8862064651,1
3.173662917,0.08547927618,0.1156351215,-0.9440119171,0.954901402,1
3.183743917,0.108532801,0.2287489235,-0.9982361446,1.029845056,1
3.193824917,0.1833160579,0.2865720391,-1.053667091,1.107222945,1
3.203904917,0.2325917137,0.3349975097,-1.080130274,1.15455777,1
3.213985917,0.3234065741,0.4713744593,-0.9530183834,1.111318916,1
3.224066917,0.475199123,0.5845461488,-0.8078945839,1.104627569,1
3.234147917,0.5600632721,0.564794839,-0.6219981498,1.009725595,1
3.244228917,0.5169418108,0.2868293166,-0.3750966183,0.7001409613,1
3.254309917,0.3220529437,0.1442063713,-0.1246437804,0.3742320778,1
3.264390917,0.2266702384,0.2006279093,-0.01411590949,0.3030350043,1
3.274471917,0.2138449556,0.2723872787,-0.124693628,0.3680665639,1
3.284552917,0.1890855056,0.3814758575,-0.2421122964,0.4897913049,1
3.294633917,0.1357372642,0.300867312,-0.2299984735,0.4022996919,1
3.304713917,0.1196714544,0.2035491782,-0.2872305818,0.3718264811,1
3.314794917,0.2320593247,0.2030223441,-0.4771415681,0.5680965396,1
3.324875917,0.3457183796,0.4054611361,-0.6808807808,0.8645915617,1
3.334956917,0.3469673449,0.6176437283,-0.8365434556,1.096209408,1
3.345037917,0.1885232958,0.7352066767,-0.8341006351,1.127738338,1
3.355118917,-0.0929660511,0.7245097804,-0.7766464788,1.066178626,1
3.365199917,-0.3592321721,0.7577979791,-0.7998137319,1.15888202,1
3.375280917,-0.4899639273,0.7678879344,-0.8141692311,1.221715215,1
3.385361917,-0.6034867421,0.7821978253,-0.7925131908,1.266533396,1
3.395441917,-0.7179120746,0.7784737337,-0.6151319106,1.224665819,1
3.405522917,-0.8013328385,0.8443823791,-0.6022380692,1.310651217,1
3.415603917,-1.061578374,0.9241512644,-0.6999415344,1.571916777,1
3.425684917,-1.387791319,1.094728578,-0.9197562048,1.99257293,1
3.435765917,-1.748493481,1.397620781,-1.178453251,2.529688789,1
3.445846917,-2.103581732,1.515387213,-1.411683481,2.952000128,1
3.455927917,-2.229394809,1.640618784,-1.458122506,3.128570353,1
3.466008917,-2.105495233,1.88651116,-1.252285166,3.091965826,1
3.476089917,-1.813198185,2.179170735,-0.9953569025,3.004531263,1
3.486170917,-1.524487527,2.39322736,-0.8371641375,2.95845284,1
3.496250917,-1.348263557,2.611096369,-0.6350334938,3.006477408,1
3.506331917,-1.245685268,2.777868315,-0.3721854358,3.067051705,1
3.516412917,-1.22271185,2.768160768,-0.1755088556,3.031260738,1
3.526493917,-1.201644039,2.732846509,-0.05878271677,2.985942706,1
3.536574917,-1.055586732,2.520173335,-0.1169291834,2.73481433,1
3.546655917,-0.829300071,2.203771725,-0.220154686,2.364913637,1
3.556736917,-0.5469254556,1.727768025,-0.2370135243,1.827699432,1
3.566817917,-0.2449930733,1.179810829,-0.2354252744,1.227762297,1
3.576898917,-0.04500338763,0.9150038803,-0.3258688366,0.9723414547,1
3.586979917,0.06209070593,0.9147296458,-0.3730419798,0.9898211452,1
3.597059917,0.255533849,0.802516315,-0.1254980586,0.8515161458,1
3.607140917,0.4698465818,0.3415463912,0.6018239401,0.8364220243,1
3.617221917,0.5513930207,-0.3370826268,1.502923872,1.635982618,1
3.627302917,0.8087014997,-1.032949821,2.397565263,2.733002495,1
3.637383917,1.198160561,-1.556581432,3.014188798,3.597758829,1
3.647464917,1.593993672,-1.895374369,2.877492591,3.796475133,1
3.657545917,1.88447896,-2.308079621,2.346195281,3.792509035,1
3.667626917,1.998048552,-2.640017867,1.568515599,3.663623007,1
3.677707917,2.202761619,-2.947776123,0.6128167056,3.730561236,1
3.687788917,2.696362514,-3.508852133,0.09688353941,4.42626259,1
3.697869042,3.67195729,-4.389899477,0.1295544183,5.724619822,1
3.707950042,4.978697137,-5.63385777,0.09599373937,7.519108547,1
3.718031042,6.178327687,-7.576109852,0.08682369724,9.776334275,1
3.728112042,7.149435017,-10.07018239,0.4455114935,12.35805304,1
3.738193042,7.566148535,-12.35581455,1.139270109,14.53308959,1
3.748274042,7.269340945,-13.74256009,2.001669733,15.6750744,1
3.758355042,6.579013987,-14.2510515,2.576166272,15.90636749,1
3.768436042,6.033387491,-14.24903305,2.320029575,15.64670076,1
3.778517042,6.013346159,-13.74626606,1.899207219,15.12372806,1
3.788597042,6.336686075,-12.97708355,1.344424713,14.50399137,1
3.798678042,6.761650599,-12.09750093,0.4469868922,13.86611859,1
3.808759042,7.078933969,-11.21293415,-0.3776340906,13.26588881,1
3.818840042,6.942124325,-10.26769548,-0.8387759225,12.4226489,1
3.828921042,6.070357681,-8.921976342,-0.7517133665,10.81739235,1
3.839002042,4.621515291,-7.432020425,-0.03261759616,8.751822386,1
3.849083042,2.591678935,-5.704134285,0.9231098753,6.332936088,1
3.859164042,-0.08658089161,-3.722404143,2.014061152,4.233229403,1
3.869245042,-3.221077321,-1.413601221,2.965231231,4.600674274,1
3.879326042,-5.734129332,1.416466942,3.224694409,6.729433247,1
3.889406042,-7.241393593,3.961181041,2.714928301,8.689048975,1
3.899487042,-8.103248622,5.529817092,1.396872922,9.909226471,1
3.909568042,-8.844304853,6.557026702,-0.7549967243,11.03568519,1
3.919649042,-9.594368135,7.419390439,-2.596481838,12.40326458,1
3.929730042,-9.947033007,7.991205445,-3.791076182,13.31071331,1
3.939811042,-9.716147511,8.43375547,-4.413259689,13.60178719,1
3.949892042,-9.175412795,8.690569274,-4.436271406,13.3938306,1
3.959973042,-8.442778893,8.601585762,-3.873564023,12.65986932,1
3.970054042,-7.606693713,8.227568028,-2.921989317,11.57983966,1
3.980134042,-6.692653454,7.601565705,-2.006496171,10.32479725,1
3.990215042,-5.688261434,6.977920979,-0.9735276385,9.055134201,1
4.000296042,-4.795105967,6.603317354,-0.07440998532,8.161028009,1
4.010377042,-4.128686228,6.402131621,0.3609269875,7.626506903,1
4.020458042,-3.598332074,6.483095677,0.3599705292,7.423483148,1
4.030539042,-3.169012544,6.605747457,0.2677861047,7.331456156,1
4.040620042,-2.914002313,6.812648259,0.3960985744,7.420274918,1
4.050701042,-2.933521196,7.116571911,0.6100600357,7.721613537,1
4.060782042,-2.999571051,7.542509412,0.9211678688,8.169175292,1
4.070863042,-3.154128748,7.948386285,1.272844707,8.645548354,1
4.080943042,-3.50349813,8.383538412,1.466725515,9.203776355,1
4.091024042,-4.070604081,9.143287023,1.545847698,10.12714966,1
4.101105042,-4.407994856,10.33266156,1.573903223,11.3433454,1
4.111186042,-4.620701066,11.76697186,1.225998424,12.70100694,1
4.121267042,-4.890149242,13.17273372,0.6886054643,14.06800095,1
4.131348042,-4.838142936,13.88500411,0.3722571373,14.70848536,1
4.141429042,-4.61446501,13.74381958,0.1662778562,14.49874175,1
4.151510042,-4.587760777,13.12201965,-0.359042503,13.90553344,1
4.161591042,-4.303867639,11.86509048,-1.121337064,12.67126851,1
4.171671042,-3.71672825,9.233904832,-2.331059178,10.2231553,1
4.181752042,-2.927783908,5.432671452,-3.658542023,7.174313029,1
4.191833042,-1.849796492,1.0125407,-3.893819363,4.428184161,1
4.201914042,-0.713336336,-3.09414421,-2.918620736,4.312878867,1
4.211995042,0.2902303496,-6.024081062,-1.288497119,6.167172052,1
4.222076042,1.882215795,-7.712197949,0.3466165119,7.946123363,1
4.232157042,3.991986512,-9.066199086,2.072945684,10.1207226,1
4.242238042,5.512384204,-10.15790465,3.889868399,12.19428074,1
4.252319042,4.96597535,-9.966210705,5.270556813,12.31929528,1
4.262399042,2.750565326,-8.172176185,5.165085906,10.05127781,1
4.272480042,0.6026295403,-5.901895305,3.866375456,7.081270346,1
4.282561042,-0.3445474747,-4.415224353,1.760112337,4.765596971,1
4.292642042,0.6282076004,-4.783206006,-1.235114525,4.979880759,1
4.302723042,2.578871194,-6.639694052,-3.895810339,8.118709993,1
4.312804042,5.326394799,-8.24513014,-5.529038243,11.26600712,1
4.322885042,8.577758358,-9.53888683,-5.678687788,14.0291053,1
4.332966042,11.00497558,-9.891542931,-4.080215149,15.34927571,1
4.343047042,11.09308844,-8.536007484,-1.711833193,14.10143283,1
4.353128042,10.61452893,-6.642006626,0.5546165907,12.53363778,1
4.363208042,10.47004657,-5.698375363,3.490790083,12.42090867,1
4.373289042,7.546640469,-3.835388721,4.909122287,9.785779001,1
4.383370042,5.502198939,-2.788429556,5.297196727,8.130794901,1
4.393451042,3.821120638,-3.131802617,5.156785784,7.141539763,1
4.403532042,2.490224481,-3.943857495,3.921110657,6.093466886,1
4.413613042,1.502330088,-4.394965505,2.113146899,5.102754874,1
4.423694042,0.9180868247,-4.309492076,0.7843694081,4.475471008,1
4.433775042,0.9852654853,-4.015034482,-0.3925903181,4.152755365,1
4.443856042,1.217628281,-3.164518958,-1.11153947,3.5682375,1
4.453936042,1.384570673,-1.788182627,-1.262814978,2.590238353,1
4.464017042,1.219085407,-0.3343765354,-0.7708711839,1.480614493,1
4.474098042,0.6285710049,1.045740021,-0.1182329663,1.225827367,1
4.484179042,0.09126304954,2.417529557,0.2478049994,2.43190983,1
4.494260042,-0.2785710016,3.557919627,0.4222712233,3.593703781,1
4.504341042,-0.5174399936,4.355372254,0.4122756274,4.40533572,1
4.514422042,-0.736629889,4.750818864,-0.04570424952,4.807805356,1
4.524503042,-0.9859554568,4.714193074,-0.9343944899,4.905998121,1
4.534584042,-1.081019781,4.67858587,-1.764919479,5.115927118,1
4.544665042,-1.167284338,4.769615908,-2.152456415,5.361423062,1
4.554745042,-1.080454063,4.838466872,-2.255195648,5.446471341,1
4.564826042,-0.7042851385,4.818600372,-2.178523302,5.334874964,1
4.574907042,-0.608988972,4.538190129,-2.163521247,5.064273038,1
4.584988042,-0.5962902814,4.034351928,-2.103472681,4.588698606,1
4.595069042,-0.534176479,3.149899165,-1.96902999,3.752903991,1
4.605150042,-0.4710028687,1.998484755,-1.678506403,2.65201221,1
4.615231042,-0.4650901642,1.024954339,-1.26215015,1.691113023,1
4.625312042,-0.5575282118,0.2783993858,-1.064450599,1.233450041,1
4.635393042,-0.7066301644,-0.2523962331,-0.8602143732,1.141489735,1
4.645473042,-0.8563235629,-0.6325997365,-0.6305134499,1.237343801,1
4.655554042,-0.676636287,-0.9513829172,-0.4770006502,1.26114858,1
4.665635042,-0.3021800119,-1.346342454,-0.7009723985,1.547679898,1
4.675716042,0.06977862507,-1.78034268,-0.7756430966,1.943221894,1
4.685797042,0.4365232998,-2.156229184,-0.474903327,2.250646586,1
4.695878042,0.8821890137,-2.616352431,-0.1255800658,2.763933402,1
4.7059585,1.333240598,-3.186275278,0.1955519414,3.459497247,1
4.7160395,1.374507615,-3.519700472,0.4200574674,3.801843089,1
4.7261205,1.014425842,-3.39270538,0.6543653389,3.601069783,1
4.7362005,0.316024172,-2.846060883,0.7661442947,2.964272408,1
4.7462815,-0.3500815719,-2.101235536,0.6368055656,2.2233464,1
4.7563625,-0.715157159,-1.176438739,0.5130159903,1.469232206,1
4.7664435,-0.7983428648,-0.1463213092,0.3346121051,0.8779103122,1
4.7765245,-0.8266515747,0.7773060447,0.2166234794,1.155198357,1
4.7866055,-0.6823814687,1.532879158,-0.05194315553,1.678708156,1
4.7966865,-0.4678939041,2.037605551,-0.3404302309,2.118172285,1
4.8067675,-0.2090049228,2.412172923,-0.5928380853,2.492733091,1
4.8168485,0.03111537337,2.750043755,-0.8219852042,2.870430019,1
4.8269285,0.2626896715,2.958899281,-0.9007483685,3.104100263,1
4.8370095,0.5189284024,2.939510499,-0.8650020003,3.107770442,1
4.8470905,0.7735135406,2.658897357,-0.7511672366,2.869200336,1
4.8571715,1.027866837,2.202905168,-0.5777440828,2.498617545,1
4.8672525,1.130277895,1.58943986,-0.3724588662,1.985591296,1
4.8773335,1.121834808,1.028075582,-0.1651061473,1.530592297,1
4.8874145,1.198505546,0.385958333,0.1096101505,1.263880439,1
4.8974955,1.168097101,-0.5506451619,0.3073742397,1.32745616,1
4.9075765,0.9489381963,-1.274349196,0.4739418255,1.658032095,1
4.9176575,0.5329570422,-1.547931646,0.6077618607,1.746284647,1
4.9277375,0.1882522774,-1.538065054,0.7102144345,1.704549082,1
4.9378185,-0.1052229846,-1.546014928,0.8653925943,1.774862918,1
4.9478995,-0.5066197211,-1.656707983,0.9478476906,1.974781033,1
4.9579805,-0.940364424,-1.543531616,0.8977393913,2.018095913,1
4.9680615,-1.270231587,-1.233857812,0.6154182049,1.874735435,1
4.9781425,-1.467223113,-0.9561805576,0.2507215905,1.76914845,1
4.9882235,-1.556490215,-0.7092473781,-0.1814576666,1.720064103,1
4.9983045,-1.468069789,-0.4063230157,-0.6105171418,1.641054076,1
5.0083855,-1.299946552,-0.1121694767,-0.9740701139,1.628267673,1
5.0184655,-1.029041542,0.2406895226,-1.172529437,1.578506643,1
5.0285465,-0.7256289375,0.5729517049,-1.190756305,1.507551521,1
5.0386275,-0.4367267829,0.7949231207,-1.094262555,1.421282375,1
5.0487085,-0.2016593581,0.8511312354,-0.8819986868,1.242180567,1
5.0587895,-0.03862202883,0.803631379,-0.5599755639,0.9802487881,1
5.0688705,0.08510973215,0.6974786872,-0.1975848721,0.7299040808,1
5.0789515,0.1721671718,0.4251960737,0.1134967947,0.4725619097,1
5.0890325,0.1373288763,0.03828815281,0.3495032823,0.3774622461,1
5.0991135,0.001611492634,-0.3149006295,0.3559586084,0.4752594389,1
5.1091935,-0.2108453339,-0.663404038,0.3137599108,0.7635482657,1
5.1192745,-0.4034520328,-0.9345312417,0.3230703592,1.067940374,1
5.1293555,-0.4950656229,-1.016118611,0.4038641884,1.200288834,1
5.1394365,-0.4152487904,-0.8430457056,0.5267177707,1.07730647,1
5.1495175,-0.1988503557,-0.4367764843,0.545040094,0.7262119975,1
5.1595985,-0.01499752343,-0.02799763799,0.4258514734,0.4270342736,1
5.1696795,0.103105123,0.3396179795,0.4336738785,0.560396352,1
5.1797605,0.1325019997,0.5736644804,0.3996441798,0.7115920085,1
5.1898415,0.09560899258,0.6703008288,0.2517967473,0.7223890105,1
5.1999215,0.02774620771,0.6068579543,0.06224361062,0.6106723309,1
5.2100025,0.01690488517,0.5656918019,-0.01423797011,0.566123405,1
5.2200835,0.1268793172,0.6393895233,-0.004425903708,0.6518718526,1
5.2301645,0.2164744484,0.642397331,-0.0447896719,0.6793685542,1
5.2402455,0.2413180983,0.5098415369,-0.175789595,0.5908255233,1
5.2503265,0.3341420621,0.3524958873,-0.1873656933,0.5205863725,1
5.2604075,0.3842532849,0.1603207129,-0.01563384667,0.4166506152,1
5.2704885,0.3818851626,0.04058844745,0.1864600327,0.426908706,1
5.2805695,0.3454874146,-0.04600823164,0.3334906822,0.4823840235,1
5.2906505,0.2321368003,-0.1172863752,0.4724936163,0.5393457197,1
5.3007305,0.1683337373,-0.0647970897,0.5769984897,0.6045346699,1
5.3108115,0.1051668513,0.08125349343,0.688648149,0.701354739,1
5.3208925,0.09496404469,0.1879447138,0.6909328754,0.7223085377,1
5.3309735,0.09059442043,0.1984521604,0.5864418161,0.6257032944,1
5.3410545,0.1008089215,0.2154751593,0.4710750818,0.5277345125,1
5.3511355,-0.009912784696,0.1857321274,0.2235811543,0.2908319429,1
5.3612165,-0.1069227701,0.1666631877,-0.004028804675,0.1980538517,1
5.3712975,-0.06543794453,0.2277344316,-0.05842362463,0.2440459298,1
5.3813785,0.01866957486,0.3428269315,-0.1334625511,0.3683627431,1
5.3914585,0.05084095538,0.4340844262,-0.195982735,0.4789815489,1
5.4015395,0.1025437903,0.4821824527,-0.3458863409,0.6022063661,1
5.4116205,0.1521860665,0.5259810215,-0.3569608942,0.6536342355,1
5.4217015,0.2497234708,0.5008876956,-0.2698548496,0.6213468719,1
5.4317825,0.3755415183,0.4892938364,-0.03884524629,0.6180200995,1
5.4418635,0.4683684057,0.5458030826,0.1848567262,0.7425913934,1
5.4519445,0.5873551512,0.4937061453,0.1374541529,0.7795033519,1
5.4620255,0.5690469342,0.3699492413,-0.1298532841,0.6910417715,1
5.4721065,0.5039153838,0.2236507362,-0.3279739074,0.6414961027,1
5.4821875,0.4904293656,0.03308705449,-0.4548538093,0.6697071775,1
5.4922675,0.4557869518,-0.0803389889,-0.5270610023,0.7014195596,1
5.5023485,0.445063743,-0.08773805559,-0.575273488,0.7326112801,1
5.5124295,0.4326284695,-0.008400110006,-0.4710920388,0.6396605845,1
5.5225105,0.3369650978,0.05592452466,-0.2942162503,0.4508172929,1
5.5325915,0.2613807723,0.09695385218,-0.08856602132,0.2925130727,1
5.5426725,0.2305522048,0.1747305912,0.04051828086,0.2921075654,1
5.5527535,0.2375706178,0.2623236358,0.174352861,0.3945280833,1
5.5628345,0.363112092,0.3604141867,0.2897733897,0.587977376,1
5.5729155,0.4282372105,0.4285646546,0.2076207407,0.6404382434,1
5.5829955,0.3908238012,0.3952659309,0.02950505018,0.5566407708,1
5.5930765,0.4293303475,0.3919745332,0.002791387662,0.5813573546,1
5.6031575,0.3554905388,0.435918113,0.1580958474,0.584287961,1
5.6132385,0.2333112136,0.5271370161,0.2843430805,0.6427740999,1
5.6233195,0.1264594871,0.6336703616,0.2034024131,0.6774235534,1
5.6334005,0.07863101721,0.8343830556,-0.02014424264,0.8383219613,1
5.6434815,0.0135529688,0.9246359986,-0.1576082627,0.9380702412,1
5.6535625,-0.004997615218,0.9016225272,-0.3010088146,0.9505548192,1
5.6636435,-0.1217922395,0.9137964302,-0.3497493039,0.98599282,1
5.6737235,-0.2515843472,0.9923666364,-0.244483854,1.052548612,1
5.6838045,-0.4548546132,1.120941061,-0.08545135573,1.212725656,1
5.6938855,-0.6535389081,1.20110171,0.1323258524,1.373778932,1
5.703967375,-0.8529377326,1.433070695,0.25317976,1.686800043,1
5.714048375,-1.035280229,2.006090813,0.2889631118,2.275896567,1
5.724129375,-1.218405083,2.572079653,0.2638859387,2.858275787,1
5.734210375,-1.308524417,2.965448747,0.1631876028,3.245420253,1
5.744291375,-1.46239799,3.204007545,-0.03913015187,3.522187303,1
5.754372375,-1.677411219,3.323197188,-0.2701407784,3.732334925,1
5.764453375,-1.885970584,3.308918288,-0.5179989874,3.84371542,1
5.774533375,-2.015862095,3.316360039,-0.4760955012,3.910065322,1
5.784614375,-2.055070892,3.490708807,-0.4986597602,4.081301986,1
5.794695375,-1.997020904,3.774733799,-0.5667853043,4.307894303,1
5.804776375,-1.743935869,3.742555987,-0.8818640547,4.222051852,1
5.814857375,-1.469164096,3.475809517,-1.256449699,3.977230291,1
5.824938375,-1.204852114,3.244739249,-1.40398796,3.735128325,1
5.835019375,-0.9251373973,3.065232067,-1.077578256,3.378269043,1
5.845100375,-0.7004028797,2.654328927,-0.8383872288,2.870351789,1
5.855181375,-0.6526241112,1.791319658,-0.6989779133,2.03059461,1
5.865261375,-0.770024507,0.613355965,-0.4210099058,1.07069726,1
5.875342375,-0.9788434884,-0.5779358715,-0.02175054587,1.13693339,1
5.885423375,-1.110330119,-1.380459788,0.6988597995,1.904444071,1
5.895504375,-0.6055157259,-1.722977986,1.725204606,2.512296433,1
5.905585375,0.7009323451,-1.760524127,2.562946887,3.187388916,1
5.915666375,2.517515483,-1.664811054,2.496531873,3.916905851,1
5.925747375,4.438971065,-1.591006329,1.49417293,4.946546068,1
5.935828375,5.862800821,-2.199175814,-0.1351894531,6.263152873,1
5.945909375,6.491428544,-3.373586739,-2.081592985,7.606100274,1
5.955990375,7.481897174,-4.477096666,-3.211983147,9.291932824,1
5.966070375,8.520021197,-6.138238592,-3.383695405,11.03259393,1
5.976151375,9.222637832,-8.29751593,-2.898072451,12.73988395,1
5.986232375,9.521501303,-10.51790369,-1.496988364,14.26626297,1
5.996313375,9.627676799,-12.66265888,0.7823270488,15.92630296,1
6.006394375,10.06443106,-14.87388756,2.386358635,18.11684331,1
6.016475375,10.16406294,-16.39024015,3.285039428,19.56373256,1
6.026556375,9.804757386,-16.95498529,4.160643016,20.02288051,1
6.036637375,9.199976948,-17.04976514,5.174567167,20.05268592,1
6.046718375,8.673555046,-16.73463063,5.988519466,19.77727951,1
6.056799375,8.196519313,-15.70288475,5.778468184,18.63207484,1
6.066879375,8.179413283,-13.80400146,5.158783193,16.85426658,1
6.076960375,7.679827763,-11.4174487,4.454044018,14.46293184,1
6.087041375,6.844891561,-9.383374867,3.637330663,12.17088488,1
6.097122375,5.102441761,-8.103996481,2.474563299,9.891063361,1
6.107203375,2.407975792,-6.972269645,1.398250526,7.507729081,1
6.117284375,-0.7972842264,-5.171887388,1.476837105,5.437382562,1
6.127365375,-3.826625499,-2.790954384,2.521456214,5.365652851,1
6.137446375,-6.428678564,-0.385063709,3.438853945,7.300814927,1
6.147527375,-8.761627563,1.963509634,3.996854904,9.828343541,1
6.157607375,-10.71428126,4.28082961,4.049578078,12.22785376,1
6.167688375,-11.70668941,6.027079514,2.171244103,13.34490784,1
6.177769375,-11.65273832,7.376825048,-0.8681074566,13.81873615,1
6.187850375,-10.5484051,8.48026013,-3.654341968,14.01919674,1
6.197931375,-9.065340714,9.520912489,-5.431112584,14.22410492,1
6.208012375,-7.614529567,10.36242155,-6.010272862,14.19451375,1
6.218093375,-6.530917715,10.67126914,-6.010213805,13.87989702,1
6.228174375,-5.77556738,10.13283647,-6.146414169,13.18370057,1
6.238255375,-5.286658291,9.04268977,-6.146257464,12.14477151,1
6.248336375,-4.810333871,7.506520384,-5.296869868,10.37034188,1
6.258416375,-4.408412932,6.201165158,-3.81465274,8.511176735,1
6.268497375,-4.392982422,5.846982933,-2.231517348,7.646252262,1
6.278578375,-4.391628791,5.909979665,-0.9112746723,7.419210511,1
6.288659375,-4.541829436,5.694123852,0.04173494026,7.283749232,1
6.298740375,-4.70260974,5.519092129,0.8628829694,7.302019126,1
6.308821375,-4.726183375,5.506704218,0.8612950118,7.307696609,1
6.318902375,-4.441460517,5.567494796,-0.2950094251,7.128155469,1
6.328983375,-4.03755094,6.267954978,-2.219573826,7.779176381,1
6.339064375,-3.856158031,7.256968821,-4.039442514,9.156999894,1
6.349145375,-3.672475938,7.841962282,-4.203773248,9.625755111,1
6.359225375,-3.638973731,8.104474783,-2.690589266,9.282451827,1
6.369306375,-4.158194786,8.057014103,-0.6707534033,9.091532889,1
6.379387375,-5.172420069,8.139304892,1.027051077,9.698301264,1
6.389468375,-6.078792874,8.515095502,1.790447254,10.61434292,1
6.399549375,-6.580574609,9.279235371,2.535257982,11.65485754,1
6.409630375,-6.54676133,10.77594248,1.437706368,12.69046965,1
6.419711375,-5.434544899,12.48734532,-0.3328310432,13.62273276,1
6.429792375,-3.765893394,14.08315338,-2.313232772,14.76035935,1
6.439873375,-2.830115818,14.96160398,-4.244409642,15.80740847,1
6.449954375,-2.301059453,14.50773024,-5.450733501,15.66778883,1
6.460034375,-1.697102011,13.04460836,-5.646987108,14.31539123,1
6.470115375,-0.3247259983,11.18554111,-4.538796485,12.07569669,1
6.480196375,1.240201749,8.971663642,-3.124250938,9.580698973,1
6.490277375,2.583188778,5.406184734,-2.447612312,6.47228736,1
6.500358375,4.622126909,-0.3411417639,-1.390023494,4.838656857,1
6.510439375,7.839905816,-7.720758272,0.5180182102,11.01556056,1
6.520520375,9.888301234,-14.51648586,2.01112585,17.67912583,1
6.530601375,9.349368045,-18.01508548,3.940575453,20.67564081,1
6.540682375,8.513936584,-17.56240691,6.800074992,20.66800118,1
6.550763375,7.643358679,-14.28007124,8.261618119,18.18229084,1
6.560843375,5.618228747,-10.24162041,7.204684773,13.72453152,1
6.570924375,2.869374609,-7.291125916,3.655516673,8.646191643,1
6.581005375,1.099335307,-5.855865439,-1.323547084,6.103398646,1
6.591086375,0.6364562675,-5.125591473,-5.464031239,7.518803223,1
6.601167375,1.208427687,-4.564982071,-7.579888907,8.930513682,1
6.611248375,2.125546505,-4.350556487,-6.725154617,8.286917057,1
6.621329375,2.817118335,-4.784716927,-3.873544727,6.770082757,1
6.631410375,3.415555129,-5.641187255,-0.778762513,6.640442872,1
6.641491375,3.614909222,-6.47643219,1.911489295,7.659342917,1
6.651572375,3.131735667,-6.867840713,4.000557945,8.542802129,1
6.661652375,2.20366209,-6.39958165,5.030200582,8.432893323,1
6.671733375,1.061590945,-5.54256987,4.318797335,7.106269522,1
6.681814375,0.06783851892,-4.684715506,2.640617207,5.378105676,1
6.691895375,-0.6326655176,-3.775299225,0.8033466196,3.911331702,1
6.701975375,-0.9765075257,-2.844879161,-1.06664389,3.19133727,1
6.712056375,-0.6711562765,-1.712686887,-2.37997713,3.007995722,1
6.722137375,0.2402284697,-0.4865555853,-3.119849154,3.166686723,1
6.732218375,0.8519577393,0.5623249751,-3.109226518,3.272511406,1
6.742299375,1.01764795,1.162497223,-2.490879369,2.931123876,1
6.752380375,0.5596741399,1.057463104,-1.34319212,1.798785265,1
6.762460375,-0.1496068597,0.4939166451,-0.1048103173,0.5266128249,1
6.772541375,-0.6374736831,-0.1570480263,1.038123949,1.228307011,1
6.782622375,-1.056142218,-0.7666693747,1.852544684,2.266084756,1
6.792703375,-1.469713442,-1.237323457,1.895222926,2.698684286,1
6.802784375,-1.666460554,-1.594410578,1.649580081,2.835551148,1
6.812865375,-1.469463181,-1.927727013,1.233645705,2.719804258,1
6.822946375,-1.253897682,-1.840100639,0.5705992969,2.298654676,1
6.833027375,-1.310415407,-1.615116153,-0.1343130286,2.084185384,1
6.843108375,-1.430422491,-1.314669256,-0.6105253279,2.036468741,1
6.853189375,-1.550811399,-0.9815136194,-0.8395438081,2.018221689,1
6.863269375,-1.713466321,-0.6037928438,-0.7494294441,1.965242255,1
6.873350375,-1.868570732,-0.07868598104,-0.4742881268,1.929429266,1
6.883431375,-1.909303899,0.526809572,-0.4087414241,2.022384546,1
6.893512375,-1.949136593,0.9685240299,-0.717479673,2.291713188,1
6.903593375,-1.711109308,1.103438006,-0.9653379551,2.25329711,1
6.913674375,-1.171331781,1.225833678,-0.7869066612,1.869199947,1
6.923755375,-0.5914841625,1.36178612,-0.326966359,1.520270355,1
6.933836375,-0.1268980283,1.503565897,-0.0199097693,1.509042715,1
6.943917375,0.2241661683,1.703452964,0.037300485,1.718544092,1
6.953998375,0.3020244759,1.807383714,-0.2463285774,1.848927376,1
6.964078375,0.3474009159,1.782316115,-0.2274438981,1.830046136,1
6.974159375,0.221461831,1.679094633,0.03506041668,1.693999221,1
6.984240375,0.006496841311,1.415512676,0.1179517883,1.420433374,1
6.994321375,-0.07176492423,0.9739695418,0.02021141253,0.9768190077,1
7.004402375,-0.1536057705,0.4638368136,-0.2382798851,0.5436144093,1
7.014483375,-0.1321309939,-0.1168536812,-0.4496299068,0.4829911339,1
7.024564375,0.04937038064,-0.7368082291,-0.2470654728,0.7786945157,1
7.034645375,0.1686942181,-1.185301949,0.141800169,1.205614257,1
7.044726375,0.0336647594,-1.482773783,0.2944559131,1.512103069,1
7.054806375,-0.2056573918,-1.484053738,0.5495212539,1.595833346,1
7.064887375,-1.100731622,-0.9158166432,0.1939831334,1.444977399,1
7.074968375,0.3609603167,-1.910927378,0.3754696707,1.980634562,1
7.085049375,0.5573697522,-2.449274676,0.8363787834,2.647477469,1
7.095130375,-0.05764155954,-1.705651517,1.158302431,2.062579494,1
7.105211375,-0.2902651405,-1.135096586,0.9885869962,1.532971741,1
7.115292375,-0.3664254168,-0.8054890394,0.8954175351,1.258909346,1
7.125373375,-0.3849423793,-0.4230507302,0.6919753609,0.8977652565,1
7.135454375,-0.4575972497,0.3354629481,0.3389549053,0.6609243983,1
7.145535375,-0.3931261423,1.000752128,-0.5082399114,1.189269017,1
7.155615375,-0.1613433909,1.140616357,-1.022460501,1.540280118,1
7.165696375,0.2496290383,1.176128837,-1.22833921,1.71883999,1
7.175777375,0.3391464016,1.330994682,-1.337934743,1.917455736,1
7.185858375,0.1350955322,1.586186469,-1.130545113,1.952529275,1
7.195939375,0.388613846,1.515775468,-0.4455169388,1.626985351,1
7.206020375,0.5687153971,1.096393865,-0.179582026,1.24810513,1
7.216101375,0.6554924628,0.3898590106,-0.0578055374,0.7648541672,1
7.226182375,0.5233059204,-0.1241568536,0.2928297293,0.6123832631,1
7.236263375,0.2199573424,-0.1222453988,0.5942507726,0.6453364632,1
7.246343375,-0.5846511063,-0.2258615685,0.7898927611,1.008345644,1
7.256424375,0.01349654317,-0.2314099914,0.322899584,0.3974882163,1
7.266505375,0.6277997571,-0.05469660938,0.04272498351,0.631624634,1
7.276586375,0.5705031833,-0.3574514025,0.203408772,0.7032926246,1
7.286667375,0.3595330113,-0.8530894679,0.4848247729,1.045026644,1
7.296748375,0.2643982279,-1.002626161,0.6723327363,1.235798102,1
7.306829375,0.2530780184,-0.7611905336,0.5971960151,1.000051295,1
7.316910375,0.5427280319,-0.3725313717,0.3559316747,0.7483453057,1
7.326991375,0.4219798127,0.1274394804,0.06743180852,0.4459314211,1
7.337071375,0.1871319509,0.5013484561,-0.3334568415,0.6305252625,1
7.347152375,0.5153354345,0.5297793728,-0.6306954445,0.9716035908,1
7.357233375,0.6096125776,0.7061629719,-0.8832955992,1.284719718,1
7.367314375,0.73096306,0.8161052442,-0.9785256922,1.468961298,1
7.377395375,0.9474766847,0.7486605352,-0.8062842607,1.451998269,1
7.387476375,1.028719799,0.6397245687,-0.6001260914,1.351910972,1
7.397557375,1.108018422,0.6117842335,-0.3333229402,1.308850242,1
7.407638375,1.171540527,0.7953119606,-0.2717265433,1.441826493,1
7.417719375,1.235689453,0.8962232083,-0.373326593,1.57146976,1
7.427800375,1.319837902,0.8697329825,-0.4953818842,1.656445218,1
7.437880375,1.303519639,0.92734209,-0.4699986825,1.667340866,1
7.447961375,1.186547552,0.7793730354,-0.3723800019,1.467645832,1
7.458042375,1.084364096,0.3639646161,-0.2364438593,1.167998901,1
7.468123375,0.5944092321,0.1307911044,-0.3650475935,0.7097100773,1
7.478204375,0.3431054051,-0.1010966045,-0.5461756964,0.652878039,1
7.488285375,0.2614076695,-0.3323475516,-0.4142272818,0.5919232262,1
7.498366375,0.1339784217,-0.4313806736,-0.1608645771,0.4794965226,1
7.508447375,0.1244148619,-0.4330436218,0.08157911025,0.4578875271,1
7.518528375,0.2412306824,-0.2997902548,0.2107827687,0.4387434497,1
7.528608375,0.3298405579,-0.02203581691,0.3251982341,0.4637178693,1
7.538689375,0.4502720042,0.3428000343,0.3156349667,0.6479831583,1
7.548770375,0.5470011771,0.6665346372,0.1608089554,0.8771192795,1
7.558851375,0.6618358147,0.7673570073,-0.05291730165,1.014723442,1
7.568932375,0.6382488777,0.6664896137,-0.2175849078,0.9481103454,1
7.579013375,0.6023898044,0.5133323246,-0.4485533613,0.9097162579,1
7.589094375,0.5719579706,0.4824046469,-0.5347612005,0.9196845682,1
7.599175375,0.5966598254,0.2793185681,-0.3729682318,0.7570515912,1
7.609255375,0.4358140326,0.06512394905,-0.3211793697,0.5452808334,1
7.619336375,0.08884288698,-0.1555002683,-0.3525463195,0.3954267308,1
7.629417375,-0.06623842835,-0.2618757391,-0.2212691653,0.3491797182,1
7.639498375,-0.02509858847,-0.1502664256,0.02983768366,0.1552424722,1
7.649579375,0.07362492353,0.1089084846,0.3057451323,0.3328089141,1
7.659660375,0.1452924916,0.3237439585,0.3841269851,0.5229470331,1
7.669741375,0.2246816003,0.4362794709,0.4448023725,0.6623222394,1
7.679822375,0.176492942,0.4881489515,0.5737602651,0.7737182945,1
7.689903375,-0.08769961014,0.4028240418,0.5570279094,0.6929924402,1
7.699983125,-0.2690758543,0.3795480305,0.3556796231,0.5856334324,1
7.710064125,-0.3562369359,0.3497026724,0.1788318282,0.5302617621,1
7.720145125,-0.4729853672,0.2793472195,0.1326382399,0.5651043525,1
7.730226125,-0.4040402627,0.4389481401,0.08647571482,0.6028283776,1
7.740307125,-0.3312380424,0.7125329286,0.03431964755,0.7865110637,1
7.750388125,-0.1964369175,0.9467098224,-0.1200515234,0.9742993989,1
7.760469125,-0.0496770671,1.189593805,-0.2395505581,1.214489894,1
7.770550125,0.02186303169,1.538221174,-0.1391491145,1.544656871,1
7.780631125,0.1837089908,1.699648765,-0.139473635,1.71522821,1
7.790711125,0.3793259825,1.590357288,-0.2895793352,1.66041582,1
7.800792125,0.5674468437,1.364717329,-0.2596603753,1.500624143,1
7.810873125,0.5033414796,1.169552473,-0.04985701516,1.274241482,1
7.820954125,0.4144597086,0.9006068659,0.07160851121,0.9939805611,1
7.831035125,0.2016733915,0.6784576946,0.2075791524,0.7376083681,1
7.841116125,-0.3438374765,0.4444047618,-0.09135755517,0.5692679558,1
7.851197125,-0.8808451773,0.602118786,-0.4083245907,1.142437845,1
7.861278125,-1.103082495,1.120379144,-0.2924110687,1.599232519,1
7.871358125,-1.218693789,1.705239288,0.1259542146,2.099742852,1
7.881439125,-1.276761757,2.341627436,0.4226998973,2.700373092,1
7.891520125,-1.213359521,2.791495251,0.4999416161,3.084579174,1
7.901601125,-0.9444966513,3.161997639,0.5344062746,3.343036503,1
7.911682125,-0.5257952262,3.733707395,0.4654154887,3.799163475,1
7.921763125,-0.007507093996,4.200531551,0.2271274175,4.206674284,1
7.931844125,0.3136142421,4.18145501,-0.136733045,4.195427966,1
7.941925125,0.4220153345,3.94760673,-0.573462313,4.011303387,1
7.952006125,0.4291758348,3.607068983,-0.9324357457,3.750276652,1
7.962086125,0.2506726201,3.236311072,-1.208588631,3.463702152,1
7.972167125,-0.1703001559,2.96656615,-1.38610352,3.278841234,1
7.982248125,-0.6752274004,2.583786364,-1.99019238,3.330577986,1
7.992329125,-0.8347862211,2.192462626,-2.341593668,3.314637432,1
8.002410125,-0.7014423685,1.762316299,-2.267052193,2.955893398,1
8.012491125,-0.5665529506,1.284362553,-1.855015863,2.32629604,1
8.022572125,-0.2713496903,0.7400645435,-1.43241186,1.634970923,1
8.032653125,0.03257673874,0.4540216774,-1.100098223,1.190551564,1
8.042733125,0.5591663092,0.3669104433,-0.8741154706,1.100621684,1
8.052814125,1.189742617,0.08798422337,-0.6187868589,1.343921833,1
8.062895125,1.602835831,-0.4935237122,-0.4618123613,1.739516891,1
8.072976125,1.820092345,-1.200762572,-0.5121190274,2.239828742,1
8.083057125,2.313842636,-2.281803403,-0.5834679222,3.301655544,1
8.093138125,2.676202192,-3.842014786,-0.5359119326,4.712784462,1
8.103219125,2.898451935,-5.696967938,-0.1864104044,6.394624003,1
8.113300125,2.984078853,-7.584467277,0.1742755316,8.152253826,1
8.123381125,3.10027063,-9.250135533,0.6041447,9.774542249,1
8.133461125,3.298813422,-10.76841244,1.132900225,11.31920224,1
8.143542125,3.360350689,-12.15809212,1.550234279,12.70883106,1
8.153623125,3.858738115,-13.19750019,1.72281251,13.85755945,1
8.163704125,4.654668419,-14.31860322,1.85899007,15.17050363,1
8.173785125,5.329586209,-15.7178887,1.968730613,16.7132407,1
8.183866125,5.893070687,-17.60452558,1.897089942,18.66136525,1
8.193947125,5.901450917,-19.6316383,1.945473313,20.59158109,1
8.204028125,5.355405174,-20.56475101,2.571915931,21.40570251,1
8.214108125,4.618384107,-19.70183997,3.22175092,20.49076985,1
8.224189125,4.448399701,-17.5315266,3.785019636,18.47888141,1
8.234270125,4.669924681,-14.82749809,4.335889331,16.13886094,1
8.244351125,4.919046181,-12.12649143,4.496253313,13.83709158,1
8.254432125,4.877310218,-9.47304952,4.497723888,11.56530771,1
8.264513125,4.302928869,-6.849202713,4.429011503,9.221871694,1
8.274594125,3.117730123,-4.366017694,4.033446779,6.71200749,1
8.284675125,1.279576607,-2.038663897,3.516868665,4.261670093,1
8.294756125,-0.7977300766,0.1503523797,2.737199761,2.855037941,1
8.304836125,-2.747081555,2.363125309,1.779642769,4.037071547,1
8.314917125,-4.218346556,4.725923758,1.068589697,6.424226566,1
8.324998125,-5.240527267,6.991079553,0.4358537936,8.748044804,1
8.335079125,-6.094829448,9.044762608,0.01410523832,10.90664364,1
8.345160125,-6.435377135,10.73325781,-0.5219692469,12.52554805,1
8.355241125,-6.366173583,11.61687968,-1.188168254,13.3000678,1
8.365322125,-6.052557002,11.89271974,-2.066303247,13.50332693,1
8.375402125,-5.850179021,11.46744473,-3.340745267,13.29990459,1
8.385483125,-5.612592031,10.67634335,-4.81965521,12.9890174,1
8.395564125,-5.248742605,9.965430686,-6.607929638,13.05847778,1
8.405645125,-4.789212266,9.288894387,-7.233616211,12.71004786,1
8.415726125,-4.246555863,8.579847568,-7.073881974,11.90322759,1
8.425807125,-3.907026761,7.965073069,-6.908974121,11.24460628,1
8.435888125,-3.713681851,7.846369913,-6.507710116,10.84929697,1
8.445969125,-3.250099099,8.188478807,-5.480117514,10.37525987,1
8.456050125,-2.721299427,8.578368223,-4.462504062,10.04528817,1
8.466130125,-2.256033554,9.042107973,-3.953422663,10.12318896,1
8.476211125,-2.107751381,9.157523823,-3.730858047,10.11049753,1
8.486292125,-2.166850067,8.552124165,-3.407259099,9.457456398,1
8.496373125,-2.391421155,7.382906737,-3.202869092,8.395509362,1
8.506454125,-2.773148735,6.275616,-2.806112705,7.412690376,1
8.516535125,-2.957346553,5.213697903,-2.064536803,6.339625909,1
8.526616125,-3.336175376,4.552961365,-0.7603266075,5.695403399,1
8.536697125,-3.915941133,4.948226711,0.2568980044,6.315499911,1
8.546777125,-4.217366855,6.101746119,0.7321336725,7.45342261,1
8.556858125,-4.200490328,7.384424674,0.9179337738,8.544966306,1
8.566939125,-4.292160929,8.475916818,0.9587754057,9.54898223,1
8.577020125,-4.3734612,9.367209654,0.3694516432,10.34448037,1
8.587101125,-4.247171282,9.904395111,-0.2939490326,10.78062672,1
8.597182125,-4.167117053,9.586573212,-0.6354677957,10.47239561,1
8.607263125,-4.165115258,8.856215047,-1.177546202,9.857349802,1
8.617344125,-3.779501034,8.482083877,-2.162295817,9.534458462,1
8.627424125,-3.048675968,8.384293288,-3.581758726,9.61352145,1
8.637505125,-1.977956935,8.002536179,-4.041304268,9.18068838,1
8.647586125,-0.6449663052,6.980968548,-4.200537106,8.172785044,1
8.657667125,1.349098247,5.134828904,-4.926499043,7.242715428,1
8.667748125,3.110223468,1.688481753,-5.166176412,6.262095446,1
8.677829125,3.603226778,-3.065759486,-4.724192398,6.685814703,1
8.687910125,4.212284455,-8.246482016,-2.877655728,9.696840128,1
8.697991125,3.478840421,-14.10087045,0.06632847548,14.5238176,1
8.7080715,1.226724502,-17.29130076,3.668267696,17.71863772,1
8.7181525,-0.715079391,-17.37467621,6.392357415,18.5270868,1
8.7282335,-0.1996704277,-15.14569538,7.648403656,16.96850127,1
8.7383145,1.751395454,-11.71420659,7.76074738,14.16048099,1
8.7483955,3.395467897,-8.085845554,6.932945366,11.17925901,1
8.7584765,4.991509556,-4.977994301,5.562672012,8.979917306,1
8.7685575,6.156728657,-3.166791186,4.00469602,7.998216326,1
8.7786385,6.331832886,-3.222377157,2.88471741,7.667947364,1
8.7887185,5.864383078,-4.615010263,1.921914735,7.706040803,1
8.7987995,4.992414705,-6.29728812,1.289704569,8.139003632,1
8.8088805,3.59675888,-7.920064711,1.193084447,8.779951592,1
8.8189615,2.291246071,-8.529392529,1.262833105,8.921608203,1
8.8290425,1.191151211,-7.785651841,1.659081953,8.049084962,1
8.8391235,0.5882620543,-5.914320638,2.369569525,6.39844517,1
8.8492045,0.3529461229,-3.67031773,2.818313506,4.640979877,1
8.8592855,0.1969587815,-1.667693732,2.656300609,3.142598935,1
8.8693655,-0.08816724122,0.1285311556,2.063503892,2.069382042,1
8.8794465,-0.597308574,1.562770709,0.9059977064,1.902593406,1
8.8895275,-0.9906420001,2.526629246,-0.9943181446,2.890310622,1
8.8996085,-1.125071242,3.144711515,-2.697203636,4.293006321,1
8.9096895,-1.179602083,3.107918496,-3.310599947,4.691555228,1
8.9197705,-1.654984809,2.018303307,-3.048271633,4.013039111,1
8.9298515,-2.649547659,0.692644794,-2.750993342,3.881729509,1
8.9399315,-3.491906902,-0.03825950146,-2.26616444,4.162977164,1
8.9500125,-3.829973615,0.113706125,-1.546148829,4.131852269,1
8.9600935,-3.193317957,0.9121685654,-1.224124099,3.539464773,1
8.9701745,-2.235030355,1.987077422,-0.74856391,3.082885871,1
8.9802555,-1.501298639,3.007436433,-0.3138704963,3.375957078,1
8.9903365,-0.7141300955,3.965326717,-0.3288304514,4.042514964,1
9.0004175,-0.03323732793,4.610978608,-0.3208029552,4.622244366,1
9.0104985,0.5741287494,4.847953979,-0.6256639154,4.921761569,1
9.0205795,1.19251332,4.523845739,-1.110313747,4.808332862,1
9.0306595,1.582727256,3.343066027,-1.348654443,3.937002011,1
9.0407405,1.553190339,1.523570391,-1.300391671,2.534696326,1
9.0508215,1.174197209,-0.09767422915,-1.354709966,1.79541595,1
9.0609025,0.6283955884,-1.288541558,-1.087737647,1.799553709,1
9.0709835,0.1352124766,-1.969750367,-0.6309882438,2.07276267,1
9.0810645,0.105498096,-2.21845116,-0.06805281937,2.222000582,1
9.0911455,0.4686917567,-2.076293069,0.6988989758,2.240340297,1
9.1012265,1.148220661,-1.419542577,1.482182629,2.351675395,1
9.1113065,1.693845696,-0.4363589931,2.165176009,2.78343485,1
9.1213875,1.959108727,0.3618590337,2.424157961,3.13776844,1
9.1314685,1.9995393,0.515206942,2.007376469,2.879784001,1
9.1415495,1.569121663,-0.06381768107,1.228018198,1.993550647,1
9.1516305,0.7032124668,-0.8715117055,0.2258756018,1.14239232,1
9.1617115,-0.1414435619,-1.724585386,-0.4095432235,1.778180724,1
9.1717925,-0.7295208442,-2.222814937,-0.5195587322,2.396465769,1
9.1818735,-0.9129117465,-1.970200603,-0.4408996484,2.215737072,1
9.1919535,-0.6037788105,-1.468865011,-0.5032637116,1.66594947,1
9.2020345,-0.09929946274,-0.8760064602,-0.6244808775,1.080381446,1
9.2121155,0.341782034,-0.2362602568,-0.4541278043,0.6155208611,1
9.2221965,0.7605900246,0.304034164,-0.3445059595,0.8886047009,1
9.2322775,0.9775281572,0.6428855735,-0.2394461122,1.194235152,1
9.2423585,0.9823304754,0.8143311989,-0.1794741449,1.288533831,1
9.2524395,0.9534990245,0.9080550492,-0.2482166433,1.339901438,1
9.2625205,0.8183947214,0.9423670954,-0.307662946,1.285489071,1
9.2726005,0.8283417124,0.8690570444,-0.4302112305,1.275339893,1
9.2826815,0.7233812678,0.4569341755,-0.5529948655,1.018760335,1
9.2927625,0.4875958049,0.270761168,-0.6649550119,0.8678861947,1
9.3028435,0.4322899157,0.2075504279,-0.7099168843,0.8566993253,1
9.3129245,0.4328989032,0.0500743854,-0.677478286,0.8055344391,1
9.3230055,0.5142535535,-0.02583884597,-0.5031366809,0.7199103297,1
9.3330865,0.6890709758,0.03471725821,-0.3071223709,0.7552140414,1
9.3431675,0.7988813934,0.04673036277,-0.1934342261,0.8232933908,1
9.3532475,0.8672090319,-0.02529096186,0.05422941685,0.8692709401,1
9.3633285,0.9225961974,-0.01874734282,0.2811779827,0.9646741752,1
9.3734095,0.8366479746,-0.04052120447,0.42793374,0.940611018,1
9.3834905,0.6742225564,-0.1864840794,0.5813921607,0.9095983794,1
9.3935715,0.475695844,-0.3198754406,0.6805159146,0.8897801658,1
9.4036525,0.2206227556,-0.5049205202,0.553727814,0.7811745157,1
9.4137335,-0.04880787849,-0.6810544431,0.1928452653,0.7095115643,1
9.4238145,-0.236901404,-0.722385487,-0.1198264056,0.7696242164,1
9.4338945,-0.1976332578,-0.4621867293,-0.3634040143,0.6202724844,1
9.4439755,0.01309016168,-0.0908645618,-0.5869224572,0.5940586602,1
9.4540565,0.2145869672,0.2366467577,-0.8060101725,0.8670072968,1
9.4641375,0.3616076034,0.5545265436,-0.9454142256,1.154152418,1
9.4742185,0.5492883155,0.7994079351,-0.9967894703,1.390812694,1
9.4842995,0.6827974981,0.9135321361,-0.9694052052,1.49682993,1
9.4943805,0.7775264847,0.9358731776,-0.8783839381,1.500654651,1
9.5044605,0.7550000864,0.8032249975,-0.745720409,1.330899867,1
9.5145415,0.6264192295,0.6453671318,-0.6161709608,1.090213942,1
9.5246225,0.5327906889,0.5162611949,-0.5270381981,0.910033407,1
9.5347035,0.5025936207,0.420644601,-0.282574444,0.713716011,1
9.5447845,0.4716144875,0.3016625333,-0.1377234171,0.5765312207,1
9.5548655,0.5072459579,0.2591035742,-0.001451425105,0.5695921616,1
9.5649465,0.5843464664,0.2109125769,0.1119607311,0.6312528124,1
9.5750275,0.6215941072,0.2285968959,0.256228352,0.7101329054,1
9.5851075,0.6316586271,0.200393436,0.381516788,0.7646601924,1
9.5951885,0.6002017763,0.158926152,0.4221911895,0.7508296042,1
9.6052695,0.4916154733,0.1375481468,0.3253903882,0.6053793613,1
9.6153505,0.3746135652,0.08912092209,0.1878849261,0.428460742,1
9.6254315,0.204352001,-0.08239370048,-0.0169091244,0.2209850236,1
9.6355125,0.01391198784,-0.228508603,-0.1455295962,0.2712721667,1
9.6455935,-0.140591915,-0.242198689,-0.1324465974,0.3097876574,1
9.6556745,-0.1909118834,-0.1428036243,-0.03571727827,0.2410724918,1
9.6657545,-0.1814019719,0.08135991275,0.0190658699,0.1997238549,1
9.6758355,-0.1213197845,0.2286202848,0.01523711309,0.2592641401,1
9.6859165,-0.06461377949,0.3410751057,-0.01674584091,0.3475450926,1
9.6959975,0.03114490181,0.4311087781,0.00185678333,0.432236314,1
9.706078792,0.1642781085,0.4271917284,0.0133151333,0.4578835687,1
9.716159792,0.309346067,0.366953128,-0.04500192583,0.4820526534,1
9.726240792,0.3158309215,0.393541587,-0.1356926791,0.5225290948,1
9.736321792,0.3487843671,0.4261959475,-0.2326316209,0.5978385999,1
9.746401792,0.353231467,0.3644481808,-0.3225004019,0.6013330649,1
9.756482792,0.2899271715,0.1414839077,-0.277611912,0.4256099559,1
9.766563792,0.180679256,-0.03643692434,-0.06009475887,0.1938659925,1
9.776644792,0.09320666403,-0.03140481055,0.2018255652,0.224515708,1
9.786725792,0.1108749032,0.04007915497,0.4305970006,0.4464452483,1
9.796806792,0.1835923389,0.1687015271,0.5423206271,0.596890287,1
9.806887792,0.2229797682,0.3109338784,0.5067887056,0.6350075951,1
9.816968792,0.2015728194,0.3915623045,0.3979655904,0.5935732903,1
9.827048792,0.1995765799,0.2983980328,0.3257969159,0.4847843104,1
9.837129792,0.09493977875,0.09107973933,0.2537188733,0.2858012371,1
9.847210792,0.06950292885,0.00685878396,0.1291511066,0.1468254351,1
9.857291792,0.1178991634,0.1099147904,-0.01043771848,0.1615252916,1
9.867372792,0.2459496778,0.2829040807,-0.02962623373,0.3760368023,1
9.877453792,0.3535641736,0.4324074447,-0.1230815506,0.5719553227,1
9.887534792,0.3704231581,0.4576826191,-0.1886861408,0.6182953628,1
9.897614792,0.3500502893,0.3858717942,-0.2151026917,0.5636500817,1
9.907695792,0.2711564398,0.3227668887,-0.17754968,0.4574146567,1
9.917776792,0.2150088438,0.2473904318,-0.052574801,0.3319562296,1
9.927857792,0.2313942039,0.1911747158,0.1443056278,0.3330392826,1
9.937938792,0.2009275791,0.2030404705,0.3161441861,0.4260803576,1
9.948019792,0.1684702697,0.2432102573,0.3626763283,0.4680465576,1
9.958100792,0.1524880752,0.2351744288,0.3270885658,0.430751152,1
9.968181792,0.2157929555,0.2632802403,0.2352030802,0.4137675356,1
9.978261792,0.1969099572,0.2327998745,0.115232833,0.3259569276,1
9.988342792,0.1675198048,0.1500793147,-0.02571956277,0.2263806123,1
9.998423792,0.1523670378,0.08324330091,-0.09802740097,0.1993853874,1
10.00850479,0.1482391959,-0.009593526721,-0.09471188352,0.1761738796,1
10.01858579,0.1191033974,-0.04926337659,-0.04772000402,0.137439799,1
10.02866679,0.03136885017,-0.001574070454,0.05164026976,0.06044170679,1
10.03874779,-0.08143007934,0.01593424737,0.1527048607,0.1737916354,1
10.04882879,-0.1635571468,0.06480761468,0.1466563547,0.2290394148,1
10.05890879,-0.1811698374,0.05035271287,0.1037173265,0.2147444749,1
10.06898979,-0.2025893578,0.05681271672,0.1621356887,0.2656277738,1
10.07907079,-0.2179590565,0.03070957661,0.2106026745,0.3046353803,1
10.08915179,-0.3048779172,-0.04373366475,0.1513927455,0.343195194,1
10.09923279,-0.2682076889,-0.06959765375,0.1240871255,0.3036063447,1
10.10931379,-0.2011696538,-0.07474378824,0.06389077127,0.2239149262,1
10.11939479,-0.1951172009,-0.1421019584,-0.05837041497,0.2483360506,1
10.12947479,-0.2541328561,-0.1592781544,-0.1946473771,0.3575480953,1
10.13955579,-0.2606943092,-0.1605171794,-0.2603094162,0.4018560437,1
10.14963679,-0.1485067061,-0.2810247856,-0.2025909658,0.3769247555,1
10.15971779,-0.1162484944,-0.3949425799,-0.1299708863,0.4317242003,1
10.16979879,-0.159572854,-0.4731303781,-0.1987604548,0.5374212211,1
10.17987979,-0.2440619043,-0.4055020666,-0.3131914884,0.5675271337,1
10.18996079,-0.3252367526,-0.3467621076,-0.4082865107,0.6266743806,1
10.20004179,-0.4037145728,-0.2811551785,-0.3975380127,0.6325109977,1
10.21012179,-0.4680535331,-0.1492612892,-0.4950831646,0.6974671191,1
10.22020279,-0.5964832395,0.01259373307,-0.6489006042,0.8814889967,1
10.23028379,-0.7016082832,0.2709728372,-0.6170889737,0.972871658,1
10.24036479,-0.7661179823,0.4503297454,-0.5838627554,1.063310566,1
10.25044579,-0.9236381713,0.4671422446,-0.7153202963,1.258178236,1
10.26052679,-0.9764475918,0.2371677446,-0.8513076751,1.316975017,1
10.27060779,-0.9864182639,0.02132128716,-0.7764118592,1.255504267,1
10.28068879,-1.018255768,-0.01534718692,-0.8727507305,1.341183874,1
10.29076879,-1.081663267,0.01581145585,-0.8110427248,1.352048715,1
10.30084979,-0.9238489634,0.2427494967,-0.7198704533,1.196092678,1
10.31093079,-0.5414565548,0.4301720542,-0.6909853542,0.9775908943,1
10.32101179,-0.1969263294,0.658430981,-0.6667159009,0.9575079261,1
10.33109279,0.1575304216,0.9168434143,-0.5566951297,1.084125061,1
10.34117379,0.4243064198,1.023411258,-0.545069257,1.234709292,1
10.35125479,0.5932696098,1.053619144,-0.4753119743,1.299231928,1
10.36133479,0.7353125113,1.077340128,-0.4428223591,1.377475184,1
10.37141579,0.8623207596,1.126187183,-0.3026952247,1.450351359,1
10.38149679,0.8895880803,1.117384785,-0.06033274055,1.429529905,1
10.39157779,0.7831713867,0.9791501749,0.2796040584,1.284628707,1
10.40165879,0.5228156313,0.926802392,0.5950774227,1.219186613,1
10.41173979,0.2969578636,1.117743219,0.7718248647,1.390412708,1
10.42182079,0.1677691886,1.548106477,0.853426706,1.77570192,1
10.43190179,0.04782554626,1.995835381,0.8062972708,2.153081847,1
10.44198179,-0.08672093242,2.416734336,0.6332791098,2.499833555,1
10.45206279,-0.1956004733,2.759757149,0.2204463889,2.775448735,1
10.46214379,-0.2723220822,3.094866925,-0.1485217626,3.110372858,1
10.47222479,-0.3593195879,3.385074179,-0.4321707056,3.431415055,1
10.48230579,-0.4346893206,3.570874718,-0.5546284313,3.639740891,1
10.49238679,-0.4958260533,3.642642859,-0.6189979434,3.727981884,1
10.50246779,-0.6413097489,3.486225162,-0.6350280851,3.601153252,1
10.51254779,-0.7258929393,3.317845817,-0.6638205059,3.460589413,1
10.52262879,-0.7058863986,3.20406894,-0.72138152,3.359274427,1
10.53270979,-0.7226331165,3.065916776,-0.8464540476,3.261675758,1
10.54279079,-0.706782192,2.911721022,-1.233397052,3.240205034,1
10.55287179,-0.6529690969,2.790961985,-1.782875109,3.375571226,1
10.56295279,-0.4228507555,2.731391721,-2.081273142,3.459913494,1
10.57303379,-0.06345252246,2.664083253,-2.163600331,3.432569328,1
10.58311479,0.2820214435,2.509971698,-2.119310011,3.297115245,1
10.59319479,0.5556945249,2.190768687,-1.862848063,2.92890197,1
10.60327579,0.7117774683,1.767340811,-1.413672557,2.372465133,1
10.61335679,0.9259516221,1.194441732,-0.7639363861,1.693421465,1
10.62343779,1.095876094,0.3527660286,-0.1389146411,1.159605779,1
10.63351879,0.7589835021,-0.501819157,0.1621530841,0.9242142855,1
10.64359979,0.3682857084,-1.308254861,0.3087468736,1.393732318,1
10.65368079,0.1167668501,-2.099897109,0.2510565629,2.118072653,1
10.66376079,0.1161300883,-2.81498644,0.03397049569,2.817585642,1
10.67384179,0.3869377416,-3.409414968,-0.0577261249,3.431787223,1
10.68392279,1.329196371,-4.115844573,-0.4753914964,4.351199446,1
10.69400379,2.747708377,-5.278296772,-0.9249252896,6.022109674,1
10.70408412,4.155776378,-7.255089526,-1.318894454,8.464412792,1
10.71416512,5.508850731,-10.03291691,-1.502384759,11.54400356,1
10.72424612,6.301041448,-13.27802336,-1.117372506,14.73965906,1
10.73432712,6.286142158,-16.56527889,-0.2674148796,17.71991982,1
10.74440712,5.478128875,-19.24052506,1.147051803,20.03804952,1
10.75448812,4.56350828,-20.07485958,2.873664418,20.78661931,1
10.76456912,4.436344496,-18.93815618,4.254528249,19.9106987,1
10.77465012,4.894119501,-17.04398809,5.190526557,18.47678278,1
10.78473112,5.678888932,-15.07170354,5.327381224,16.96428654,1
10.79481212,6.347620953,-13.51918827,4.612541569,15.6312598,1
10.80489312,6.400091527,-12.74450002,3.420023571,14.66560648,1
10.81497313,5.699319688,-12.34263258,1.977487988,13.73802325,1
10.82505413,5.014906604,-11.701041,0.7830369008,12.75448139,1
10.83513513,4.509080935,-10.95874282,-0.03502134997,11.85019331,1
10.84521613,3.749820567,-10.133199,-0.3933855029,10.81192066,1
10.85529713,2.387400902,-8.759006256,-0.006971635222,9.078541858,1
10.86537813,0.8844492549,-6.192059873,0.8924809903,6.318257535,1
10.87545913,-0.6882623059,-2.937823577,1.920550725,3.576734189,1
10.88554013,-2.180498345,0.3185937309,2.915588955,3.654686574,1
10.89562012,-3.528884401,3.334753625,3.421389481,5.939655953,1
10.90570112,-4.711213918,5.955790846,3.702957473,8.448601969,1
10.91578212,-5.365729018,8.195415943,3.49749567,10.40136368,1
10.92586312,-5.59674023,9.924203138,2.727310365,11.71543985,1
10.93594412,-5.525989505,11.13841255,1.776150811,12.56007587,1
10.94602512,-5.324542986,11.77422124,0.4053267232,12.92854723,1
10.95610612,-5.094976621,11.59394457,-1.446960756,12.74645177,1
10.96618612,-4.936633437,11.32004461,-3.132840498,12.74081823,1
10.97626712,-4.800884186,11.07366984,-3.964764799,12.70409433,1
10.98634812,-4.296123002,10.67363843,-4.044797394,12.1960492,1
10.99642912,-3.713916909,10.27339535,-3.535315754,11.48191135,1
11.00651012,-3.069908963,9.761385664,-3.134383578,10.70202558,1
11.01659112,-2.493298655,9.09090825,-2.568746156,9.770343279,1
11.02667212,-2.296534586,8.489716247,-1.928713439,9.003848543,1
11.03675312,-2.522539703,7.933016878,-1.550854669,8.467651005,1
11.04683313,-2.700412296,7.442351285,-1.224688355,8.01128459,1
11.05691413,-2.979394064,7.129599507,-0.9248167507,7.782240304,1
11.06699513,-3.530756679,6.840776875,-1.041352855,7.768325865,1
11.07707613,-4.385383673,6.29998661,-1.043802765,7.746673187,1
11.08715713,-5.258332039,5.746740607,-0.621884129,7.814206505,1
11.09723813,-5.889033769,5.203210922,-0.2647754464,7.862838461,1
11.10731913,-6.28716776,4.621763797,0.6084320247,7.826836434,1
11.11739912,-6.407093568,4.866511288,1.654618188,8.214106248,1
11.12748012,-6.531308309,5.809124551,2.402516246,9.065097936,1
11.13756112,-6.627251762,7.509091405,2.869990613,10.41843394,1
11.14764212,-6.509861891,9.347840753,3.165945094,11.82301302,1
11.15772312,-6.608442439,10.86899858,3.138419327,13.10176773,1
11.16780412,-6.952082133,11.98173542,1.720105249,13.95894665,1
11.17788512,-7.828409021,12.39328467,-0.2672996163,14.66113713,1
11.18796512,-8.984716381,11.43863667,-1.515165603,14.62406456,1
11.19804612,-9.966334666,9.820382316,-2.186097347,14.16145321,1
11.20812712,-10.45326155,8.939641365,-2.928300217,14.06281646,1
11.21820812,-9.62536598,8.654288471,-3.360976049,13.3731275,1
11.22828912,-7.260090065,8.692543294,-2.941068782,11.70124362,1
11.23837012,-4.356759798,8.478717635,-1.926033075,9.725204989,1
11.24845112,-0.8349853188,7.597248121,-1.09058875,7.720412121,1
11.25853212,3.122100332,5.333593891,-1.247157304,6.304770862,1
11.26861213,6.789955215,1.175216671,-2.981834984,7.508393032,1
11.27869313,10.29655032,-4.707226117,-4.355151229,12.13030373,1
11.28877413,12.56961799,-11.44827288,-4.674745418,17.63268252,1
11.29885513,13.10296825,-16.2192395,-4.221715429,21.27379581,1
11.30893613,12.02753783,-16.69714646,-1.563387006,20.637358,1
11.31901713,10.31467318,-13.54115041,2.156130366,17.15820898,1
11.32909813,9.196270983,-9.867503858,3.974514447,14.06185612,1
11.33917913,8.840988897,-8.024159768,3.818768595,12.53527895,1
11.34925912,8.506058046,-8.527390442,2.168559793,12.23813968,1
11.35934012,7.284330867,-9.131625921,0.2759078689,11.68435678,1
11.36942112,6.417402794,-9.366026178,-1.943774697,11.51884391,1
11.37950212,6.885428553,-10.47299941,-3.612897488,13.04399752,1
11.38958312,6.850342335,-12.15311263,-3.016787301,14.27327371,1
11.39966412,5.424770109,-13.24762486,-1.001552027,14.35028925,1
11.40974512,3.219527809,-13.38006897,0.5966066158,13.77488818,1
11.41982512,1.0036465,-12.96399046,1.439460533,13.082217,1
11.42990612,-1.068796762,-11.88688422,1.775371377,12.06616288,1
11.43998712,-2.406197653,-10.1155217,1.436768475,10.49656467,1
11.45006812,-2.981229213,-7.863161947,0.4362929195,8.420652881,1
11.46014912,-2.501571003,-5.589056404,-1.032252249,6.209746667,1
11.47023012,-1.229218631,-3.281404799,-2.39004589,4.241569904,1
11.48031112,0.2023762268,-0.8343707764,-3.000346684,3.120770891,1
11.49039113,1.641314018,1.543045127,-3.278681751,3.978021367,1
11.50047213,2.523348081,3.837104879,-2.917505672,5.440817837,1
11.51055313,2.641824072,5.492003149,-2.10421937,6.447408175,1
11.52063413,2.126279746,6.302251237,-1.183327929,6.755716187,1
11.53071513,1.357817322,6.266149943,-0.2222234309,6.415425648,1
11.54079613,0.4598127598,5.732721907,0.7797437489,5.803751249,1
11.55087713,-0.4816477248,5.130640544,1.612222951,5.399511067,1
11.56095813,-1.399346879,4.916375173,2.179667748,5.556965721,1
11.57103812,-1.974064735,4.911534848,2.458060702,5.83628037,1
11.58111912,-2.040971501,4.963803694,2.511959751,5.925778731,1
11.59120012,-1.982819771,5.136932148,2.451497787,6.027394755,1
11.60128112,-1.882293563,5.337137888,2.214894884,6.077320893,1
11.61136212,-1.847117006,5.388967023,1.777496256,5.967604188,1
11.62144312,-1.839222095,5.15308625,1.323430139,5.629254227,1
11.63152412,-1.821564966,4.59690436,0.9398025066,5.033175675,1
11.64160412,-1.578812838,3.866300027,0.6319208747,4.223771995,1
11.65168512,-1.136353445,3.01425838,0.5711670616,3.271587466,1
11.66176612,-0.6109431115,2.188026928,0.4804241218,2.321964827,1
11.67184712,-0.1851909676,1.441725744,0.1056393063,1.457404706,1
11.68192812,0.04471044213,0.91126634,-0.04491655648,0.9134674943,1
11.69200912,0.07926456302,0.5900039399,-0.09406781271,0.6026908606,1
11.70209012,-0.01820296705,0.2277940732,-0.007666942254,0.2286487914,1
11.71217079,-0.2331588936,-0.1156707895,0.1840731993,0.3187879293,1
11.72225179,-0.5450616556,-0.1192989868,0.4133939805,0.6944199304,1
11.73233279,-0.8511946777,-0.1118578202,0.4546969577,0.9714905427,1
11.74241379,-0.9391552198,-0.4745682085,0.5806788003,1.201838334,1
11.75249479,-0.9295453209,-0.8479152668,0.670306676,1.425596662,1
11.76257579,-0.967648994,-1.069004923,0.7484639957,1.624596705,1
11.77265679,-1.060757425,-1.442624461,0.8516767075,1.982857752,1
11.78273779,-1.103913385,-1.90828736,0.8645370736,2.368039223,1
11.79281779,-1.01134436,-2.288841112,1.11236495,2.738424151,1
11.80289879,-1.071602256,-2.593870472,1.146610338,3.031700956,1
11.81297979,-1.226196206,-2.90943476,0.7123796584,3.23664217,1
11.82306079,-1.3556214,-3.127993156,0.4119136117,3.433907889,1
11.83314179,-1.387652448,-3.187979157,0.44775814,3.50560662,1
11.84322279,-1.366034122,-3.075478728,0.5265096098,3.406146062,1
11.85330379,-1.168266671,-2.715271533,0.558158834,3.008170174,1
11.86338379,-0.8663573849,-2.067174336,0.5430168843,2.306220325,1
11.87346479,-0.7248024336,-1.277645271,0.5142146695,1.556320254,1
11.88354579,-0.6228012648,-0.5159869605,0.4198709413,0.911271401,1
11.89362679,-0.5902799284,0.1511920398,0.3206086814,0.6885342065,1
11.90370779,-0.5713483983,0.5667144799,0.3346213876,0.8715364405,1
11.91378879,-0.615351035,0.8162584412,0.2966929847,1.064406626,1
11.92386979,-0.6423084533,1.078042964,0.1431573077,1.263024464,1
11.93394979,-0.5332070106,1.244758776,-0.06047833622,1.355504244,1
11.94403079,-0.3771033096,1.414684126,-0.3121063183,1.496979771,1
11.95411179,-0.1037968487,1.432922176,-0.6320916134,1.56957942,1
11.96419279,0.1160897425,1.240686191,-1.103989983,1.664804173,1
11.97427379,0.296352092,0.8645757383,-1.454403677,1.717732757,1
11.98435479,0.4235369262,0.3452886093,-1.644057093,1.732492851,1
11.99443579,0.6641255844,-0.1479170144,-1.801402597,1.92561511,1
12.00451579,0.8238305855,-0.5880006838,-1.826805241,2.088458528,1
12.01459679,0.8698879337,-0.9540176725,-1.706287694,2.139689798,1
12.02467779,0.900516234,-0.9602613294,-1.464761435,1.969405334,1
12.03475879,0.8281753591,-0.7462988448,-1.199163504,1.637323884,1
12.04483979,0.7413643795,-0.5941887921,-1.03381404,1.404084375,1
12.05492079,0.6756609714,-0.5975012398,-0.9233028334,1.290741493,1
12.06500179,0.6181603298,-0.5011233383,-0.6549765922,1.030650828,1
12.07508279,0.5915037507,-0.2973905575,-0.4073170424,0.7773191132,1
12.08516279,0.5686955166,-0.2315526634,-0.1428831464,0.6304338348,1
12.09524379,0.6007900062,-0.07815446913,0.007098519802,0.6058936719,1
12.10532479,0.7055832204,0.2082503396,0.1408325279,0.7490324998,1
12.11540579,0.7356957963,0.3296285963,0.2425080067,0.8418512039,1
12.12548679,0.74300657,0.1639173353,0.2672703072,0.8064496717,1
12.13556779,0.771333991,-0.1749299812,0.3111923254,0.8499395786,1
12.14564879,0.7517703769,-0.4413343889,0.4154258879,0.9656673395,1
12.15572879,0.5590736309,-0.5745322073,0.3672611301,0.8817773639,1
12.16580979,0.2521681917,-0.5511456835,0.1027933203,0.6147494026,1
12.17589079,0.08729103595,-0.3846918261,-0.09397652306,0.4055109282,1
12.18597179,-0.02869842678,-0.1616854531,-0.1380656985,0.2145411908,1
12.19605279,-0.178516371,0.07799834847,-0.1817741472,0.2664463879,1
12.20613379,-0.231937995,0.2486464137,-0.1170952443,0.3596269856,1
12.21621479,-0.2540451479,0.2912813866,-0.03094404995,0.3877387233,1
12.22629479,-0.244169493,0.1982843453,0.04698581301,0.3180300136,1
12.23637579,-0.2471963042,0.04635029376,0.1796077538,0.3090522735,1
12.24645679,-0.2331153318,-0.04119129539,0.2002226242,0.3100460933,1
12.25653779,-0.2640275145,-0.04790039063,0.1272077845,0.2969626176,1
12.26661879,-0.3338701665,-0.1009533477,0.1357863808,0.3742977528,1
12.27669979,-0.3093393427,-0.05219283164,0.09544161603,0.3279085584,1
12.28678079,-0.1523983204,0.154967587,0.03315363966,0.2198621498,1
12.29686079,0.02402796328,0.326164121,-0.01222418904,0.3272763475,1
12.30694179,0.05383326799,0.3107385814,-0.1017468148,0.3313742613,1
12.31702279,-0.02818474889,0.2997645271,-0.2168270355,0.3710351939,1
12.32710379,0.05525618792,0.4214521015,-0.244153267,0.4901896959,1
12.33718479,0.1283884835,0.4918636876,-0.190882355,0.5430005187,1
12.34726579,0.120944978,0.4621896529,-0.2706892473,0.5491080327,1
12.35734679,-0.1356542337,0.1009381449,-0.5602591538,0.5852186768,1
12.36742679,-0.5186565068,-0.4022662175,-0.7443927987,0.992443107,1
12.37750779,-0.7245384318,-0.6948421776,-0.7875573832,1.275934255,1
12.38758879,-0.6882447642,-0.6044237584,-0.6204323385,1.106320578,1
12.39766979,-0.4820564452,-0.368355875,-0.4122123313,0.7334735667,1
12.40775079,-0.2116578045,-0.1227722329,-0.2127878521,0.3242695135,1
12.41783179,-0.08005773783,-0.07323169827,-0.04184282139,0.1162881968,1
12.42791279,-0.08936270446,-0.09705383956,0.03310920082,0.1360197041,1
12.43799379,-0.01172834516,-0.008492496014,0.07125987098,0.07271620026,1
12.44807379,0.1020973554,0.1004469788,0.04883126736,0.1513207131,1
12.45815479,0.2047244686,0.1782722497,-0.08320470929,0.2839297918,1
12.46823579,0.178666352,0.1071742004,-0.3557301284,0.4122522272,1
12.47831679,0.06897872597,-0.1475468856,-0.5661603101,0.5891227756,1
12.48839779,-0.01573661149,-0.1920512134,-0.6967583102,0.7229131707,1
12.49847879,0.05406920314,-0.01767087042,-0.6911819668,0.693518745,1
12.50855979,0.1621929914,0.1252917981,-0.6129251714,0.6462831167,1
12.51863979,0.1920517981,0.1936246991,-0.515804235,0.5834624462,1
12.52872079,0.1568363571,0.0545697248,-0.3346782517,0.3736108001,1
12.53880179,0.04203826457,-0.007870352268,-0.2459911931,0.2496814474,1
12.54888279,-0.001134067476,0.09536691785,-0.1712374645,0.1960061336,1
12.55896379,0.05522841364,0.08809005797,-0.05455510676,0.1174150572,1
12.56904479,-0.009672464132,-0.02727784574,0.0003759759665,0.02894440859,1
12.57912579,-0.09262135774,-0.07639036417,-0.07615647554,0.142175991,1
12.58920579,-0.05195543468,0.08501442254,-0.05440264061,0.1135185735,1
12.59928679,0.08099709302,0.3119875467,0.02272228003,0.3231300982,1
12.60936779,0.2137069613,0.4713762134,0.1228774828,0.5319446171,1
12.61944879,0.2012646711,0.4203879082,0.1905155884,0.5035172794,1
12.62952979,0.01519106627,0.3331626534,0.109510894,0.3510281442,1
12.63961079,-0.0254017666,0.2862907881,-0.01601274624,0.2878612046,1
12.64969179,0.04254404873,0.2970712996,-0.1743481833,0.347071523,1
12.65977179,0.05692410618,0.2302920038,-0.2429040094,0.3395248424,1
12.66985279,0.04724491775,0.01999981642,-0.1676279783,0.175303206,1
12.67993379,0.03412581235,-0.1195474935,-0.1746319194,0.2143652993,1
12.69001479,0.05705625325,-0.04566149175,-0.1376083732,0.1558090249,1
12.70009579,0.224515247,0.09368759751,-0.07190101817,0.2536813326,1
12.71017713,0.3717580774,0.2300826734,0.09786528692,0.4480175433,1
12.72025813,0.440345917,0.3306916201,0.2788243322,0.6172556055,1
12.73033812,0.4098828006,0.3888901269,0.2864640118,0.633483284,1
12.74041912,0.4382768798,0.4134010702,0.2006472051,0.6350168259,1
12.75050012,0.4515646774,0.3770670569,0.1451616602,0.6059390488,1
12.76058112,0.3820044458,0.232723276,0.121887403,0.4636205979,1
12.77066212,0.2940626147,0.1110602599,-0.009973157197,0.314494303,1
12.78074312,0.2932825962,0.107630868,-0.1080008505,0.3305499488,1
12.79082412,0.2959805015,0.1788055158,-0.1206029159,0.366225249,1
12.80090413,0.1713178638,0.3123734629,-0.04815138236,0.3595073663,1
12.81098512,0.03575543135,0.4015990502,0.04911412641,0.4061680014,1
12.82106612,-0.03730932891,0.4788898855,0.2127577389,0.5253507057,1
12.83114712,-0.06913777024,0.4242154956,0.3222463404,0.5371978424,1
12.84122812,-0.09152792841,0.2494562531,0.3263670194,0.4208577138,1
12.85130912,-0.1430921844,0.08068748295,0.3099421176,0.3507847764,1
12.86139012,-0.24710538,0.006866385341,0.1716099322,0.3009288702,1
12.87147012,-0.2541574144,0.01167279661,0.1253576524,0.2836314272,1
12.88155112,-0.2447162077,0.07065424562,0.1141305598,0.2791125748,1
12.89163212,-0.2372729945,0.1689950573,0.009996253699,0.2914750906,1
12.90171313,-0.2907677087,0.3053649902,-0.07781715788,0.4287763377,1
12.91179413,-0.3601630488,0.4620955127,-0.1878494773,0.6152536963,1
12.92187513,-0.3739072216,0.7055460906,-0.3160402519,0.8587685003,1
12.93195613,-0.3690166104,0.8749083531,-0.4223068182,1.039221311,1
12.94203713,-0.4101421246,0.9105237436,-0.4551421501,1.097462722,1
12.95211712,-0.5325959766,0.9587808144,-0.5208939439,1.214186816,1
12.96219812,-0.5863865599,0.9870994645,-0.5464011066,1.271522206,1
12.97227912,-0.5254807922,0.9873772073,-0.4165930653,1.193563402,1
12.98236012,-0.4701064906,0.9098764569,-0.2394282782,1.05176099,1
12.99244112,-0.451266177,0.784605124,-0.1631238681,0.9197041695,1
13.00252212,-0.4552729815,0.8571994758,-0.2650816213,1.006147452,1
13.01260312,-0.5052672601,1.108912754,-0.3083451699,1.257004075,1
13.02268313,-0.5981043801,1.421959816,-0.3297011018,1.577466762,1
13.03276413,-0.8193957648,1.692570126,-0.213711639,1.892584401,1
13.04284513,-1.188940963,1.801409613,-0.1336865725,2.162528453,1
13.05292612,-1.589862614,1.770152737,-0.07389952339,2.380454785,1
13.06300712,-1.969523203,1.771479471,0.1220932981,2.651804656,1
13.07308812,-2.306250612,1.978293734,0.2580651087,3.04943201,1
13.08316912,-2.472389889,2.392017571,0.1745750552,3.444551679,1
13.09324912,-2.641536974,2.76727316,0.0821475327,3.826521468,1
13.10333012,-2.678571483,3.185177171,-0.2009781575,4.166592256,1
13.11341112,-2.279707761,3.696029107,-0.551703581,4.377450796,1
13.12349212,-1.882755493,4.162249246,-0.9723557834,4.670606256,1
13.13357313,-1.647576971,4.4256476,-1.139568536,4.857929909,1
13.14365413,-1.497010291,4.110115471,-1.219997572,4.541198418,1
13.15373513,-1.318626359,3.626843682,-1.144126587,4.02514549,1
13.16381512,-1.113778515,2.936284005,-0.8598495801,3.256011001,1
13.17389612,-0.7817095828,2.176424882,-0.5445780909,2.375807323,1
13.18397712,-0.3259430963,1.231494952,-0.1275710428,1.28027071,1
13.19405812,-0.0009089496732,0.2440680438,0.2977425599,0.3849943742,1
13.20413912,0.2998510659,-0.4585538542,0.3742604299,0.6635157634,1
13.21422012,0.7436573651,-0.6442316025,0.519329229,1.112548193,1
13.22430112,1.307347957,-0.5934222221,0.6549553961,1.578060578,1
13.23438113,1.938872391,-0.4549543083,0.7554076374,2.129988326,1
13.24446213,2.538067861,-0.3193661481,0.4978740041,2.606081681,1
13.25454313,3.003892436,-0.3996957815,0.1286984225,3.033099037,1
13.26462413,3.386176671,-1.142502669,0.0752536289,3.574516458,1
13.27470513,3.447501976,-2.025736873,0.2357228611,4.005551775,1
13.28478612,3.553806111,-2.663706107,0.1860589137,4.445164341,1
13.29486712,3.733059524,-3.309388404,0.003503651619,4.988767111,1
13.30494712,3.794533348,-4.006451354,-0.288499793,5.525700672,1
13.31502812,3.939455127,-4.625510108,-1.04405076,6.164794599,1
13.32510912,4.452296577,-5.387114625,-1.489112164,7.145726264,1
13.33519012,5.735621542,-6.495292384,-1.471193372,8.789231341,1
13.34527112,7.64524616,-8.568589339,-1.685197372,11.60648105,1
13.35535212,9.713438496,-11.43934184,-2.165022227,15.16234647,1
13.36543312,11.10752405,-14.96671796,-2.430174161,18.79589007,1
13.37551312,11.3867017,-19.06238613,-2.110863562,22.304423,1
13.38559412,10.12933516,-22.06129206,-0.8892065495,24.29186543,1
13.39567512,8.243829719,-22.84107674,0.5646106517,24.28979827,1
13.40575612,6.576842331,-21.75307363,2.241031938,22.8357897,1
13.41583712,5.4739832,-19.72604978,3.906764513,20.84092947,1
13.42591812,4.800365245,-17.12162275,4.790407437,18.41579418,1
13.43599912,4.447673476,-14.18728528,4.996594294,15.68524203,1
13.44607913,4.152901887,-11.21206057,4.953904942,12.94210456,1
13.45616013,3.542385914,-8.331328039,4.493574704,10.10701432,1
13.46624113,2.36995778,-5.541179402,3.701599749,7.072708798,1
13.47632213,0.7303096336,-2.775068083,2.590596031,3.865946562,1
13.48640313,-1.535955378,-0.3148626226,1.219623935,1.986398736,1
13.49648413,-4.003059969,2.270366249,-0.03042540193,4.60217098,1
13.50656513,-6.165708811,4.972447633,-0.8078969228,7.962028513,1
13.51664512,-8.145309398,7.357173725,-1.073006757,11.02839127,1
13.52672612,-9.584620827,9.338282894,-1.097733462,13.42659683,1
13.53680712,-10.01714346,10.59872858,-1.235188639,14.63563807,1
13.54688812,-10.00468538,10.74272328,-1.274516426,14.73513574,1
13.55696912,-9.51816956,10.02627798,-1.274281368,13.88328473,1
13.56705012,-8.730805719,8.883323323,-1.419019251,12.53610854,1
13.57713112,-8.253689294,7.991162176,-1.718794888,11.61620918,1
13.58721112,-7.829190794,7.45893048,-1.93938563,10.98604064,1
13.59729212,-7.51247168,7.104640083,-2.242360279,10.58023256,1
13.60737312,-7.044923639,6.82157111,-2.378043164,10.09058327,1
13.61745412,-6.333844913,6.723190538,-2.271714617,9.512074941,1
13.62753512,-5.492545186,6.879977193,-2.130434777,9.057642692,1
13.63761612,-4.843507172,7.042388871,-2.214344076,8.829389697,1
13.64769712,-4.40052036,7.24189236,-2.253004258,8.768444137,1
13.65777713,-3.995283757,7.630715829,-2.093535338,8.864141615,1
13.66785813,-3.518001856,8.100232628,-1.811231766,9.01502447,1
13.67793913,-3.242678105,8.437000675,-1.4187801,9.149364932,1
13.68802013,-3.152254423,8.719206598,-1.11587518,9.338439327,1
13.69810113,-3.412854885,9.117428881,-0.85121602,9.772392572,1
13.70818262,-3.975292711,9.378343922,-0.5185340077,10.19927274,1
13.71826262,-4.711423248,9.394447739,-0.2380810797,10.51236605,1
13.72834362,-5.071091915,9.711522948,-0.1427397434,10.95673427,1
13.73842463,-5.140425859,10.20822696,-0.03970259428,11.4294992,1
13.74850563,-5.136241007,10.68638068,-0.09157916464,11.85698488,1
13.75858663,-4.887647218,11.05369692,-0.3833259165,12.09215654,1
13.76866763,-4.458313947,11.28207981,-0.441722644,12.13906944,1
13.77874863,-3.895008101,11.22073082,-0.4280021524,11.88524607,1
13.78882862,-3.478253945,10.92986576,-0.61656901,11.48653008,1
13.79890962,-3.594656222,10.4302282,-0.8259155564,11.06315281,1
13.80899062,-3.836364037,9.407090004,-1.179332526,10.2275049,1
13.81907162,-3.989116699,8.144391385,-2.077062124,9.303674013,1
13.82915262,-3.616188593,6.714296338,-3.023934937,8.203827019,1
13.83923362,-1.952569201,4.795110937,-3.398322215,6.193077528,1
13.84931462,0.7676499528,1.263130143,-3.777237577,4.056144465,1
13.85939463,3.416204755,-3.943517772,-4.316370741,6.771472788,1
13.86947563,5.289584237,-9.459755291,-4.59793347,11.7731756,1
13.87955662,6.781770868,-14.01783414,-3.263631603,15.91048023,1
13.88963762,7.448989629,-16.75418254,-0.1410841043,18.33602967,1
13.89971862,6.743238301,-16.48715073,3.258048681,18.10834844,1
13.90979962,5.750113866,-14.28189791,5.585207182,16.37775798,1
13.91988062,5.337100466,-12.14158543,5.933745089,14.5296961,1
13.92996062,5.00927749,-10.37179346,5.148718965,12.61650774,1
13.94004162,5.043814069,-9.112518389,3.92127204,11.12899035,1
13.95012262,5.67499761,-8.920095878,2.456225846,10.85388197,1
13.96020362,6.488503182,-9.512142835,1.030153244,11.56039578,1
13.97028463,6.728250133,-9.944687104,-0.03220076278,12.00696416,1
13.98036563,6.997541896,-9.951065247,-1.337812682,12.23842453,1
13.99044663,7.385302926,-9.912709851,-2.292614905,12.57221536,1
14.00052662,6.998610767,-9.628195447,-2.321373265,12.12730284,1
14.01060762,5.551527804,-8.248741381,-1.133324441,10.00727833,1
14.02068862,3.859230158,-6.276296031,0.8127835871,7.412568141,1
14.03076962,2.771856793,-4.725519716,2.332701222,5.954428743,1
14.04085062,1.975315163,-3.652174405,2.863086221,5.043561299,1
14.05093162,1.649708866,-3.16323491,2.649796166,4.443986291,1
14.06101262,1.368838447,-2.954372367,2.069819616,3.858262305,1
14.07109263,0.9115364814,-2.772537993,1.522266462,3.291680553,1
14.08117363,0.6377715987,-2.699780504,1.129045229,2.995047664,1
14.09125463,0.8795697534,-2.632964371,0.8465001675,2.902190011,1
14.10133563,1.107721092,-1.929759505,1.082514914,2.474440604,1
14.11141663,0.9077118176,-0.5551826012,1.450397165,1.798838625,1
14.12149762,0.6227009851,0.8909940434,1.590781211,1.926710088,1
14.13157862,0.4062528491,2.049685314,1.747432796,2.723925961,1
14.14165862,-0.01997818172,2.896811791,1.943196407,3.488256005,1
14.15173962,-0.5640691996,3.607948405,2.259734842,4.294399528,1
14.16182062,-1.109774049,4.231770301,2.286929657,4.936549967,1
14.17190162,-1.705557377,4.691990027,1.930072331,5.35246444,1
14.18198262,-2.258561305,4.954562169,1.176625265,5.570747928,1
14.19206362,-2.678353967,5.202118077,0.30088595,5.858851834,1
14.20214463,-2.903279396,5.371254637,-0.4289445774,6.120735338,1
14.21222462,-3.141847549,5.425158949,-1.218546878,6.386580629,1
14.22230562,-3.324776521,5.679179538,-1.849176103,6.835690997,1
14.23238662,-3.253853304,5.725916333,-2.240685052,6.95660468,1
14.24246762,-3.083363113,5.334585578,-2.692811208,6.724296512,1
14.25254862,-2.883058555,4.77430479,-3.052796794,6.358111443,1
14.26262962,-2.827390139,4.14977655,-3.037090003,5.868449207,1
14.27271062,-2.844912197,3.482847226,-2.717377992,5.254321399,1
14.28279063,-2.594029808,2.985785363,-2.210966139,4.531255472,1
14.29287163,-2.162327245,2.563544472,-1.491059872,3.670242352,1
14.30295263,-1.852749336,2.286972342,-0.6887172192,3.02278911,1
14.31303363,-1.370098814,2.170690518,0.1357617494,2.570505658,1
14.32311463,-0.8232166278,2.090985952,0.7889238044,2.381660899,1
14.33319563,-0.5001208332,2.005776232,1.213308211,2.396951388,1
14.34327562,-0.3812717897,2.129908528,1.460111729,2.610326565,1
14.35335662,-0.4450397694,2.401979472,1.287281921,2.761278784,1
14.36343762,-0.4216339499,2.551757655,0.7915182871,2.704763117,1
14.37351862,-0.3909553635,2.440839483,0.2784759843,2.487587657,1
14.38359962,-0.2640014943,1.935300327,-0.2866650099,1.974148164,1
14.39368062,0.08218963265,1.175088032,-0.7159159814,1.378449387,1
14.40376162,0.6321956939,0.2827660865,-1.022605001,1.235050218,1
14.41384162,1.450085508,-0.7800723624,-1.161731238,2.015162609,1
14.42392262,2.318102333,-2.003120427,-0.9020675004,3.193715023,1
14.43400362,2.794605677,-3.145269924,-0.006192786098,4.207443659,1
14.44408462,2.660773728,-3.94249217,1.030903954,4.866798158,1
14.45416562,2.068668299,-4.32330203,2.05593014,5.215091343,1
14.46424662,1.050689689,-4.233750168,2.518244923,5.036878677,1
14.47432762,-0.136172297,-3.795650459,2.490598118,4.541870131,1
14.48440763,-0.8236066371,-3.209503927,1.822035667,3.781409436,1
14.49448863,-1.06373892,-2.578811553,0.5458907177,2.842499989,1
14.50456963,-0.8207496876,-2.203806224,-0.720102734,2.459459264,1
14.51465063,-0.06976429939,-2.289218257,-1.798072023,2.911777856,1
14.52473163,0.7560917616,-2.833814474,-2.65873305,3.958666525,1
14.53481263,1.437126909,-3.664519631,-2.836959107,4.852048521,1
14.54489363,1.755213102,-4.077731836,-2.119735542,4.919547614,1
14.55497362,1.685245319,-3.787859044,-1.060531064,4.279328693,1
14.56505462,1.220268883,-2.952153348,0.05054391682,3.194811454,1
14.57513562,0.6339270544,-1.866451117,0.7966666874,2.126071751,1
14.58521662,0.1386006457,-0.7483213967,1.058616686,1.303788457,1
14.59529762,-0.2499614525,0.3394875866,0.9328255358,1.023667929,1
14.60537862,-0.5570466936,1.394123561,0.457924036,1.56957827,1
14.61545962,-0.7468566692,2.063915098,-0.05537254751,2.19558797,1
14.62553962,-0.8174044955,2.441089743,-0.5954927212,2.642287044,1
14.63562062,-0.9410906482,2.717616266,-1.286546488,3.150601791,1
14.64570162,-1.01870308,2.944268963,-1.98905378,3.696323935,1
14.65578262,-1.083689035,2.967843182,-2.482374594,4.01804165,1
14.66586362,-1.104504538,2.815705647,-2.735149142,4.07788786,1
14.67594462,-1.138609008,2.684473663,-2.830751703,4.063986285,1
14.68602462,-1.216681616,2.271358522,-2.692362726,3.726687636,1
14.69610563,-1.208525335,1.391117508,-2.304042703,2.950314252,1
14.70618562,-1.135915196,0.3240561998,-1.84313359,2.189168149,1
14.71626662,-0.8846264255,-0.6301386434,-1.330082517,1.717194842,1
14.72634762,-0.5685101599,-1.360337765,-0.6404092777,1.607434813,1
14.73642862,-0.2938021213,-1.773280998,-0.02877243061,1.797685467,1
14.74650962,-0.1332755864,-1.790044965,0.5292390901,1.8713945,1
14.75658963,-0.01020689964,-1.538766135,1.043794068,1.859411588,1
14.76667063,0.06616709232,-1.169021546,1.461802744,1.872927313,1
14.77675163,0.04674322665,-0.8605171859,1.712636016,1.917236782,1
14.78683263,-0.1499255329,-0.6973465401,1.86764161,1.999213607,1
14.79691363,-0.4220450091,-0.7488570017,1.855116874,2.044594682,1
14.80699463,-0.7389097184,-0.8787026113,1.781720284,2.119583219,1
14.81707563,-0.8682834578,-0.9332723361,1.777954677,2.187701134,1
14.82715562,-0.8170261806,-0.8106047684,1.756408857,2.099900937,1
14.83723662,-0.6953444535,-0.441974659,1.704691989,1.893362164,1
14.84731762,-0.5058993441,0.1043464869,1.45904812,1.547786727,1
14.85739862,-0.3246169478,0.6694734478,1.062177714,1.296839371,1
14.86747962,-0.1121975434,1.087136554,0.3792199652,1.156832726,1
14.87756062,-0.009295903444,1.299947721,-0.5583553735,1.414818439,1
14.88764162,0.07793753743,1.390103601,-1.34925846,1.938803929,1
14.89772162,0.3249329898,1.372176037,-1.559438966,2.102450573,1
14.90780262,0.6088182333,1.261030993,-1.438956503,2.007848257,1
14.91788362,0.766467061,1.156913717,-1.20981238,1.841077701,1
14.92796462,0.8726770556,0.9431055987,-0.8177197335,1.523049236,1
14.93804562,0.8797401997,0.7191472989,-0.2149775612,1.156430287,1
14.94812662,0.653221989,0.5481501549,0.3782487792,0.9328663882,1
14.95820663,0.406059891,0.2838291103,0.7073914719,0.8636239305,1
14.96828763,0.09707021177,-0.06719561756,0.7419006423,0.7512352761,1
14.97836863,-0.2671724394,-0.4139179641,0.3700035473,0.616126463,1
14.98844963,-0.604249219,-0.628671577,-0.1206469162,0.8802844704,1
14.99853063,-0.6125923187,-0.5672290349,-0.5529314232,1.001374698,1
15.00861163,-0.4218929815,-0.3249017072,-0.8706761384,1.020603618,1
15.01869263,-0.223793993,-0.1977551723,-1.178032617,1.215299019,1
15.02877262,-0.05667179883,-0.1861127812,-1.089025862,1.106267141,1
15.03885362,-0.04371115297,-0.1675999117,-0.9245921445,0.9406758363,1
15.04893462,-0.2332007012,-0.2270000213,-0.8347941148,0.8959870484,1
15.05901562,-0.3902493122,-0.2685526747,-0.7476046742,0.8850580849,1
15.06909662,-0.539395996,-0.1687407035,-0.5144445381,0.7642477663,1
15.07917762,-0.4058795044,-0.006222606897,-0.1501138864,0.4327944914,1
15.08925862,-0.3431321561,0.1506073183,0.1672374574,0.410354247,1
15.09933862,-0.2149793154,0.2138782847,0.3864974463,0.4912639847,1
15.10941962,-0.1446779492,0.2457988197,0.5130474921,0.5869978688,1
15.11950062,-0.07276275158,0.1844749761,0.4737968876,0.5136233304,1
15.12958162,0.02928402543,0.03668718517,0.3074009176,0.3109643514,1
15.13966262,0.1246880731,0.03862085938,0.3770219602,0.398979003,1
15.14974362,0.1785649028,-0.1365740007,0.2206715067,0.3150139617,1
15.15982462,0.2804587752,-0.2231227326,-0.1940469412,0.4075476583,1
15.16990462,0.3335874537,-0.112154274,-0.5341045582,0.6396302444,1
15.17998562,0.4254890192,0.1486379761,-0.6272612286,0.7723929066,1
15.19006663,0.4791559339,0.2733649331,-0.5595418467,0.7857517889,1
15.20014763,0.5017402196,0.2371969807,-0.4014388365,0.6849516735,1
15.21022863,0.4149081901,0.1707223248,-0.2272965483,0.5029499371,1
15.22030963,0.3278501657,0.1872319382,-0.08302300707,0.3865673933,1
15.23038962,0.2225912207,0.2389862287,0.04464458786,0.3296276813,1
15.24047062,0.1805190423,0.260412181,0.01723517977,0.3173305533,1
15.25055162,0.1486142948,0.1105205619,-0.01885025382,0.186162121,1
15.26063262,-0.06502513111,-0.1708141261,-0.1305624783,0.2246158812,1
15.27071362,-0.3814086145,-0.3027372515,-0.2696296587,0.5566170385,1
15.28079462,-0.594244633,-0.4009184343,-0.3461709541,0.7960506292,1
15.29087562,-0.6556301647,-0.3668098712,-0.4847557392,0.8940852986,1
15.30095563,-0.553433699,-0.1824892616,-0.52273187,0.7828408508,1
15.31103663,-0.3804297906,0.01227213621,-0.4372103477,0.5796812219,1
15.32111763,-0.1484113964,0.2333389878,-0.2489744425,0.3721038818,1
15.33119862,0.06641559899,0.4757130933,-0.0489382714,0.4828135596,1
15.34127962,0.1995987993,0.5508001131,0.04781736016,0.5877983882,1
15.35136062,0.2860960758,0.4194406593,0.1499436593,0.5294001626,1
15.36144162,0.3233001548,0.1668713486,0.2510572938,0.4420393669,1
15.37152162,0.2264208546,0.02304446161,0.3129177656,0.3869301987,1
15.38160262,0.04586205125,-0.1583811915,0.287685349,0.3315882832,1
15.39168362,-0.2442142242,-0.2962620449,0.2319350713,0.4485595433,1
15.40176462,-0.5383461285,-0.2163510722,0.2070674479,0.6160367428,1
15.41184562,-0.6984528333,0.02463548899,0.1327710447,0.7113869678,1
15.42192663,-0.703675274,0.2539533466,0.01431449555,0.7482353228,1
15.43200662,-0.5152683377,0.5210640979,-0.02695054784,0.7333045656,1
15.44208762,-0.2907998684,0.7968603033,-0.04838351682,0.8496422018,1
15.45216862,-0.147611205,0.909025687,-0.1519675268,0.9333867883,1
15.46224962,-0.08834821254,0.8177822256,-0.2968299557,0.8744605181,1
15.47233062,-0.1358673647,0.6953193104,-0.3793217432,0.8036254533,1
15.48241162,-0.2710169837,0.628887924,-0.3849805324,0.7855954663,1
15.49249262,-0.4275811529,0.6047447705,-0.3496867387,0.819037664,1
15.50257263,-0.5580322418,0.6992884004,-0.1281697977,0.9037874456,1
15.51265363,-0.5730832672,0.8783804297,0.1279704076,1.056576091,1
15.52273463,-0.6901407239,1.088496616,0.1460961914,1.297097991,1
15.53281563,-0.7698087448,1.416932965,0.09740818083,1.61548534,1
15.54289663,-0.8810514379,1.799851331,0.136779238,2.008587814,1
15.55297763,-1.017742675,2.155520502,0.08884252153,2.385364077,1
15.56305863,-1.116874615,2.426817275,-0.04121124901,2.671806385,1
15.57313862,-1.189293551,2.572247468,-0.3181622795,2.851684313,1
15.58321962,-1.345691366,2.571290864,-0.6023813991,2.963998197,1
15.59330062,-1.494259761,2.648434934,-0.7861745898,3.140874133,1
15.60338162,-1.505853035,2.837445011,-0.8410729281,3.32055586,1
15.61346262,-1.510359484,3.146092628,-0.8359787607,3.588585387,1
15.62354362,-1.423193286,3.461349353,-0.8665766555,3.841532711,1
15.63362462,-1.228740037,3.64114948,-0.9055969528,3.948148611,1
15.64370462,-1.022725965,3.780057689,-0.978211112,4.036297996,1
15.65378562,-0.6202767295,3.687465275,-1.057075506,3.8858142,1
15.66386662,-0.04819070488,3.275738847,-0.9820710053,3.420124384,1
15.67394762,0.4383587408,2.507700639,-0.7794712687,2.662385461,1
15.68402862,0.762061184,1.569555234,-0.5995023032,1.844896716,1
15.69410962,0.8194454661,0.7216393822,-0.3992968552,1.162623004,1
15.70418963,0.8380945757,0.2274906027,-0.2009612006,0.8913696743,1
15.71427025,0.9595421219,-0.111515758,0.09037865818,0.9702191246,1
15.72435125,1.142823389,-0.2694724417,0.3916845113,1.237771163,1
15.73443225,1.260025564,-0.2876473421,0.5853208318,1.418804388,1
15.74451325,1.489886628,-0.1865554154,0.5679977976,1.605361824,1
15.75459425,2.01362992,-0.145236066,0.5282877481,2.086836581,1
15.76467525,2.492087404,-0.5296179897,0.2976772173,2.565074379,1
15.77475525,2.982969929,-1.557106512,0.000901055932,3.364920667,1
15.78483625,3.36199288,-2.985648538,-0.1975891844,4.500681593,1
15.79491725,3.546504693,-4.593766159,-0.3025090639,5.811359118,1
15.80499825,3.648917798,-6.378467939,-0.2421941574,7.35242221,1
15.81507925,3.445126837,-7.667766711,0.3430262484,8.413157093,1
15.82516025,3.271354605,-9.197266763,0.6340128623,9.782302857,1
15.83524025,3.100766474,-10.38937487,1.03111555,10.89114605,1
15.84532125,3.454277145,-10.86144866,0.8198445386,11.42695246,1
15.85540225,4.754797894,-11.61393269,0.2676083493,12.55241609,1
15.86548325,6.649230861,-13.48798401,-0.2781619889,15.04045737,1
15.87556425,8.288671432,-15.9470785,-0.5756871054,17.98173525,1
15.88564525,9.085025951,-17.98988983,0.2318736025,20.15508864,1
15.89572625,8.504234884,-18.33209462,1.816617637,20.29009127,1
15.90580625,7.364504964,-16.48496621,3.45885493,18.38351767,1
15.91588725,6.915439387,-14.0409821,4.221010255,16.2107806,1
15.92596825,6.743835302,-11.98479,4.293707517,14.40661064,1
15.93604925,6.079148385,-10.28355547,3.642684374,12.48906352,1
15.94613025,4.792642535,-9.166598117,2.26534583,10.58903845,1
15.95621125,2.941753491,-8.831359118,0.4531007044,9.319448359,1
15.96629225,0.7977262759,-8.97954335,-1.568278202,9.150303957,1
15.97637225,-1.538249241,-8.75524942,-2.814129823,9.324158396,1
15.98645325,-4.101890777,-7.204547948,-2.745418607,8.733174819,1
15.99653425,-6.526809461,-4.485616643,-1.318200974,8.028552312,1
16.00661525,-8.440234185,-0.9068657255,0.8387363076,8.530148717,1
16.01669625,-9.479784343,3.063625252,2.60269392,10.29689888,1
16.02677725,-9.691911972,6.690112254,3.590665205,12.31193065,1
16.03685725,-9.428786098,9.519403907,3.737804539,13.91014884,1
16.04693825,-8.7205345,11.2996963,2.705901954,14.52765514,1
16.05701925,-7.36941721,12.31659376,0.9124790525,14.3819126,1
16.06710025,-6.295395961,12.70188317,-0.774107033,14.19750288,1
16.07718125,-5.477815465,12.39037276,-2.025149812,13.69777468,1
16.08726225,-4.884592048,11.39731323,-2.706014221,12.69174934,1
16.09734325,-4.37033294,9.775886174,-3.096676639,11.14706987,1
16.10742325,-4.147799022,7.94822724,-2.947152225,9.43738625,1
16.11750425,-4.12588775,6.208674152,-2.31628151,7.806135054,1
16.12758525,-4.150824371,4.80455653,-1.426589057,6.507554283,1
16.13766625,-4.273252203,4.07759852,-0.3433274531,5.916533429,1
16.14774725,-4.12324247,4.094404002,0.4910352103,5.831499651,1
16.15782825,-4.048613872,4.392745317,1.365062315,6.127877351,1
16.16790825,-4.184035386,4.784986483,2.087414473,6.690257614,1
16.17798925,-4.39051402,5.289180779,2.253111116,7.233847965,1
16.18807025,-4.21745047,5.949168874,2.087292266,7.585267811,1
16.19815125,-3.869068683,7.060877182,2.155937408,8.335091191,1
16.20823225,-3.851710054,8.196245663,2.455363966,9.383119179,1
16.21831325,-4.069622333,8.870079964,2.228080355,10.01021911,1
16.22839425,-4.593297213,8.999809799,1.633064182,10.23532385,1
16.23847425,-5.541622621,8.569033143,1.322401614,10.29012421,1
16.24855525,-6.656120635,8.598242909,0.9152442008,10.91198401,1
16.25863625,-7.649944983,10.27799828,0.7209979427,12.83272165,1
16.26871725,-7.56427918,13.03067211,0.4123590599,15.07271625,1
16.27879825,-6.72108554,15.52730222,-0.4149810245,16.92460677,1
16.28887925,-6.044739275,17.2901395,-0.9256382114,18.33970019,1
16.29895925,-5.722858239,17.32670916,-0.9801371849,18.27365934,1
16.30904025,-5.919957354,14.79576408,-1.135717633,15.97655734,1
16.31912125,-7.333861461,10.67670822,-1.546181574,13.04485722,1
16.32920225,-9.062795421,6.022823911,-2.478291484,11.1602239,1
16.33928325,-9.918870478,1.76557963,-4.179934734,10.90747988,1
16.34936425,-8.487517694,-0.6030186725,-5.753923911,10.27176852,1
16.35944525,-3.900032614,-1.45485859,-5.868226452,7.194647288,1
16.36952525,2.196692501,-2.082671796,-5.546206253,6.318495356,1
16.37960625,7.99745261,-3.534754713,-5.675536723,10.42427246,1
16.38968725,12.51427175,-5.600284812,-5.513712691,14.77738864,1
16.39976825,14.90321252,-7.542400069,-4.555382112,17.31314669,1
16.40984925,14.89937791,-8.926086935,-2.606493441,17.56303784,1
16.41993025,13.49757696,-9.900865731,0.1037389612,16.7398473,1
16.43001125,11.64970478,-10.21059391,3.341967335,15.84741604,1
16.44009125,10.35206847,-10.57294002,6.042196321,15.98313231,1
16.45017225,9.361988676,-11.53439769,7.035664573,16.43744926,1
16.46025325,8.590435122,-12.31188675,6.561981048,16.38406928,1
16.47033425,7.750786064,-12.69728843,5.338992625,15.80508337,1
16.48041525,6.717866648,-12.54376978,3.785449407,14.7243173,1
16.49049625,5.627966115,-11.49467171,2.493631069,13.03915933,1
16.50057625,4.917439367,-9.778915617,1.638617136,11.06767666,1
16.51065725,4.211664065,-7.91600265,1.137498037,9.038534944,1
16.52073825,3.58963551,-6.0879578,0.7717674159,7.109454143,1
16.53081925,3.023854246,-4.662394345,0.2657879649,5.563475422,1
16.54090025,2.368995913,-3.657818137,-0.2549081969,4.365404145,1
16.55098125,1.608153874,-2.940039672,-0.6841616535,3.420244044,1
16.56106225,0.7990296203,-2.209024279,-0.9441152667,2.531716856,1
16.57114225,0.241360783,-1.287145827,-1.227853453,1.795166708,1
16.58122325,0.1627864838,-0.4814421952,-1.395650854,1.485303785,1
16.59130425,0.3600645232,-0.07135357261,-1.281278,1.332820733,1
16.60138525,0.3778540921,0.2332091796,-0.9061804318,1.009120018,1
16.61146625,0.1679068905,0.4806042892,-0.4727370067,0.694732671,1
16.62154725,-0.07259610593,0.6666398871,0.06607938409,0.6738289239,1
16.63162725,-0.3211518878,0.9548327744,0.6741985828,1.21218311,1
16.64170825,-0.590474056,1.39136543,1.305676092,1.997335082,1
16.65178925,-0.8037956858,1.906379414,1.826859035,2.760033316,1
16.66187025,-0.9353457588,2.246836469,2.158237118,3.252865393,1
16.67195125,-1.056308278,2.444632571,2.4106047,3.59207887,1
16.68203225,-1.136212234,2.809073735,2.49977123,3.928196749,1
16.69211225,-1.20810492,3.218260133,2.351903332,4.165112851,1
16.70219325,-1.243557466,3.437154159,1.991092412,4.162320612,1
16.71227417,-1.214764314,3.508453937,1.487272192,3.999609974,1
16.72235517,-1.169047274,3.638446312,0.9990424025,3.95006947,1
16.73243617,-1.119852895,3.844808001,0.4718317115,4.032275317,1
16.74251717,-1.096904035,3.940677195,-0.01298651978,4.090513887,1
16.75259817,-0.8550298664,3.951548338,-0.3016017222,4.054229142,1
16.76267817,-0.5253062528,3.742256024,-0.3957560737,3.79961178,1
16.77275917,-0.2545102939,3.28756718,-0.3502384235,3.315952413,1
16.78284017,-0.06347795784,2.782644905,-0.1252767415,2.78618671,1
16.79292117,-0.1590428039,2.317702968,0.06786877826,2.324144538,1
16.80300217,-0.2800927395,1.613610495,0.1473885722,1.644358284,1
16.81308317,-0.5364601091,0.6251831281,0.2092369111,0.8499549854,1
16.82316317,-0.9321037701,-0.3147024089,0.4710304968,1.090745054,1
16.83324417,-1.254518072,-1.173694056,0.4635403597,1.779393997,1
16.84332517,-1.370580332,-1.671684456,0.6868369009,2.268207287,1
16.85340617,-1.435528865,-1.719050996,1.038270057,2.468579381,1
16.86348717,-1.422337546,-1.505173881,1.286873347,2.438162324,1
16.87356817,-1.41406052,-1.323259985,1.387853153,2.382586939,1
16.88364917,-1.396624123,-1.193126108,1.434166317,2.33043813,1
16.89372917,-1.255389014,-1.165932462,1.434152869,2.234321941,1
16.90381017,-1.132684902,-1.26518427,1.279073746,2.12595766,1
16.91389117,-0.8784108353,-1.393044165,0.9396965258,1.896103162,1
16.92397217,-0.359326897,-1.828883926,0.3850186855,1.903200363,1
16.93405317,0.1225868762,-2.56680488,-0.4369103855,2.606608049,1
16.94413417,0.1521600464,-3.162611597,-0.9487877767,3.30536882,1
16.95421417,-0.2085000157,-3.455585752,-0.9879550584,3.60008338,1
16.96429517,-0.6228331321,-3.774356069,-0.5152427562,3.859942997,1
16.97437617,-1.059010862,-3.821871128,0.1157659529,3.967569115,1
16.98445717,-1.46043011,-3.31572854,0.6723379257,3.684962706,1
16.99453817,-1.654931014,-2.291702739,0.9363425629,2.977823954,1
17.00461917,-1.586586419,-1.11440212,0.9271175569,2.149115054,1
17.01470017,-1.479607515,-0.02085117102,0.534004717,1.573160579,1
17.02478017,-1.400539419,0.7422636813,-0.382974572,1.63068561,1
17.03486117,-1.141030633,1.220777591,-1.394481411,2.176425334,1
17.04494217,-0.6737103403,1.733200089,-2.056196188,2.772329514,1
17.05502317,-0.07883274615,2.20473827,-1.994923362,2.974357857,1
17.06510417,0.5745029712,2.631159335,-1.599344312,3.132244458,1
17.07518517,1.067480261,2.917933103,-1.298445572,3.36746323,1
17.08526517,1.241598941,2.706140521,-0.9302452326,3.11931413,1
17.09534617,1.061900555,2.090566707,-0.4048927867,2.379504174,1
17.10542717,0.9921806949,1.215363069,0.02067217313,1.569062542,1
17.11550817,0.8510876736,0.6157644331,0.3221137547,1.098759908,1
17.12558917,0.4498263001,0.2887015951,0.4898533418,0.725016281,1
17.13567017,0.09213691592,0.002190366983,0.3043019664,0.3179523482,1
17.14575117,-0.06085548162,-0.3170991826,-0.1069268632,0.3401303211,1
17.15583117,-0.01492852628,-0.4695238155,-0.5209616254,0.7014816387,1
17.16591217,0.1742949736,-0.4609734321,-0.4619686282,0.6754926027,1
17.17599317,0.2271222281,-0.5591446745,-0.2398533708,0.6494281431,1
17.18607417,0.09192349255,-0.5578003997,-0.08518121436,0.5717053906,1
17.19615517,-0.03420855045,-0.5659970266,0.02802205011,0.5677218459,1
17.20623617,-0.2154786676,-0.7832953477,0.1995302407,0.8365374916,1
17.21631617,-0.3737920314,-0.8671999687,0.3970019692,1.024386076,1
17.22639717,-0.4913432854,-0.8016123354,0.5297067942,1.079161641,1
17.23647817,-0.4817363101,-0.6258058566,0.3761642468,0.8747584713,1
17.24655917,-0.4115591973,-0.3997729647,-0.02793631531,0.5744387121,1
17.25664017,-0.250290066,-0.0620477289,-0.3598464221,0.44270135,1
17.26672117,-0.03632173419,0.1833330148,-0.70536892,0.7297092407,1
17.27680217,0.1127273011,0.3389630914,-0.9237478065,0.990410739,1
17.28688217,0.3032787037,0.3900718492,-1.052925664,1.163093493,1
17.29696317,0.4377538463,0.4299013281,-1.097951125,1.257752064,1
17.30704417,0.477062923,0.3183469784,-1.189512675,1.320558304,1
17.31712517,0.5446266228,0.2427576828,-1.259202715,1.393248337,1
17.32720617,0.5932643473,0.3031027025,-1.090461865,1.277865765,1
17.33728717,0.673916747,0.3863243687,-0.7252066223,1.06270172,1
17.34736717,0.753110851,0.4645764863,-0.4120234662,0.9760996887,1
17.35744817,0.7372315675,0.3573596013,-0.1440204298,0.8318402208,1
17.36752917,0.60246728,0.1349607539,-0.03654042006,0.6184791273,1
17.37761017,0.4900335091,-0.01253526092,0.01291825354,0.4903640017,1
17.38769117,0.4679988617,-0.05112513006,0.02296837471,0.4713430382,1
17.39777217,0.5410206449,-0.01772232592,0.03251103066,0.5422862585,1
17.40785217,0.5647878224,0.07570390105,-0.06701552331,0.5737660196,1
17.41793317,0.5437208891,0.1926078683,-0.1435825465,0.5944292589,1
17.42801417,0.5215567258,0.2721270776,-0.1553441477,0.6084458635,1
17.43809517,0.4447933093,0.2817504251,-0.1384970769,0.5444316581,1
17.44817617,0.2826894879,0.2720399541,-0.1378587071,0.4158414437,1
17.45825717,0.1112435701,0.2875894547,-0.2699227504,0.409806195,1
17.46833717,-0.1042114162,0.1565515977,-0.4415665964,0.4799473732,1
17.47841817,-0.2056845814,0.04588953316,-0.5150712135,0.5565162632,1
17.48849917,-0.2456046921,0.0768113637,-0.4710861915,0.5367903224,1
17.49858017,-0.1760158092,0.1509277457,-0.354296245,0.4234224589,1
17.50866117,0.0279505679,0.2773772925,-0.3086464477,0.4159110798,1
17.51874217,0.2550306961,0.4667060423,-0.2733859831,0.5979925431,1
17.52882317,0.3522763243,0.6813099664,-0.1780659161,0.7873940243,1
17.53890317,0.5331155017,0.8339527005,-0.1094020627,0.9958202931,1
17.54898417,0.6328692931,0.7986653388,-0.0480437205,1.0201461,1
17.55906517,0.6892969707,0.7632651258,0.04089308739,1.029260031,1
17.56914617,0.7240268004,0.7304476279,0.08867587589,1.03229451,1
17.57922717,0.7297942016,0.5808442765,0.1747427242,0.9489545141,1
17.58930817,0.6418889156,0.3944753873,0.1279568859,0.7642023134,1
17.59938817,0.5458770499,0.3868693292,0.03722388647,0.6701009246,1
17.60946917,0.4392405009,0.3501219177,-0.05127189517,0.5640446633,1
17.61955017,0.248972396,0.2706348681,-0.1093511188,0.3836510823,1
17.62963117,0.1406191045,0.1945649314,-0.1102977099,0.2641871115,1
17.63971217,0.03326130152,0.2907153761,-0.09278946519,0.3069717071,1
17.64979317,0.02770644665,0.4768334198,-0.09518039167,0.4870288127,1
17.65987317,0.04592023104,0.5267774123,-0.07069875754,0.5334804814,1
17.66995417,-0.002899634242,0.5186877894,-0.1330474719,0.5354876848,1
17.68003517,-0.07010957748,0.5175850046,-0.1957116435,0.557774719,1
17.69011617,-0.155290938,0.5282023787,-0.07473267853,0.5556059769,1
17.70019717,-0.3530636519,0.514707005,0.2337336018,0.6664897898,1
17.71027912,-0.6844680476,0.4138390267,0.4830419934,0.9343922172,1
17.72036012,-1.097277964,0.2999481297,0.636685186,1.303593433,1
17.73044013,-1.414378316,0.3229674482,0.6140710795,1.575391153,1
17.74052113,-1.749165326,0.6355958498,0.2150120598,1.873443783,1
17.75060213,-1.950341997,1.186367896,-0.223439067,2.293736625,1
17.76068313,-1.983411217,1.765075015,-0.7084322762,2.747960363,1
17.77076413,-1.751184078,2.386797761,-0.977474509,3.117515941,1
17.78084513,-1.38894936,3.009182412,-1.076645406,3.484756009,1
17.79092512,-1.185249909,3.648636839,-1.167193707,4.009951282,1
17.80100612,-1.102298968,4.28394793,-1.135273756,4.56685005,1
17.81108712,-1.122052909,4.635260925,-1.044518538,4.882178361,1
17.82116812,-1.279899373,4.679675791,-0.9185369141,4.937734093,1
17.83124912,-1.428123074,4.533039317,-0.7925748058,4.818314621,1
17.84133012,-1.398245848,4.310146964,-0.7190408796,4.587971021,1
17.85141013,-1.310028614,4.025883991,-0.6966389539,4.29059701,1
17.86149113,-1.151039604,3.73870501,-0.7143251733,3.976564821,1
17.87157212,-1.074275018,3.486708727,-0.9462069619,3.769152713,1
17.88165312,-0.9949052051,3.311524976,-1.268494964,3.683084782,1
17.89173412,-0.8922292677,3.095292018,-1.53195062,3.567040573,1
17.90181512,-0.670852806,2.701827614,-1.491549869,3.158264865,1
17.91189612,-0.2089116597,1.872929247,-1.240649938,2.256262466,1
17.92197612,0.2601452556,0.7313422519,-0.9311685079,1.212275478,1
17.93205712,0.6512067461,-0.3200760001,-0.6470956419,0.9722405267,1
17.94213812,1.203266642,-1.531004541,-0.4751143384,2.004384981,1
17.95221912,1.711953646,-2.827800613,-0.1946713507,3.311365055,1
17.96230013,2.278744432,-3.964836136,-0.0484354474,4.57328632,1
17.97238113,2.721355268,-4.652176335,0.4065194456,5.404977078,1
17.98246112,3.270552659,-4.968147005,1.131330979,6.054660118,1
17.99254212,3.850351746,-5.118760171,1.616789042,6.606127539,1
18.00262312,4.570231701,-5.222421949,1.910963631,7.198089386,1
18.01270412,5.22248276,-5.616490955,1.610958783,7.836739438,1
18.02278512,5.838341918,-6.287100517,0.7870738184,8.615878043,1
18.03286612,6.332716985,-7.616676664,-0.01342462242,9.905415087,1
18.04294613,6.697248196,-9.923538895,-0.6726607651,11.99092282,1
18.05302713,7.244081558,-12.95216739,-0.5719671068,14.85134688,1
18.06310813,7.360383262,-16.35882774,-0.0002596529201,17.93840814,1
18.07318913,7.085013903,-19.08860972,0.5686978555,20.36899262,1
18.08327013,6.411452667,-20.61754435,1.193045416,21.62436629,1
18.09335113,5.643500413,-20.72128331,1.87676502,21.55789706,1
18.10343213,5.36202013,-19.63065597,2.285888268,20.47777328,1
18.11351212,5.555108054,-17.8524522,1.698993292,18.77380764,1
18.12359312,5.920701705,-15.33138073,0.9467788196,16.46214852,1
18.13367412,6.149622536,-12.85931361,0.5234415758,14.26372304,1
18.14375512,6.324981703,-10.74644562,-0.4058949995,12.4762269,1
18.15383612,5.707123382,-8.757840321,-0.8460733938,10.48746226,1
18.16391712,4.359190485,-6.656684307,-0.14251532,7.958284882,1
18.17399712,2.231065359,-4.146443637,1.525292981,4.949461198,1
18.18407812,0.2060441852,-1.036265777,4.130580726,4.263566359,1
18.19415912,-1.468166853,2.637883049,6.544972082,7.207676494,1
18.20424012,-2.519420214,6.288324339,8.13543579,10.58658664,1
18.21432112,-2.928859211,8.987027786,8.208183339,12.51875227,1
18.22440212,-3.276712409,10.81501475,6.61717701,13.09535871,1
18.23448312,-4.024327462,11.79523379,4.141527883,13.13297396,1
18.24456313,-4.631231609,12.08150295,1.609253735,13.03843232,1
18.25464413,-4.978016521,11.95184679,-0.78129158,12.97064789,1
18.26472513,-5.399426522,11.62928397,-2.742570428,13.11166446,1
18.27480613,-5.778996187,11.40226933,-3.86905582,13.35582778,1
18.28488713,-5.77569368,10.99123346,-4.463986039,13.19443147,1
18.29496813,-5.494471259,10.22647612,-4.859511001,12.5851053,1
18.30504812,-5.193998634,9.256965666,-4.646950679,11.58719922,1
18.31512912,-4.697031789,8.354946113,-4.17807415,10.45578958,1
18.32521012,-3.953142874,7.825014712,-3.947341851,9.614556751,1
18.33529112,-3.217067301,7.500891269,-3.98715028,9.083515796,1
18.34537212,-2.656589169,7.55480903,-4.458180338,9.165586583,1
18.35545312,-2.319091097,7.796594321,-4.495956275,9.294013629,1
18.36553312,-2.026740547,7.908039912,-4.015568333,9.097777835,1
18.37561412,-1.882063183,7.956408665,-3.205817842,8.782019625,1
18.38569512,-2.111678663,7.907038869,-2.359791226,8.517573896,1
18.39577612,-2.506437933,7.967082172,-1.670222214,8.517409917,1
18.40585712,-3.108509941,8.051858613,-1.373155592,8.739611974,1
18.41593812,-3.905160622,8.364698684,-1.165841392,9.304711156,1
18.42601812,-4.325661089,8.775107149,-0.6358912803,9.803989344,1
18.43609912,-4.567581743,9.056345943,-0.04022241175,10.14306771,1
18.44618012,-4.935604327,9.43865152,0.115608809,10.65184012,1
18.45626113,-5.155877126,10.09897174,-0.4701104374,11.34871371,1
18.46634213,-5.064303882,11.06173684,-1.502716881,12.25835853,1
18.47642313,-5.000748741,11.81105636,-2.488691926,13.06530244,1
18.48650413,-4.801728231,11.83575383,-3.283036757,13.18787295,1
18.49658412,-4.381921829,11.10624819,-3.79679242,12.52859212,1
18.50666512,-4.290778062,9.922187018,-3.870331682,11.48216177,1
18.51674612,-4.400407216,9.009027935,-3.904975265,10.75987917,1
18.52682712,-4.270173059,8.427305406,-3.139999244,9.955573797,1
18.53690812,-3.426424226,7.731197307,-2.457848448,8.80640754,1
18.54698912,-1.463748405,6.378202475,-2.377028818,6.962348182,1
18.55706913,0.4359157741,4.44049485,-2.199060477,4.974322472,1
18.56715013,2.264283975,1.471482224,-1.988396407,3.353499982,1
18.57723113,4.090138459,-2.998400731,-2.112768584,5.493944907,1
18.58731213,5.409915258,-7.777939948,-2.441806027,9.783963901,1
18.59739312,5.809784117,-12.20143636,-1.745365221,13.62625922,1
18.60747412,5.041283394,-14.59728385,0.3184059988,15.44657297,1
18.61755412,3.973350851,-13.10626024,2.73691734,13.96611223,1
18.62763512,4.346340352,-9.296283513,3.744729981,10.92403608,1
