Time (s),Linear Acceleration x (m/s^2),Linear Acceleration y (m/s^2),Linear Acceleration z (m/s^2),Absolute acceleration (m/s^2),label
0.018147,-0.6211052799,-0.7122540164,-1.633681648,1.88732437,0
0.028228,-0.6810146821,-0.7913569039,-2.659883198,2.857447352,0
0.038309,-0.493875276,-0.4369238341,-2.760001563,2.837679307,0
0.048389,0.1400153795,0.1653016636,-1.638516126,1.652774649,0
0.05847,0.8725494401,0.7814821261,-0.5234351438,1.282981367,0
0.06855,1.312736751,1.149042487,-0.07294693887,1.746109296,0
0.078631,1.375722081,0.9900640029,0.140922575,1.700793094,0
0.088712,1.170680986,0.5413325939,0.3211407781,1.329160016,0
0.098792,0.6710127273,-0.2568962502,-0.0730779165,0.7222147503,0
0.108873,-0.09870699361,-1.02466724,-0.5809963042,1.182050223,0
0.118953,-0.4365950744,-1.05635184,-0.2160891169,1.163266511,0
0.129034,-0.551949091,-0.8152106202,-0.8636086088,1.309593824,0
0.139115,-0.5553194261,-0.5952830985,-1.79896957,1.974596958,0
0.149195,-0.6824605523,-0.551722219,-2.180820234,2.350771513,0
0.159276,-0.9816533679,-0.5113065568,-2.015995411,2.299851132,0
0.169357,-1.158112688,-0.4063890892,-1.401805049,1.863178597,0
0.179437,-1.068643272,-0.4567333236,-0.5993507141,1.307602788,0
0.189518,-0.7690256564,-0.7271381038,-0.08820700228,1.06203143,0
0.199598,-0.6189502886,-1.156933305,-0.00831181705,1.312121648,0
0.209679,-0.6804105185,-1.151037265,0.4238436127,1.402671974,0
0.21976,-0.4823701483,-0.940811736,-0.5034335732,1.171005143,0
0.22984,-0.5296969271,-0.6986776587,-1.286078126,1.556510922,0
0.239921,-0.4202836816,-0.5527320331,-2.383336794,2.48242731,0
0.250001,0.0987197113,0.200032078,-3.388462055,3.395796448,0
0.260082,0.8520755607,1.165036376,-4.568841233,4.791414482,0
0.270163,1.329516068,1.429935711,-5.469515342,5.807574983,0
0.280243,2.036245196,1.246004818,-4.820220051,5.378972378,0
0.290324,2.367026571,1.004060483,-3.085837655,4.016633699,0
0.300405,2.028698195,0.6451911306,0.4466921926,2.175183182,0
0.310485,1.758806946,0.1319090921,2.905677924,3.399083124,0
0.320566,1.205157485,-0.6752411413,1.839529366,2.300483309,0
0.330646,0.3337431358,-1.336049016,0.5368211746,1.478035326,0
0.340727,0.1455505,-1.464684544,-1.079980731,1.825607882,0
0.350808,0.3822514907,-1.321092423,-2.917410362,3.225319304,0
0.360888,0.810651473,-1.180714808,-4.895252107,5.100464337,0
0.370969,0.9975452229,-1.314862214,-5.851408691,6.079715683,0
0.381049,0.8618213343,-2.018551814,-6.554117128,6.911854944,0
0.39113,0.9641418341,-3.591215135,-7.400841317,8.282442141,0
0.401211,1.980911533,-5.032463454,-8.213349354,9.834063581,0
0.411291,1.270704626,-4.97235817,-7.913172013,9.431719214,0
0.4213715,-1.90752576,-4.432738518,-7.050751559,8.54405775,0
0.4314525,-4.307085362,-4.940663338,-3.771705526,7.562202134,0
0.4415325,-3.426490007,-5.016525114,-0.5662180513,6.101390076,0
0.4516135,-1.178415098,-5.102997832,-2.885522572,5.979589411,0
0.4616935,0.07189093173,-5.491920703,-1.450139303,5.680604309,0
0.4717745,1.199295505,-5.321124119,-1.881750357,5.770065511,0
0.4818555,2.372956232,-5.348613634,-0.7989138454,5.905662741,0
0.4919355,2.210523505,-4.967754657,0.1350695121,5.439048104,0
0.5020165,0.5157027858,-4.011910315,0.06897141695,4.045507483,0
0.5120965,-0.7090392172,-3.869891094,-1.162901558,4.102576474,0
0.5221775,-0.2455789644,-4.738263722,-1.501702974,4.976601647,0
0.5322585,0.763779096,-5.179630855,-1.411895589,5.422673092,0
0.5423385,2.603621873,-4.98817138,-0.7962229568,5.682840097,0
0.5524195,4.748256614,-4.552854653,0.186512146,6.580973571,0
0.5625005,6.067684919,-3.714451052,1.831686496,7.346361161,0
0.5725805,7.29512892,-2.39206581,3.132684085,8.291839023,0
0.5826615,8.298324015,-1.119975394,3.395026724,9.035636823,0
0.5927415,7.746935087,-0.6823691896,2.883218184,8.294189415,0
0.6028225,7.128566889,-0.8368573049,2.63396366,7.645558227,0
0.6129035,6.244412334,-1.15374628,2.592788737,6.859035596,0
0.6229835,5.351061863,-1.443078205,2.286495793,5.995364941,0
0.6330645,4.928682978,-1.330657883,2.370059522,5.628476564,0
0.6431455,4.631601153,-1.167267235,2.555689908,5.417175735,0
0.6532255,4.957495133,-1.229023627,3.054840103,5.951412028,0
0.6633065,6.102015676,-1.170828044,3.313585535,7.04168181,0
0.6733865,7.532424719,-0.3023177138,3.674284481,8.386249734,0
0.6834675,7.998707423,0.8743186614,4.329000142,9.136957687,0
0.6935485,7.545035409,2.121795808,4.58076049,9.078157491,0
0.7036285,7.090824282,3.236827966,4.432371898,8.966758886,0
0.7137095,6.656374404,4.072219666,4.107888851,8.818449072,0
0.7237905,6.286566666,4.633364673,3.834145018,8.699980268,0
0.7338705,5.740859478,4.962091629,3.381731325,8.307582538,0
0.7439515,5.039359075,5.17887481,2.672078735,7.704277316,0
0.7540315,4.543702299,5.433038072,1.850363234,7.320312655,0
0.7641125,4.391005186,5.599635186,1.428265892,7.257877391,0
0.7741935,4.079553244,5.458587481,1.550857008,6.988854657,0
0.7842735,3.673597434,5.116773287,1.330750415,6.43797978,0
0.7943545,2.589755201,4.713167472,1.154398245,5.50031044,0
0.8044355,1.472683243,4.072134882,1.027206101,4.450419171,0
0.8145155,0.937712127,3.475820042,0.7752104026,3.682605079,0
0.8245965,0.6166292363,3.045352703,0.7583142883,3.198350397,0
0.8346765,0.218730889,2.861580563,0.6890364772,2.951483997,0
0.8447575,-0.1216600925,2.689974139,0.133488425,2.696030639,0
0.8548385,-0.1191218162,2.721214643,-0.3226224625,2.742860622,0
0.8649185,0.1054633051,2.767285439,-0.2275397193,2.778626556,0
0.8749995,0.5097228384,2.686669877,0.1238555758,2.737398876,0
0.8850805,0.8570082718,2.716857297,0.6782454407,2.9284456,0
0.8951605,1.262151904,2.925154999,1.066315642,3.359551793,0
0.9052415,1.367523408,3.029351213,1.597720979,3.687790852,0
0.9153215,1.585866627,2.974419546,1.925650667,3.882045219,0
0.9254025,2.016317593,2.855101263,2.04905513,4.051637543,0
0.9354835,1.633853556,2.767080787,1.607348127,3.593018442,0
0.9455635,0.8747498935,2.912436721,0.7827093105,3.140081033,0
0.9556445,0.5115693891,3.180984718,-0.3928364128,3.245718327,0
0.9657255,0.821202262,3.596130597,0.2019264297,3.69422559,0
0.9758055,1.119317874,3.241242614,1.924115188,3.932015443,0
0.9858865,1.513007981,2.067886527,1.249760485,2.850833055,0
0.9959665,1.744766466,1.60860177,1.570659627,2.845835789,0
1.0060475,1.632215166,1.779683699,1.543644906,2.866049548,0
1.0161285,1.4685937,2.220174919,0.9501468158,2.826432929,0
1.0262085,1.390277263,2.624770668,0.7118129902,3.054336206,0
1.0362895,1.303658364,2.746750018,0.6390736274,3.106859491,0
1.0463705,0.975434854,2.660713502,0.268791241,2.846597658,0
1.0564505,0.5763834357,2.498546239,-0.1962863517,2.571668622,0
1.0665315,0.4470360088,2.35274884,-0.5659789002,2.460812958,0
1.0766115,0.6241528487,2.358312466,-0.9441605826,2.615844733,0
1.0866925,1.057235062,2.41190629,-1.411424595,2.987834888,0
1.0967735,1.648885578,2.326916426,-1.526321506,3.234659339,0
1.1068535,2.164833362,2.128048528,-1.400770091,3.343239578,0
1.1169345,2.486793335,1.816896549,-1.140276196,3.284126058,0
1.1270155,2.592316282,1.38695546,-1.135575034,3.151710617,0
1.1370955,2.607076993,0.9881291592,-1.187948545,3.030589287,0
1.1471765,2.497067478,0.8464388448,-1.269111845,2.926166363,0
1.1572565,2.113938028,1.248535493,-1.286939421,2.771964634,0
1.1673375,1.827585844,1.794987032,-1.11233396,2.792729006,0
1.1774185,1.637056076,2.094211569,-0.9481939919,2.822188253,0
1.1874985,1.437283614,2.092089029,-0.766565879,2.651460718,0
1.1975795,1.336089946,2.014447361,-0.4534094739,2.45941348,0
1.2076605,1.24801626,1.841878778,-0.2755629015,2.241873531,0
1.2177405,1.057127473,1.650547941,-0.2577920437,1.976937971,0
1.2278215,0.9317701864,1.42943782,-0.3900301878,1.750317603,0
1.2379015,1.045806094,0.9392408815,-0.3839449905,1.45715393,0
1.2479825,1.324950415,0.2908445996,-0.09361041427,1.359723168,0
1.2580635,1.614434368,-0.3168015593,0.2809493566,1.669039873,0
1.2681435,1.76190524,-0.3886141384,0.4766831464,1.866161259,0
1.2782245,1.60065482,0.1150138548,0.3155631191,1.635513412,0
1.2883055,1.473070913,0.6440637875,-0.003106040955,1.607720661,0
1.2983855,1.457504455,0.7570036349,-0.125000753,1.647118371,0
1.3084665,1.191109988,0.6091886544,0.2728743517,1.365398928,0
1.3185465,0.6677017415,0.5673801854,1.105207373,1.410400379,0
1.3286275,0.1976727265,0.5638578227,1.88760035,1.97991041,0
1.3387085,0.06624193668,0.3859963399,2.315421238,2.348309324,0
1.3487885,0.1397636569,-0.03130891621,2.370461079,2.374784171,0
1.3588695,0.02202763081,-0.3925244638,2.360916084,2.393425459,0
1.3689505,-0.4339616346,-0.577802555,2.219915303,2.334566865,0
1.3790305,-1.016944238,-0.9514153692,1.798493753,2.274631084,0
1.3891115,-1.571697654,-1.475872899,1.457578715,2.602493043,0
1.3991915,-1.815826508,-1.849693581,1.58883365,3.040227725,0
1.4092725,-2.038665651,-2.010735256,2.037971148,3.514618088,0
1.419353625,-2.022356597,-2.084235342,2.228315413,3.660512634,0
1.429433625,-1.845016394,-2.050831953,2.112664066,3.474672164,0
1.439514625,-1.711068377,-2.090756156,1.985019786,3.352509486,0
1.449595625,-1.404266142,-2.277423254,1.892332063,3.277123847,0
1.459675625,-1.297280806,-2.703180368,1.721049721,3.457185811,0
1.469756625,-1.357796565,-3.12491372,1.583244881,3.757041605,0
1.479837625,-1.403211889,-3.3272879,1.473035245,3.899959129,0
1.489917625,-1.362649169,-3.402627228,1.172445237,3.848286975,0
1.499998625,-1.217236517,-3.355462417,0.9271087861,3.687861639,0
1.510078625,-1.08528591,-3.23393798,0.6934015699,3.480949023,0
1.520159625,-1.003106802,-3.068929846,0.3459937835,3.247193458,0
1.530240625,-0.8110602665,-2.855926305,0.06059001803,2.969478905,0
1.540320625,-0.7019985849,-2.542589221,-0.03848988175,2.637999892,0
1.550401625,-0.8331966555,-2.294469641,0.01320476711,2.441102613,0
1.560482625,-1.00059016,-2.246766594,-0.1131699353,2.462102401,0
1.570562625,-1.135769016,-2.298559769,-0.3428339481,2.586674194,0
1.580643625,-1.308126807,-2.415674821,-0.1784453273,2.752911789,0
1.590723625,-1.681585547,-2.343167008,0.1907502079,2.890423363,0
1.600804625,-2.025582506,-2.141749139,0.5113144505,2.991908477,0
1.610885625,-2.068890494,-1.872648581,0.5536003447,2.844924238,0
1.620965625,-1.696760826,-1.46431383,0.5062283961,2.297711793,0
1.631046625,-1.079004246,-0.852508547,0.5472071452,1.480019137,0
1.641127625,-0.7335133231,-0.4726690328,0.5543119508,1.033788928,0
1.651207625,-0.7923532695,-0.5036195147,0.3441242094,0.9999388935,0
1.661288625,-1.196224548,-0.8825810695,0.06913338482,1.488180748,0
1.671368625,-1.527021418,-1.497058823,0.01794861317,2.138527924,0
1.681449625,-1.59754527,-2.217408602,0.2320607134,2.742791274,0
1.691530625,-1.584286124,-2.900631485,0.3888981669,3.327892324,0
1.701610625,-1.912235985,-3.34333383,0.1431772614,3.854222008,0
1.711691625,-2.351130915,-3.07190988,-0.03767368354,3.868574181,0
1.721772625,-2.652893436,-2.495502763,0.1620023721,3.645767737,0
1.731852625,-2.599265113,-1.901299353,0.3230586648,3.236585432,0
1.741933625,-2.052482622,-1.376470233,0.4688800371,2.515393349,0
1.752013625,-1.50073526,-0.8090885854,0.5171395198,1.781646413,0
1.762094625,-1.288109449,-0.3155850461,0.5879088094,1.450674547,0
1.772175625,-1.123502142,-0.02897353828,0.6238190458,1.285397499,0
1.782255625,-1.168704627,-0.131265606,0.4383236575,1.25508119,0
1.792336625,-1.393484461,-0.4021451801,0.06719781026,1.451907447,0
1.802417625,-1.501946803,-0.6347579437,-0.09745729744,1.633480875,0
1.812497625,-1.482981359,-0.7849544951,0.02296479329,1.678068727,0
1.822578625,-1.265552645,-0.804110266,0.1448043953,1.506381469,0
1.832658625,-0.8506517637,-0.7474071845,0.160585738,1.143684267,0
1.842739625,-0.2907218081,-0.6333204058,0.0686743053,0.7002357219,0
1.852820625,0.6863701469,-0.3361628598,0.1022223397,0.7710764252,0
1.862900625,2.309259589,0.4589005941,0.2568138045,2.368379812,0
1.872981625,3.953086156,1.586229446,0.1382397994,4.261704383,0
1.883062625,4.773838182,2.408541217,-0.2274099112,5.351851741,0
1.893142625,4.829855677,2.676124424,-0.6943627059,5.565185295,0
1.903223625,4.109058294,1.973980243,-1.125650409,4.695534784,0
1.913304625,2.692339337,0.9302981499,-1.139153969,3.067868563,0
1.923384625,0.9571985579,0.122744751,-0.6692209212,1.174373022,0
1.933465625,-0.5558456755,-0.5440761074,-0.1548108816,0.7930634493,0
1.943545625,-1.728150433,-1.356506377,0.105118831,2.199468899,0
1.953626625,-2.3483798,-2.022486113,0.144903798,3.102633539,0
1.963707625,-2.37548223,-2.376706344,0.5294899356,3.401765492,0
1.973787625,-2.192274345,-2.367674443,1.179633658,3.435619979,0
1.983868625,-2.097842982,-2.196169176,1.491070982,3.383400197,0
1.993949625,-2.126872653,-1.876741047,1.538521721,3.226886011,0
2.004029625,-2.030131055,-1.596106855,1.492480745,2.982698102,0
2.014110625,-1.971006934,-1.774802443,1.077827786,2.862953856,0
2.024190625,-1.687528072,-1.715775094,0.7377040956,2.51710995,0
2.034271625,-0.968792417,-1.144492477,0.8835317536,1.740416656,0
2.044352625,-0.2208399796,-0.7496609938,1.230973381,1.458100602,0
2.054432625,0.4537234694,-0.5133671156,1.667776762,1.803022493,0
2.064513625,1.291506096,-0.04578311384,2.257560847,2.601281428,0
2.074594625,2.17356267,0.6020176291,2.83318239,3.621287391,0
2.084674625,2.928111352,1.061459091,3.170324074,4.444264419,0
2.094755625,3.706203262,1.281128165,3.080699707,4.986776783,0
2.104835625,4.316285956,1.195716717,2.664489634,5.211484235,0
2.114916625,4.685026578,1.090271831,2.376088001,5.365068582,0
2.124997625,4.870625973,1.094033929,2.105812152,5.41796571,0
2.135077625,4.852100825,1.063039593,1.795833124,5.281851209,0
2.145158625,4.732665598,1.274059759,1.509394401,5.128315843,0
2.155239625,4.304071122,1.582032607,1.426347567,4.802324726,0
2.165319625,3.668899196,1.676876199,1.530076588,4.314379383,0
2.175400625,2.99574551,1.657089221,1.626841575,3.790389078,0
2.185481625,2.474545172,1.583751689,1.410295206,3.258922489,0
2.195561625,2.187195454,1.513202693,0.9026908135,2.808639715,0
2.205642625,1.971126217,1.501358573,0.5188363087,2.531522712,0
2.215722625,1.759444731,1.344113495,0.3721062791,2.24516145,0
2.225803625,1.450534574,1.022245324,0.06515082797,1.775747922,0
2.235884625,0.965749526,0.8992935812,-0.2792185807,1.348838059,0
2.245964625,0.6666983593,0.9646180898,-0.547259624,1.29401231,0
2.256045625,1.059849352,0.8896988851,-0.7220656443,1.560840655,0
2.266126625,1.823604475,0.9326127702,-0.6749113584,2.156572559,0
2.276206625,2.524736502,1.344748503,-0.1464359238,2.864277644,0
2.286287625,2.975749787,1.985708004,0.522993679,3.615473062,0
2.296367625,2.966959083,2.65021892,1.257697495,4.17232663,0
2.306448625,2.228361021,3.161457356,1.613073721,4.190753188,0
2.316529625,0.8348748064,3.532410564,1.533634619,3.940428337,0
2.326609625,-0.7879380369,3.646203813,1.170800854,3.909785574,0
2.336690625,-2.152461239,3.396251716,0.4226613057,4.043050541,0
2.346771625,-3.186283464,2.931867603,-0.5021121025,4.358940986,0
2.356851625,-3.748236557,2.305503922,-1.556846895,4.667804395,0
2.366932625,-3.742156037,1.695447541,-2.281839656,4.699475118,0
2.377013625,-3.313179154,0.8075946218,-2.538774498,4.251439889,0
2.387093625,-2.672754673,-0.2461286026,-2.562309541,3.710744806,0
2.397174625,-2.162551194,-1.133172852,-2.488510662,3.486171782,0
2.407254625,-1.677233464,-1.512644868,-2.226461261,3.171488032,0
2.4173355,-1.012607943,-1.674007555,-1.913668553,2.736750531,0
2.4274165,-0.3457528782,-1.607363915,-1.830611193,2.460548953,0
2.4374965,0.4902621353,-0.9366672295,-1.696200078,1.998698868,0
2.4475775,1.315098442,-0.01518989682,-1.361065158,1.892673508,0
2.4576585,1.791671661,0.4828259388,-1.16581793,2.19142412,0
2.4677385,1.593802468,0.1067385828,-1.638334862,2.288174065,0
2.4778195,0.7539972889,-0.769902885,-2.461879519,2.687398952,0
2.4879005,-0.5002813393,-1.620061436,-3.023418043,3.46640118,0
2.4979805,-1.735422031,-2.041422321,-3.139260449,4.127232836,0
2.5080615,-2.505731297,-1.96324534,-2.757795993,4.211705158,0
2.5181415,-2.451415341,-1.698601237,-1.846351898,3.50766285,0
2.5282225,-1.605415038,-1.703861392,-0.7416333514,2.455711936,0
2.5383035,-0.665900799,-1.990991255,0.02285450019,2.099521941,0
2.5483835,-0.3753625935,-2.187159786,0.3280872703,2.243257957,0
2.5584645,-0.7062980425,-2.117437879,0.2658349619,2.247903094,0
2.5685455,-1.345505133,-1.876291104,-0.1993532894,2.317454229,0
2.5786255,-2.007276043,-1.576730352,-0.7438823368,2.658683255,0
2.5887065,-2.428170905,-1.212523954,-1.123165781,2.937299721,0
2.5987865,-2.387457327,-0.7590370041,-1.106283992,2.738604377,0
2.6088675,-1.971174164,-0.3079541373,-0.6888722435,2.11066537,0
2.6189485,-1.488691165,-0.104968923,-0.3902736513,1.542573623,0
2.6290285,-1.186121728,-0.1401177058,-0.3815249741,1.253825758,0
2.6391095,-0.9756693274,-0.2247567371,-0.5294348256,1.132584417,0
2.6491905,-0.9689327502,-0.2481111011,-0.666199007,1.201753265,0
2.6592705,-1.099868281,-0.2032655883,-0.7883485115,1.368400713,0
2.6693515,-1.140055025,-0.005278866291,-0.8390808548,1.415559962,0
2.6794325,-1.104570027,0.3140688631,-0.9238742526,1.473858144,0
2.6895125,-0.760797016,0.6052733588,-0.8490684839,1.290769239,0
2.6995935,-0.3956196874,0.7524094775,-0.7854599869,1.157403279,0
2.7096735,-0.2757839262,0.8072326791,-0.807534834,1.174646279,0
2.7197545,-0.283460151,0.7961577603,-0.8513804729,1.199610581,0
2.7298355,-0.2715914726,0.8828079414,-0.7754144704,1.20597653,0
2.7399155,-0.484894976,1.100350091,-0.8494257487,1.472215189,0
2.7499965,-0.8747686046,1.05863167,-0.9589476062,1.674963174,0
2.7600775,-1.133343006,0.7392131889,-1.028422322,1.699574941,0
2.7701575,-1.221311442,0.4430704272,-1.025942518,1.655436828,0
2.7802385,-1.102353348,0.3836741182,-0.9224719441,1.487730896,0
2.7903195,-0.7883613753,0.3495722795,-0.8486531854,1.209928372,0
2.8003995,-0.259534514,0.0694608289,-0.9078809483,0.9468002889,0
2.8104805,0.5404400164,-0.3399243736,-0.8828683139,1.089532217,0
2.8205605,1.417779057,-0.3774225676,-0.641796822,1.601389525,0
2.8306415,2.092655332,0.06046254873,-0.4745483279,2.146638809,0
2.8407225,2.50136869,0.5866739506,-0.353930794,2.593510874,0
2.8508025,2.878242788,0.9207633877,-0.3561588755,3.042849965,0
2.8608835,3.20226449,1.048853663,-0.3113157016,3.38400788,0
2.8709645,3.119980132,1.068597372,-0.4587083669,3.329653095,0
2.8810445,2.673548141,1.005238112,-0.6317571527,2.925317149,0
2.8911255,2.205284985,0.7892507368,-1.128363663,2.599885218,0
2.9012055,1.957040859,0.5560158294,-1.507308115,2.532022962,0
2.9112865,1.944968698,0.4532340574,-1.624334435,2.574254592,0
2.9213675,1.974380193,0.5875603884,-1.623739919,2.622963149,0
2.9314475,1.91411411,0.6475452197,-1.732347126,2.661611205,0
2.9415285,1.618647287,0.5932643473,-1.595446705,2.348921415,0
2.9516095,1.279305296,0.5281257802,-1.57718892,2.098347867,0
2.9616895,0.9569646692,0.4268531746,-1.543595935,1.865656298,0
2.9717705,0.6800253332,0.3035207784,-1.478510578,1.65546152,0
2.9818515,0.5266668999,0.2101863527,-1.353473718,1.467462924,0
2.9919315,0.4895224625,0.1285685778,-1.269478611,1.366652138,0
3.0020125,0.4403011858,-0.02921561301,-1.12743264,1.210711792,0
3.0120925,0.1854403514,-0.2445732433,-1.224992264,1.262857966,0
3.0221735,-0.09120954752,-0.3183364534,-1.309697369,1.350912461,0
3.0322545,-0.2594737029,-0.2798477411,-1.244780703,1.30196788,0
3.0423345,-0.2096846616,-0.2053676623,-1.01075496,1.052506116,0
3.0524155,0.02440861702,-0.2003267777,-0.5533687949,0.5890192031,0
3.0624965,0.1551511896,-0.2367654562,0.009927402735,0.2832460524,0
3.0725765,0.09132707655,-0.3165015972,0.5571268004,0.6472280646,0
3.0826575,-0.02325788498,-0.3430982423,0.8733015382,0.9385696084,0
3.0927385,-0.3229452288,-0.4652354676,0.8487116575,1.020318156,0
3.1028185,-0.7084498179,-0.7111442149,0.4865093923,1.115490308,0
3.1128995,-1.011961241,-1.039989869,0.03195210993,1.45143564,0
3.1229795,-1.174959394,-1.239480495,-0.1921494466,1.718651472,0
3.1330605,-1.151010953,-1.285903879,-0.256219435,1.744712984,0
3.1431415,-0.9849424267,-1.266827922,-0.3266264896,1.637574253,0
3.1532215,-0.8977885079,-1.160191081,-0.3640384372,1.511486531,0
3.1633025,-0.8419388276,-0.9968075967,-0.2426595958,1.327166174,0
3.1733835,-0.8035337305,-0.8115911937,0.002710184455,1.142083214,0
3.1834635,-0.7899132264,-0.6976962036,0.2484690969,1.082811059,0
3.1935445,-0.6337393588,-0.6033648276,0.4474423903,0.9827916273,0
3.2036255,-0.4059131259,-0.5281602788,0.6764455216,0.9493667834,0
3.2137055,-0.2035801685,-0.4890833366,0.8516561691,1.002978377,0
3.2237865,-0.0167563659,-0.4785811526,1.023514169,1.130000863,0
3.2338675,0.07870527685,-0.4316057914,1.308052547,1.379666462,0
3.2439475,0.08525123477,-0.3333708143,1.555081036,1.592696111,0
3.2540285,0.01294339657,-0.2498252124,1.675119111,1.693695428,0
3.2641085,-0.07795507908,-0.2290722746,1.626556231,1.644456224,0
3.2741895,-0.1007083493,-0.2021019924,1.556847918,1.573137892,0
3.2842705,0.03938216686,-0.0985326004,1.656717192,1.660111889,0
3.2943505,0.1511230427,0.04527206719,1.772589711,1.779596026,0
3.3044315,0.2276052082,0.1241042286,1.748282982,1.767399042,0
3.3145125,0.2982688093,0.1216472286,1.545214298,1.578432627,0
3.3245925,0.3271844602,0.1703071725,1.443887606,1.490256898,0
3.3346735,0.242146064,0.2996721411,1.472046919,1.521630783,0
3.3447545,0.09753038764,0.4493491673,1.640660738,1.703876318,0
3.3548345,0.01958115578,0.6121473455,1.708941745,1.815375907,0
3.3649155,0.09382325292,0.7506596982,1.639631044,1.805736067,0
3.3749955,0.2624546134,0.779201712,1.522763475,1.730562433,0
3.3850765,0.3810145122,0.8202491659,1.363337971,1.636053537,0
3.3951575,0.4169047219,0.9259048444,1.164909199,1.545355225,0
3.4052375,0.4247335589,1.080384189,0.9450508212,1.496913373,0
3.415317792,0.3373901904,1.277234212,0.6675464979,1.480127596,0
3.425398792,0.2751910186,1.576305259,0.4968192029,1.675499235,0
3.435478792,0.1868968928,1.868025772,0.3156324086,1.903700226,0
3.445559792,0.2379518563,2.152203961,0.06542785808,2.166306483,0
3.455640792,0.379084931,2.276982374,-0.2576400161,2.322656344,0
3.465720792,0.4510805279,2.215483114,-0.5301600266,2.322263707,0
3.475801792,0.6307373983,2.05290713,-0.6425101823,2.241668281,0
3.485882792,0.9271526402,1.853910009,-0.5287660503,2.139202626,0
3.495962792,1.322065399,1.753078868,-0.3897280329,2.230029232,0
3.506043792,1.76342727,1.718660987,-0.2452990289,2.474599551,0
3.516123792,2.168146979,1.713366333,-0.1876326187,2.769781853,0
3.526204792,2.472864098,1.641490604,-0.1782297112,2.973434728,0
3.536285792,2.626579796,1.374561701,-0.04625966191,2.964874576,0
3.546365792,2.57315788,1.066916297,-0.001421750486,2.785579631,0
3.556446792,2.41822713,1.008716621,-0.07625251606,2.621287111,0
3.566527792,2.258337357,1.036375705,-0.1003388053,2.48681123,0
3.576607792,2.133945445,0.8805924314,0.08924926847,2.310223285,0
3.586688792,2.069418497,0.6680888271,0.4150073004,2.213835282,0
3.596769792,1.856048335,0.38788616,0.5376413928,1.970895574,0
3.606849792,1.31016807,0.1272336584,0.5181713341,1.414648474,0
3.616930792,0.7655543107,-0.02956059873,0.4372639959,0.8821264273,0
3.627011792,0.3590886229,-0.196222617,0.4624153554,0.6174754372,0
3.637091792,0.09560782313,-0.3046247327,0.6438953876,0.7187060274,0
3.647172792,-0.07187222064,-0.2675294119,0.8248386455,0.8701128624,0
3.657252792,-0.1694312596,-0.06985843956,0.9513121659,0.9688044128,0
3.667333792,-0.2356872296,0.0650982213,0.9980004287,1.027516961,0
3.677414792,-0.151384998,0.03825657785,1.106357667,1.117321919,0
3.687494792,0.1099960667,-0.07783579588,1.194934652,1.202508365,0
3.697575792,0.3711023122,-0.09668488026,1.268690261,1.325382914,0
3.707656792,0.2886337674,0.08869875312,1.350284647,1.383634904,0
3.717736792,0.05409843922,0.3980994916,1.475096973,1.528829921,0
3.727817792,-0.1169180006,0.7917591923,1.501860849,1.701804468,0
3.737898792,-0.2027060097,1.092041783,1.490575869,1.858887141,0
3.747978792,-0.1289556634,1.036571002,1.17246731,1.570282968,0
3.758059792,0.3415750426,0.4339774221,0.6989511622,0.8908101031,0
3.768140792,1.052764281,-0.4678649604,0.6374323871,1.316635979,0
3.778220792,1.864157839,-1.002870575,0.8927112244,2.297339149,0
3.788301792,2.501202629,-1.231988457,1.103868361,2.998722312,0
3.798382792,2.65932245,-1.136014599,1.22705867,3.141368816,0
3.808462792,2.346870634,-0.6022339761,1.417195797,2.806943438,0
3.818543792,2.000442987,0.0217183131,1.645193061,2.590155215,0
3.828623792,1.587124947,0.6394228524,1.833958139,2.508232374,0
3.838704792,1.071449059,1.277972131,1.929917965,2.550646821,0
3.848785792,0.4604898673,1.880679147,1.986782137,2.774222095,0
3.858865792,-0.0605999583,2.579230213,1.940083934,3.228006586,0
3.868946792,-0.3141018999,3.170527557,1.75072127,3.635372053,0
3.879027792,-0.2332957184,3.608488687,1.34812527,3.859152659,0
3.889107792,0.06328909278,3.819504175,0.6644196993,3.877379423,0
3.899188792,0.4888517869,3.783399957,-0.007853395343,3.814859497,0
3.909269792,0.9649829561,3.582158675,-0.60768592,3.759299809,0
3.919349792,1.370576824,3.325026782,-0.8894452621,3.704780264,0
3.929430792,1.968908953,2.935389966,-1.196632829,3.731627908,0
3.939511792,2.722557163,2.560562392,-1.369253599,3.980408609,0
3.949591792,3.305268456,2.121310782,-1.193273019,4.104711865,0
3.959672792,3.484111978,1.740058288,-0.9840491183,4.016863427,0
3.969752792,3.293306222,1.553311669,-0.8348517099,3.735722204,0
3.979833792,2.844426586,1.51453235,-0.5658737965,3.27181662,0
3.989914792,2.217061862,1.474602883,-0.4360181004,2.698134308,0
3.999994792,1.589934534,1.310675608,-0.4277939916,2.10446432,0
4.010075792,1.057955439,1.043908673,-0.5300066833,1.577948704,0
4.020156792,0.5935409206,0.8011299402,-0.7081890321,1.222960224,0
4.030236792,0.04222625256,0.514908734,-0.997295693,1.123170851,0
4.040317792,-0.6396280897,0.2387991178,-1.381067898,1.540615997,0
4.050398792,-1.182971833,0.06838786483,-1.766728169,2.127305263,0
4.060478792,-1.603232857,0.007303757071,-2.062718026,2.612511167,0
4.070559792,-1.780818644,0.04508086324,-2.199952909,2.83074904,0
4.080640792,-1.603288406,0.1178658342,-2.138030456,2.674995383,0
4.090720792,-1.161073426,0.08843445897,-1.861863391,2.196007159,0
4.100801792,-0.6366840166,0.117093417,-1.475374277,1.611150727,0
4.110882792,-0.1236060458,0.1144604158,-0.9993015803,1.01340184,0
4.120962792,0.08248608649,0.09780345261,-0.6833414353,0.6952157845,0
4.131043792,0.0433419013,0.1366084993,-0.419578215,0.4433805149,0
4.141123792,-0.0932508105,0.2723709065,-0.2758442988,0.398712555,0
4.151204792,-0.2319836032,0.3906507236,-0.208812988,0.5000272432,0
4.161285792,-0.2788297409,0.4107610524,-0.09295260251,0.5050849957,0
4.171365792,-0.1790756571,0.3060169548,0.03928554162,0.3567321423,0
4.181446792,-0.01655171335,0.2372338182,0.1226609896,0.2675809449,0
4.191527792,0.06924623609,0.2648005164,0.1213414192,0.2993962169,0
4.201607792,-0.04336938322,0.3938386256,-0.03446246579,0.3977152599,0
4.211688792,-0.2577405882,0.4785618567,-0.3136551726,0.6275597412,0
4.221769792,-0.3891246003,0.4884068137,-0.5640715384,0.8415080931,0
4.231849792,-0.4186144477,0.5318130344,-0.7133569475,0.9833317314,0
4.241930792,-0.4635169709,0.6444397634,-0.7516988946,1.093252862,0
4.252011792,-0.4974454397,0.7942881131,-0.7347561488,1.190887136,0
4.262091792,-0.4685929388,0.9218094546,-0.5949284649,1.193001212,0
4.272172792,-0.4710861915,1.009538155,-0.3976312758,1.182877896,0
4.282252792,-0.3733780485,1.103249726,-0.1019323178,1.169171211,0
4.292333792,-0.1830657971,1.277545284,0.2016523415,1.306253691,0
4.302414792,0.0640732044,1.441374326,0.4903147602,1.523835256,0
4.312494792,0.2961263895,1.448549445,0.6649127658,1.621140129,0
4.322575792,0.5408966839,1.360575162,0.6765281135,1.61289314,0
4.332656792,0.7341395599,1.243257796,0.560694479,1.548879963,0
4.342736792,0.7265340865,0.8403366905,0.3782329917,1.173489552,0
4.352817792,0.6303450501,0.3326966304,0.2145147541,0.7443376316,0
4.362898792,0.569729889,0.001280540228,0.1782615785,0.5969681538,0
4.372978792,0.5527027971,-0.02519331336,0.181551953,0.5823024957,0
4.383059792,0.6638332236,0.01578689754,0.1243457186,0.6755631966,0
4.393140792,0.8923564446,-0.0356089586,-0.008828710914,0.8931102778,0
4.403220792,1.174680482,-0.1635132927,-0.1038361712,1.190543061,0
4.413301792,1.420184017,-0.2246640587,-0.1135185756,1.442318636,0
4.423381875,1.585353241,-0.2300125068,-0.07431577206,1.603674994,0
4.433462875,1.67173942,-0.2647701108,-0.2583963534,1.712187074,0
4.443543875,1.893600909,-0.1808806926,-0.2443770692,1.917853586,0
4.453623875,2.192207687,-0.1001937944,-0.05551697373,2.195198277,0
4.463704875,2.538760464,-0.005339677334,0.04452289268,2.539156453,0
4.473785875,2.795000072,0.04900142133,0.2103155762,2.803330017,0
4.483865875,2.823071385,0.1189879149,0.3210910767,2.84376329,0
4.493946875,2.75475778,0.3608065349,0.3977825725,2.806617672,0
4.504027875,2.587491744,0.6545770812,0.5147167991,2.718182861,0
4.514107875,2.270582596,0.9192167991,0.5636172098,2.513596867,0
4.524188875,1.846328509,1.153767915,0.5671629614,2.249840703,0
4.534269875,1.306773176,1.312529175,0.625683796,1.954960149,0
4.544349875,0.7136193413,1.480805025,0.7250148337,1.796575241,0
4.554430875,0.1355992699,1.527293313,0.8311127079,1.744064322,0
4.564510875,-0.321487518,1.395776569,0.8189570774,1.649920347,0
4.574591875,-0.6188529325,1.076951289,0.6676409304,1.410158658,0
4.584672875,-0.6601588333,0.5503136247,0.5387585033,1.014354719,0
4.594752875,-0.5863377357,0.02595462084,0.3802812713,0.6993421394,0
4.604833875,-0.4764135897,-0.4897955275,0.2852781965,0.740441231,0
4.614914875,-0.3676606411,-1.031846452,0.2000009416,1.113499809,0
4.624994875,-0.2384553015,-1.586230323,0.1654931599,1.612568,0
4.635075875,-0.2595058626,-2.038641093,0.1015222818,2.057597524,0
4.645156875,-0.3610953873,-2.224894792,0.3167483497,2.276153824,0
4.655236875,-0.4222116548,-2.195760163,0.7073160428,2.345191113,0
4.665317875,-0.4869344848,-2.139195368,1.14679204,2.47555933,0
4.675398875,-0.6473721421,-2.013210675,1.54606039,2.619620324,0
4.685478875,-0.78046588,-1.863700587,1.740850001,2.667033107,0
4.695559875,-0.8337117952,-1.691392497,1.834739766,2.630998659,0
4.705640875,-0.8636255658,-1.535796042,1.900593009,2.591673665,0
4.715720875,-0.9001326567,-1.44979841,2.017013996,2.642063529,0
4.725801875,-0.9301429063,-1.341500375,2.04209095,2.614368859,0
4.735881875,-0.9638895267,-1.20877735,2.066029451,2.580446356,0
4.745962875,-0.9240530312,-1.171174783,2.120253751,2.592489219,0
4.756043875,-0.8500769824,-1.118161003,2.143866562,2.563021409,0
4.766123875,-0.8273435926,-0.9925642723,1.988785393,2.371697408,0
4.776204875,-0.9043753964,-0.8439365289,1.728058047,2.125160779,0
4.786285875,-0.985069896,-0.7243185765,1.390072026,1.851296934,0
4.796365875,-1.119208531,-0.5809357855,1.141116879,1.700665121,0
4.806446875,-1.177419317,-0.5089147532,1.024463757,1.641595707,0
4.816527875,-1.138896106,-0.5429867712,1.013369689,1.618282145,0
4.826607875,-1.058922569,-0.5820932418,1.060828907,1.607951342,0
4.836688875,-1.057720966,-0.6262695408,1.231184611,1.739770883,0
4.846769875,-1.09218387,-0.716140953,1.34542371,1.875070247,0
4.856849875,-0.9523377675,-0.9195603231,1.436049121,1.953145025,0
4.866930875,-0.8402881587,-1.078585001,1.448617126,1.991964199,0
4.877010875,-1.005503576,-1.052963963,1.316397547,1.962822725,0
4.887091875,-1.186949694,-1.072500388,1.098419195,1.940523482,0
4.897172875,-1.147324868,-1.27571686,0.9217987834,1.947696294,0
4.907252875,-1.000277334,-1.510402754,0.8002421866,1.980469334,0
4.917333875,-0.9137631011,-1.527721037,0.6830078517,1.906670999,0
4.927414875,-0.8545284677,-1.349494103,0.6505606288,1.724697761,0
4.937494875,-0.7304686779,-1.191297684,0.727208709,1.575311768,0
4.947575875,-0.6420406508,-1.087613979,0.8130220073,1.502040328,0
4.957656875,-0.6876957107,-1.03729401,0.8335989439,1.497929055,0
4.967736875,-0.790558759,-0.9871564749,0.8895765321,1.546223614,0
4.977817875,-0.732465502,-0.9356506911,0.9411491203,1.515819776,0
4.987898875,-0.616373713,-1.021578449,0.9775770546,1.542464255,0
4.997978875,-0.6807299227,-1.19661865,0.9788157141,1.689192003,0
5.008059875,-0.7693789744,-1.287803054,0.7687373887,1.685626853,0
5.018140875,-0.726795457,-1.350648636,0.5693111553,1.636031346,0
5.028220875,-0.569878993,-1.423560199,0.4457133687,1.59685507,0
5.038301875,-0.3472579515,-1.546125733,0.3824663758,1.630145207,0
5.048381875,-0.1463376814,-1.600699551,0.3362113917,1.642160732,0
5.058462875,0.009433313012,-1.654873419,0.3053754421,1.682839618,0
5.068543875,0.1352349883,-1.73923997,0.3483788627,1.778935639,0
5.078623875,0.217414096,-1.76450959,0.5970480806,1.875427789,0
5.088704875,-0.002818942666,-1.616821201,0.9403900786,1.870414992,0
5.098785875,-0.4729760116,-1.213077685,1.192725574,1.765745755,0
5.108865875,-0.9047203821,-0.7259999433,1.230437922,1.691027016,0
5.118946875,-1.258689768,-0.2652393499,1.21857838,1.771887443,0
5.129027875,-1.58286642,-0.036983639,1.22741345,2.003341626,0
5.139107875,-1.785975888,-0.1471232548,1.22941846,2.173206128,0
5.149188875,-1.832840152,-0.4380891842,1.282737612,2.279614208,0
5.159269875,-1.692620997,-0.8562618747,1.361504284,2.334918447,0
5.169349875,-1.398580309,-1.47591149,1.440931546,2.492112624,0
5.179430875,-0.9799348712,-2.077392637,1.55857007,2.775783346,0
5.189511875,-0.6424891323,-2.325636763,1.535227985,2.859773348,0
5.199591875,-0.3940239823,-2.253993753,1.292654489,2.62805981,0
5.209672875,-0.08852567554,-1.998093283,0.9262527537,2.204122893,0
5.219752875,0.2295739657,-1.554335808,0.5000996371,1.648867386,0
5.229833875,0.5540792316,-1.050678287,0.1897046527,1.202878428,0
5.239914875,0.8676560515,-0.5920177209,-0.08143197969,1.053538406,0
5.249994875,1.008820117,-0.1889972126,-0.1890160699,1.043630705,0
5.260075875,0.8729138678,0.2407795697,-0.1514452974,0.9180899193,0
5.270156875,0.5231462914,0.5438015807,0.01874968171,0.7548203441,0
5.280236875,0.1463224787,0.5780721116,0.2059306761,0.6308605847,0
5.290317875,-0.1391005826,0.4011730805,0.3573782393,0.5549847011,0
5.300398875,-0.3986292493,0.1696753809,0.5201190417,0.6769186294,0
5.310478875,-0.6140184546,0.0307051912,0.5713203317,0.8392665802,0
5.320559875,-0.7551503599,-0.05445950478,0.5476443708,0.9344154646,0
5.330640875,-0.8460055661,-0.1735436064,0.4929166981,0.9943890951,0
5.340720875,-0.8047762638,-0.1532181001,0.4256188273,0.9231966243,0
5.350801875,-0.6233704913,-0.0243282178,0.2859399551,0.6862538084,0
5.360882875,-0.3642645782,0.1664816317,0.1707830628,0.4353982903,0
5.370962875,-0.1980732608,0.2438133976,0.198904077,0.3718075058,0
5.381043875,-0.1487151593,0.241744945,0.265674602,0.3887670398,0
5.391123875,-0.1111169779,0.1929584089,0.3615005994,0.4245734491,0
5.401204875,-0.08490858793,0.01706334472,0.3978890649,0.4072055182,0
5.411285875,-0.1220653045,-0.2959968737,0.3195455845,0.4523532562,0
5.421366125,-0.2157874006,-0.53701998,0.3710607239,0.6874887068,0
5.431447125,-0.3192854565,-0.5757586607,0.5448867508,0.854600965,0
5.441528125,-0.3199432683,-0.4920662937,0.8874260724,1.063963329,0
5.451608125,-0.1957928467,-0.3501271802,1.164702281,1.23185035,0
5.461689125,-0.05924457371,-0.2394502053,1.282797253,1.306298248,0
5.471770125,0.1181301284,-0.08892679453,1.285821433,1.294294966,0
5.481850125,0.4259462714,0.1879207402,1.19714373,1.284483375,0
5.491931125,0.6329815596,0.5596218073,1.127172512,1.408673168,0
5.502012125,0.6215303725,0.7987816983,1.073581538,1.475442146,0
5.512092125,0.6058726984,0.7487286553,1.05805126,1.430786076,0
5.522173125,0.6121251261,0.4236249268,1.111156842,1.337469542,0
5.532254125,0.6235266119,0.08199550509,1.151450736,1.312001333,0
5.542334125,0.5726330316,-0.1610027906,1.311859084,1.440418253,0
5.552415125,0.5478583789,-0.293823756,1.511166108,1.634045351,0
5.562496125,0.6357239038,-0.3467200077,1.621127676,1.775504037,0
5.572576125,0.7528670222,-0.3237018585,1.53513326,1.74017981,0
5.582657125,0.7397739369,-0.1762403423,1.244011502,1.458043468,0
5.592737125,0.5693527436,0.111664862,0.9362655258,1.101464808,0
5.602818125,0.3617432588,0.4774681351,0.8794153869,1.064051422,0
5.612899125,-0.004501771331,0.7709021741,1.154635642,1.388342138,0
5.622979125,-0.4976261187,0.923007549,1.621199012,1.930766927,0
5.633060125,-0.9081369102,1.015294738,1.98381526,2.406461934,0
5.643141125,-1.209907032,1.103152662,2.235720327,2.771148896,0
5.653221125,-1.315507747,1.011388798,2.116818366,2.689681752,0
5.663302125,-1.227577318,0.7735690892,1.662977952,2.207000425,0
5.673383125,-1.110851691,0.49743433,1.301676158,1.782075535,0
5.683463125,-1.008010277,0.2718966973,1.27864573,1.650741481,0
5.693544125,-0.7823492682,0.1296158141,1.576500556,1.76471659,0
5.703625125,-0.6006300849,-0.0420403111,2.04363403,2.130484437,0
5.713705125,-0.3969165999,-0.3666169131,2.54473281,2.601464169,0
5.723786125,-0.2465092564,-0.7311264896,3.13276273,3.226378013,0
5.733866125,-0.205683412,-0.9665225279,3.630514564,3.762593183,0
5.743947125,-0.2768487042,-1.061405296,3.954004169,4.103337102,0
5.754028125,-0.4024737936,-0.9622645855,3.889155039,4.02659474,0
5.764108125,-0.4205954844,-0.7088889438,3.506140194,3.601727801,0
5.774189125,-0.2587439704,-0.428618449,2.935395228,2.977785648,0
5.784270125,-0.04210463047,-0.1311378443,2.539645733,2.54337775,0
5.794350125,0.1478328145,0.1487736315,2.356065381,2.365382044,0
5.804431125,0.3393203562,0.3304156315,2.345295394,2.392639396,0
5.814512125,0.4045366913,0.4846376985,2.545450848,2.622564328,0
5.824592125,0.31869021,0.5645790768,2.958054943,3.028267166,0
5.834673125,0.1996286201,0.5636242265,3.44496487,3.496470622,0
5.844754125,0.04094571233,0.578562693,3.803859365,3.847825023,0
5.854834125,-0.1461061317,0.671999445,3.976221249,4.035252864,0
5.864915125,-0.3007924676,0.7226234686,4.057095258,4.131910299,0
5.874996125,-0.4409250838,0.7091011977,4.019821013,4.105630331,0
5.885076125,-0.568589682,0.6842581326,3.892886732,3.993253125,0
5.895157125,-0.679107905,0.7184386164,3.639938521,3.771802491,0
5.905237125,-0.7094876987,0.8434023857,3.373311335,3.548792716,0
5.915318125,-0.6828834522,0.9067233458,3.177312081,3.373987122,0
5.925399125,-0.6204258335,0.8305557606,2.902798755,3.082367872,0
5.935479125,-0.5803460938,0.6545729882,2.720355687,2.857551827,0
5.945560125,-0.5359008229,0.5304588193,2.562192596,2.670843902,0
5.955641125,-0.4698056513,0.4822327387,2.381746936,2.475072571,0
5.965721125,-0.4832057154,0.4645530975,2.343672207,2.437641638,0
5.975802125,-0.5176083934,0.4279322782,2.407654195,2.499568604,0
5.985883125,-0.4777537715,0.387765415,2.410715212,2.488002918,0
5.995963125,-0.4431522882,0.3601908231,2.563714042,2.626547366,0
6.006044125,-0.3619806558,0.329035981,2.574088172,2.620157359,0
6.016125125,-0.2190390372,0.2303130537,2.556203878,2.575888287,0
6.026205125,0.03631705642,0.01221220225,2.569979918,2.57026552,0
6.036286125,0.3666502422,-0.269089449,2.575143009,2.614995803,0
6.046367125,0.6425142753,-0.4817667156,2.761355778,2.87576242,0
6.056447125,0.6896527737,-0.5935567081,3.171205834,3.299163069,0
6.066528125,0.5759519112,-0.6231208152,3.599149514,3.697820626,0
6.076608125,0.5463106209,-0.6451028377,3.96238089,4.051552206,0
6.086689125,0.4527387983,-0.5261748567,4.100197424,4.158539565,0
6.096770125,0.2852692795,-0.2587884092,3.991511718,4.010051845,0
6.106850125,0.1199041736,0.04743904531,3.645614998,3.647894761,0
6.116931125,-0.005585845113,0.2686207947,3.224378074,3.235552858,0
6.127012125,-0.1220044935,0.3622013882,2.844878576,2.870437084,0
6.137092125,-0.1290147203,0.3007617697,2.587651373,2.608264187,0
6.147173125,0.1312284762,0.001099861264,2.232790872,2.236644183,0
6.157254125,0.626275388,-0.5401713368,1.882256141,2.055941175,0
6.167334125,1.148605408,-0.9346657276,1.635276768,2.206133385,0
6.177415125,1.481951664,-1.24804842,1.412718877,2.397828229,0
6.187496125,1.492875432,-1.488589716,1.274433396,2.463484702,0
6.197576125,1.261188283,-1.440296392,1.308584644,2.318931511,0
6.207657125,0.887233699,-1.133175775,1.702165407,2.2290442,0
6.217737125,0.68753959,-0.8641243333,2.125167021,2.394943928,0
6.227818125,0.6008253819,-0.5364794049,2.367769167,2.501026214,0
6.237899125,0.4528621745,-0.02932290941,2.570901439,2.610647083,0
6.247979125,0.1954186249,0.5105309236,2.74037129,2.794363089,0
6.258060125,-0.2418911254,0.9581627637,2.76227496,2.933726326,0
6.268141125,-0.7159892178,1.222257521,2.544028805,2.911809845,0
6.278221125,-1.169499264,1.290244559,2.247945685,2.843539934,0
6.288302125,-1.422235805,1.374272557,1.927217721,2.761439459,0
6.298383125,-1.456624449,1.455876883,1.625347027,2.623563463,0
6.308463125,-1.274897665,1.326299076,1.17390631,2.182312837,0
6.318544125,-0.8959478045,1.081650111,0.6433100814,1.544842158,0
6.328625125,-0.3918113959,0.7694602507,0.1501910331,0.8764374443,0
6.338705125,0.1637056661,0.392959789,-0.265347231,0.5016234583,0
6.348786125,0.6852258468,-0.05917440712,-0.5812699904,0.9005058985,0
6.358867125,1.197450124,-0.573890183,-0.7974619818,1.548929422,0
6.368947125,1.584466218,-0.9725299573,-1.002378239,2.112133956,0
6.379028125,1.70004813,-1.19082172,-1.182629771,2.388897903,0
6.389108125,1.603780741,-1.345537877,-1.29225337,2.460183655,0
6.399189125,1.339947939,-1.507966804,-1.175527743,2.334799742,0
6.409270125,1.214958442,-1.807181108,-0.9535843939,2.377256984,0
6.419349625,1.04591953,-2.128425674,-0.5489336453,2.434229172,0
6.429430625,0.7000625718,-2.349881073,-0.009787033014,2.451963386,0
6.439511625,0.3052135473,-2.528765234,0.1697680593,2.552769106,0
6.449591625,-0.1530906308,-2.76315292,0.260664196,2.779639657,0
6.459672625,-0.5790784174,-3.02750934,0.3184686005,3.098800876,0
6.469753625,-0.9521272677,-3.181397823,0.4236243786,3.347729986,0
6.479833625,-1.298926213,-3.243664531,0.4577358288,3.523931183,0
6.489914625,-1.579146422,-3.194307891,0.5156764368,3.600448376,0
6.499995625,-1.703971612,-3.15282862,0.5526016037,3.626184785,0
6.510075625,-1.656656528,-3.077709441,0.5634189526,3.540373874,0
6.520156625,-1.569329531,-3.072908292,0.4754733574,3.483049736,0
6.530237625,-1.469772499,-3.021312169,0.3486934429,3.377890693,0
6.540317625,-1.439605544,-2.844004125,0.1910174257,3.193322915,0
6.550398625,-1.494215614,-2.560232025,-0.02360524613,2.964460411,0
6.560478625,-1.51386986,-2.30975631,-0.2757559327,2.775395017,0
6.570559625,-1.55870631,-2.088473403,-0.6485100102,2.685489108,0
6.580640625,-1.666407344,-1.936619459,-1.106121951,2.78404636,0
6.590720625,-1.760346372,-1.793069584,-1.564162931,2.959818163,0
6.600801625,-1.803164363,-1.668198346,-1.918973147,3.11716945,0
6.610882625,-1.81140192,-1.604173966,-1.93417006,3.097670875,0
6.620962625,-1.816623484,-1.60315392,-1.761748534,2.995660406,0
6.631043625,-1.648578599,-1.536957006,-1.467753601,2.689674492,0
6.641124625,-1.386753731,-1.317133565,-1.075377291,2.194165686,0
6.651204625,-1.238397006,-0.9986050308,-0.7840660107,1.773583565,0
6.661285625,-1.070918716,-0.6327599502,-0.6826688594,1.418904092,0
6.671366625,-0.8374774021,-0.2653523473,-0.6832197402,1.112910365,0
6.681446625,-0.630830369,0.05875048399,-0.8022287051,1.022237482,0
6.691527625,-0.5450862139,0.3683009112,-1.077046013,1.262058896,0
6.701607625,-0.6380119193,0.6306227928,-1.392630621,1.65655195,0
6.711688625,-0.7122060692,0.8571538675,-1.573110926,1.927855861,0
6.721769625,-0.5406721509,1.113204026,-1.526465347,1.96510713,0
6.731849625,-0.2381986088,1.305788505,-1.124512029,1.739640624,0
6.741930625,-0.07957300365,1.460199876,-0.5325212053,1.55630793,0
6.752011625,0.02107394993,1.617997223,-0.1359150926,1.623832515,0
6.762091625,0.04930840015,1.771740257,0.02716791809,1.772634466,0
6.772172625,-0.03759174943,1.808063745,0.146888416,1.814410056,0
6.782253625,-0.04823251247,1.739217166,0.1840399432,1.74959236,0
6.792333625,0.02230069578,1.514274634,0.06580215298,1.515867709,0
6.802414625,0.1298140347,1.229717107,-0.0673600705,1.238383311,0
6.812495625,0.2470483696,1.046151957,-0.1639103186,1.087351556,0
6.822575625,0.261871646,1.022025176,-0.2052138805,1.074813917,0
6.832656625,0.3226002431,1.124009095,-0.1795106169,1.183085553,0
6.842737625,0.4281693828,1.252936108,-0.1582017551,1.333493796,0
6.852817625,0.5692439854,1.374792374,-0.01266514219,1.488036691,0
6.862898625,0.8456892318,1.69615213,0.1168396479,1.898887524,0
6.872978625,1.10283165,1.95909674,0.1992790297,2.25699132,0
6.883059625,1.329958556,2.097722237,0.2462986835,2.495975037,0
6.893140625,1.522402117,2.08028584,0.2900557371,2.594114437,0
6.903220625,1.660756595,1.982204644,0.2057260235,2.594141653,0
6.913301625,1.646748421,1.85530954,0.279268209,2.496386305,0
6.923382625,1.686607136,1.858147486,0.1672245204,2.515018837,0
6.933462625,1.603276126,1.827342892,0.02664868534,2.431128655,0
6.943543625,1.408997124,1.816958822,-0.02520270545,2.299401538,0
6.953624625,1.273646945,1.842596523,0.05603503704,2.240642411,0
6.963704625,1.440702481,1.569389758,0.2001326501,2.139780579,0
6.973785625,1.851926633,0.9951297382,0.355890196,2.132269514,0
6.983866625,2.221394064,0.3652545118,0.5664583353,2.321395591,0
6.993946625,2.416119209,-0.06157965928,0.7636007559,2.534661753,0
7.004027625,2.448598738,-0.2501699057,0.9371811998,2.633729174,0
7.014108625,2.354246897,-0.1244319651,1.106138835,2.604132271,0
7.024188625,2.293113087,0.3210068768,1.117292472,2.570944479,0
7.034269625,2.228308981,0.9098159382,1.032285578,2.618919523,0
7.044349625,2.040060212,1.428207859,0.933612571,2.659559322,0
7.054430625,1.64066907,1.879134312,0.8964108308,2.650753316,0
7.064511625,1.089925675,2.267047954,0.7468122303,2.623961302,0
7.074591625,0.4765393049,2.543406954,0.5152811285,2.638469876,0
7.084672625,-0.1045014381,2.578321556,0.1672239357,2.585851202,0
7.094753625,-0.5255658692,2.357960756,-0.2952248219,2.433794589,0
7.104833625,-0.7381571817,1.876482015,-0.7369211534,2.146884618,0
7.114914625,-0.7542300081,1.200416124,-1.052250896,1.765529304,0
7.124995625,-0.5221563578,0.3547277695,-1.007141966,1.188618522,0
7.135075625,-0.3140633082,-0.5583231407,-0.7741708408,1.004838784,0
7.145156625,-0.1098972487,-1.38253935,-0.520068244,1.481203375,0
7.155237625,0.2140642262,-2.076971638,-0.1562445458,2.093811605,0
7.165317625,0.4174233699,-2.480752869,0.2878752373,2.532044474,0
7.175398625,0.4435504836,-2.4128512,0.6590542942,2.540263866,0
7.185478625,0.4440474969,-2.009412908,0.9010781515,2.246521812,0
7.195559625,0.5149771464,-1.452219742,1.111795431,1.900061241,0
7.205640625,0.7167932099,-0.9079834208,1.475098143,1.874604206,0
7.215720625,1.03216454,-0.5194397414,1.890065682,2.215294465,0
7.225801625,1.332193946,-0.3207908222,2.325737042,2.699388866,0
7.235882625,1.503273536,-0.251685504,2.773399873,3.164636436,0
7.245962625,1.461071842,-0.4003696731,3.255686406,3.590894147,0
7.256043625,1.162208955,-0.53971847,3.611308215,3.831915018,0
7.266124625,0.7177036214,-0.5457919729,3.710024418,3.818018929,0
7.276204625,0.228867622,-0.4774254504,3.78673404,3.823567724,0
7.286285625,-0.2203336108,-0.5065308434,3.881647214,3.920753179,0
7.296366625,-0.5297858047,-0.6455884489,3.847920474,3.937505482,0
7.306446625,-0.7420432413,-0.8418578437,3.62295236,3.792774262,0
7.316527625,-0.9155505949,-0.9118126161,3.474972196,3.707434005,0
7.326608625,-1.059983838,-0.9543492097,3.485625823,3.766156599,0
7.336688625,-1.155347832,-1.10050475,3.547920889,3.89020333,0
7.346769625,-1.185334693,-1.392757067,3.566414462,4.008004828,0
7.356849625,-1.192677627,-1.714758848,3.545803027,4.115288196,0
7.366930625,-1.296638782,-2.001281185,3.409186342,4.160402628,0
7.377011625,-1.533214788,-2.28305383,3.141021338,4.174817052,0
7.387091625,-1.864768288,-2.638995774,2.793003248,4.271127088,0
7.397172625,-2.185074669,-3.009297895,2.429197676,4.442007032,0
7.407253625,-2.530312407,-3.106960722,2.16514268,4.554506409,0
7.417333625,-2.836615875,-3.014961215,1.98064373,4.5890446,0
7.427415,-2.938188443,-2.909163449,1.828398607,4.520976086,0
7.437496,-2.743185555,-2.890773956,1.64583684,4.311660928,0
7.447576,-2.41104558,-2.823559628,1.435120729,3.980603128,0
7.457657,-2.1610584,-2.750070067,1.216996781,3.703260718,0
7.467738,-2.004073523,-2.729556865,1.014132897,3.534863066,0
7.477818,-1.892541393,-2.799460913,0.829257971,3.479419939,0
7.487899,-1.817327489,-2.947859738,0.5848484864,3.512065487,0
7.49798,-1.658211887,-3.19945958,0.2717937863,3.613873286,0
7.50806,-1.464895921,-3.51546124,-0.006999080591,3.808469086,0
7.518141,-1.189345883,-3.788569481,-0.2407783638,3.97816246,0
7.528221,-0.9224538177,-3.953099312,-0.458374966,4.085097652,0
7.538302,-0.7769388396,-3.962713596,-0.6721737651,4.093720872,0
7.548383,-0.6749867874,-3.836024898,-0.9013553826,3.997891408,0
7.558463,-0.5616923064,-3.563168673,-1.092334728,3.76893412,0
7.568544,-0.3866863114,-3.338924152,-1.226205561,3.577921306,0
7.578625,-0.2013728446,-3.300698857,-1.26438554,3.54031563,0
7.588705,-0.1121800017,-3.441691306,-1.236518295,3.658797739,0
7.598786,-0.1211279958,-3.557065934,-1.129167509,3.733953577,0
7.608867,-0.1778518349,-3.602096511,-1.050003226,3.756226474,0
7.618947,-0.323558017,-3.586463395,-1.009409516,3.739828478,0
7.629028,-0.4351269847,-3.388209456,-1.063649458,3.57779946,0
7.639109,-0.5532892728,-3.167730249,-1.100838334,3.39889526,0
7.649189,-0.6394836634,-2.923693196,-1.212040097,3.228925898,0
7.65927,-0.5436483836,-2.610900487,-1.360332502,2.993803507,0
7.66935,-0.2343786228,-2.250780269,-1.617664955,2.781687449,0
7.679431,0.1678472489,-1.980631597,-1.766160259,2.659021678,0
7.689512,0.6155860931,-1.821517019,-1.843613647,2.663790864,0
7.699592,0.878827157,-1.626249544,-1.900656159,2.651323931,0
7.709673,0.791950981,-1.237221277,-1.890035276,2.393770288,0
7.719754,0.3370504671,-0.6857898107,-1.784609978,1.94132518,0
7.729834,-0.1959355187,-0.09103018418,-1.627979443,1.642252809,0
7.739915,-0.761475293,0.4291593164,-1.368965331,1.624219326,0
7.749996,-1.21448014,0.7922873421,-1.065017852,1.799150985,0
7.760076,-1.556272699,1.01672526,-0.7718406522,2.012822138,0
7.770157,-1.7042897,1.021762051,-0.5682669888,2.066767632,0
7.780238,-1.589494824,0.6564095986,-0.4542468683,1.778681414,0
7.790318,-1.290073528,-0.09649455339,-0.35855543,1.342446611,0
7.800399,-0.8230096364,-0.9350969598,-0.3308851629,1.288889513,0
7.81048,-0.3091446304,-1.735361804,-0.3787522244,1.802915484,0
7.82056,0.06439538598,-2.450054694,-0.3585652971,2.476990885,0
7.830641,0.2871304482,-2.792098684,-0.2632129242,2.819138166,0
7.840722,0.3869359875,-2.751761374,-0.1834540522,2.784881597,0
7.850802,0.400763483,-2.358315682,-0.1316915026,2.395747665,0
7.860883,0.4593490756,-1.729605221,-0.01206397533,1.78960368,0
7.870963,0.6374254435,-1.042705608,0.2645396575,1.250410897,0
7.881044,0.8522006911,-0.3929919487,0.7123820704,1.178209194,0
7.891125,0.9476886463,0.1107281381,1.124096804,1.474438237,0
7.901205,0.8652300417,0.4827627888,1.421269845,1.732538862,0
7.911286,0.6919261712,0.7371707565,1.651010456,1.935979875,0
7.921367,0.4563897997,0.8747814685,1.921029028,2.159603388,0
7.931447,0.2362222499,0.9213106871,2.106433711,2.311206895,0
7.941528,0.06552974582,0.951005187,2.231878706,2.42692966,0
7.951609,-0.05833416224,0.8158643389,2.323701042,2.463457738,0
7.961689,-0.08234926164,0.6317197305,2.314882271,2.400943804,0
7.97177,-0.07915902078,0.5975728682,2.196522932,2.277734066,0
7.981851,0.05246004939,0.6593574724,2.067327533,2.170563858,0
7.991931,0.3717215323,0.6951430169,1.984274851,2.135122338,0
8.002012,0.6758346337,0.7063652855,2.044076664,2.26582298,0
8.012093,0.9309340346,0.8245804909,2.199186924,2.526458843,0
8.022173,1.085437353,1.058803578,2.409121846,2.846595744,0
8.032254,1.139503047,1.267416737,2.567409482,3.08162357,0
8.042335,1.063482812,1.399699174,2.698184799,3.220303507,0
8.052415,0.9827099597,1.559944458,2.7525411,3.312948549,0
8.062496,0.8922985572,1.816719963,2.727501569,3.396458883,0
8.072577,0.7558543646,2.096647226,2.661806347,3.471665082,0
8.082657,0.6098669314,2.417151242,2.530787201,3.552385348,0
8.092738,0.5412288058,2.690929574,2.393019199,3.641506759,0
8.102819,0.7009267902,2.942608353,2.25484423,3.77287222,0
8.112899,1.023600124,3.148954255,2.143149548,3.944205889,0
8.12298,1.304634265,3.254938547,2.067734499,4.070899344,0
8.133061,1.612353929,3.41211989,1.978421203,4.26103248,0
8.143141,1.858094861,3.62099822,1.986852304,4.528987381,0
8.153222,2.021182476,3.809079174,2.013440763,4.759013182,0
8.163302,2.04421115,3.962966781,1.978529962,4.878369168,0
8.173383,2.10555312,4.098494714,1.847458776,4.964284117,0
8.183464,2.106264142,4.187906828,1.800875763,5.021759228,0
8.193544,1.963029578,4.146502109,1.795209226,4.926432891,0
8.203625,1.810490339,3.985125389,1.787511367,4.72803305,0
8.213706,1.673835062,3.783864811,1.768649418,4.499719712,0
8.223786,1.398707194,3.533343195,1.827798682,4.21684052,0
8.233867,1.091883908,3.222862476,1.844055111,3.870347822,0
8.243948,0.8121718222,2.957214113,1.889120187,3.601876381,0
8.254028,0.6401286113,2.739575484,1.838659301,3.360908582,0
8.264109,0.6613037181,2.578520946,1.733170853,3.176471955,0
8.27419,0.9734836382,2.364694701,1.596825478,3.014847099,0
8.28427,1.409959576,2.116683295,1.431556267,2.918507756,0
8.294351,1.837051901,1.883637838,1.199074627,2.891475601,0
8.304432,2.090055075,1.612902398,1.041861709,2.838179026,0
8.314512,2.1703391,1.326980569,0.9597643161,2.718896243,0
8.324593,2.101950651,1.097729369,1.050812627,2.593725792,0
8.334674,1.874461218,0.8451208824,1.348725779,2.459043592,0
8.344754,1.576206442,0.7441616875,1.524987756,2.315985971,0
8.354835,1.397043076,0.6873074555,1.580474909,2.218563011,0
8.364916,1.501911135,0.4677778369,1.579628963,2.229300523,0
8.374996,1.732490237,0.1162905943,1.542145826,2.322339267,0
8.385077,1.996137097,-0.2518372393,1.598616334,2.569739187,0
8.395158,2.174384789,-0.5260301381,1.758189773,2.845327432,0
8.405238,2.157589831,-0.744536494,1.937846058,2.994123547,0
8.415319,2.000230148,-0.8800825542,2.179018707,3.086031185,0
8.425398625,1.692170761,-0.9635196903,2.333106142,3.038946585,0
8.435479625,1.200562012,-0.9422326094,2.333850493,2.788549723,0
8.445560625,0.6024959314,-0.9064353704,2.173066242,2.430399827,0
8.455640625,0.06206527054,-0.9033842933,1.982965659,2.179933046,0
8.465721625,-0.3725062287,-1.021834849,1.835492449,2.133527567,0
8.475802625,-0.6991164923,-1.209180808,1.827972345,2.300514071,0
8.485882625,-0.8897257823,-1.288583658,1.849688904,2.423511678,0
8.495963625,-1.052481276,-1.305987018,1.79664691,2.457897282,0
8.506044625,-1.274021167,-1.329548666,1.672700556,2.487721194,0
8.516124625,-1.506867819,-1.36486848,1.509671413,2.532316009,0
8.526205625,-1.785979396,-1.388431589,1.275688062,2.597083886,0
8.536286625,-2.025797684,-1.272340677,0.9711997157,2.581847389,0
8.546366625,-2.075039425,-1.167787199,0.6543689203,2.469355026,0
8.556447625,-1.970373681,-1.097111611,0.3927772097,2.289170213,0
8.566528625,-1.669145011,-1.094505215,0.2672844136,2.013809249,0
8.576608625,-1.238281816,-1.074800975,0.2398883079,1.657131676,0
8.586689625,-1.076117476,-1.045388896,0.4336059777,1.561691682,0
8.596770625,-1.195556796,-1.109600094,0.5882399811,1.733953487,0
8.606850625,-1.376058589,-1.324698985,0.7439038253,2.049818905,0
8.616931625,-1.661096903,-1.534261148,0.9140360199,2.438987912,0
8.627012625,-1.936507192,-1.598096663,1.047103592,2.720367435,0
8.637092625,-2.095618701,-1.52123589,1.044240356,2.792170177,0
8.647173625,-2.135737032,-1.422907358,0.9972898458,2.753293492,0
8.657253625,-2.11719902,-1.281230784,0.8931858721,2.63094375,0
8.667334625,-1.998124566,-1.182602289,0.6428170149,2.40920395,0
8.677415625,-1.848238794,-1.076941641,0.3299231498,2.16440274,0
8.687495625,-1.813823837,-0.9564743802,0.1922352545,2.059552025,0
8.697576625,-1.900225219,-0.8529105431,0.196033752,2.092066325,0
8.707657625,-1.96886276,-0.8225485834,0.3212669317,2.157827422,0
8.717737625,-1.882043887,-0.8931373402,0.5623371812,2.157778164,0
8.727818625,-1.631456782,-0.9785525894,0.8999215722,2.104536823,0
8.737899625,-1.462872784,-1.048806301,1.381506439,2.269041974,0
8.747979625,-1.501001893,-1.207780692,1.706392944,2.573619584,0
8.758060625,-1.495838217,-1.431601875,1.838907807,2.769223325,0
8.768141625,-1.371139326,-1.662087714,1.832032359,2.828232873,0
8.778221625,-0.9630837804,-1.79330128,1.629417273,2.607385759,0
8.788302625,-0.2484136945,-1.742021491,1.267929538,2.168869187,0
8.798383625,0.4825753856,-1.507153164,0.8789809388,1.810247815,0
8.808463625,0.9606133318,-1.038892054,0.4792372102,1.49390193,0
8.818544625,1.243048466,-0.4441767204,0.1227944523,1.325722793,0
8.828625625,1.505701885,-0.0368330732,0.043726575,1.506786931,0
8.838705625,1.705029373,-0.08028256327,0.08694334589,1.709131241,0
8.848786625,1.692107027,-0.4086341277,0.1113320824,1.744305843,0
8.858867625,1.457995622,-0.9294213599,0.1193381631,1.7331523,0
8.868947625,1.15341065,-1.445915566,0.1952923981,1.859883618,0
8.879028625,0.903246299,-1.902608544,0.214812085,2.117053939,0
8.889108625,0.6512523544,-2.321092014,0.1067648953,2.413088583,0
8.899189625,0.4217497247,-2.573064617,-0.002619479522,2.607401237,0
8.909270625,0.3585892707,-2.645409585,-0.04902305603,2.670052695,0
8.919350625,0.5087469381,-2.640308474,-0.000568934083,2.688875714,0
8.929431625,0.4331406856,-2.709672531,0.1239059349,2.746868901,0
8.939512625,0.1170764601,-2.794308931,0.02305557132,2.796855531,0
8.949592625,-0.2395803058,-2.865624205,-0.2748179662,2.888723891,0
8.959673625,-0.3333047408,-2.805550496,-0.6362818012,2.896042155,0
8.969754625,-0.1472159332,-2.651202421,-0.8846275219,2.798769848,0
8.979834625,0.1588805437,-2.45570866,-0.9200237149,2.627202254,0
8.989915625,0.4383669269,-2.148601784,-0.7331565698,2.312179436,0
8.999996625,0.5991647726,-1.723974644,-0.3984842749,1.868121173,0
9.010076625,0.5803735757,-1.299116247,0.05904160224,1.424086522,0
9.020157625,0.2393417394,-1.005698873,0.3708655,1.098296822,0
9.030238625,-0.1742628139,-0.8803816393,0.5508509473,1.053031873,0
9.040318625,-0.4383587408,-1.041627382,0.8645698911,1.422893912,0
9.050399625,-0.5577571303,-1.200563474,1.33447553,1.879699607,0
9.060480625,-0.6713410485,-0.9846304777,1.727865089,2.098979216,0
9.070560625,-0.9198208165,-0.3731959078,1.865917266,2.113526145,0
9.080641625,-1.076520934,0.5467605641,1.738850253,2.116942285,0
9.090722625,-0.9015851051,1.471218807,1.391298187,2.216540351,0
9.100802625,-0.4952843088,2.197516082,1.037234076,2.479967339,0
9.110883625,0.0503807795,2.74109693,0.6889540315,2.826801772,0
9.120963625,0.6763281387,3.130210713,0.3255858314,3.218950915,0
9.131044625,1.166754581,3.316401262,-0.1786277787,3.520190544,0
9.141125625,1.600785213,3.273886157,-0.7144631676,3.713664159,0
9.151205625,1.754409109,3.062764542,-1.113191746,3.701036858,0
9.161286625,1.683574769,2.811344209,-1.268071041,3.513699536,0
9.171367625,1.441771352,2.503668692,-1.298277757,3.167425877,0
9.181447625,1.110668088,2.26331977,-1.013299668,2.717163263,0
9.191528625,0.7682440299,2.13811568,-0.4936406565,2.324955623,0
9.201609625,0.5349214143,2.066937816,0.0660302492,2.136055441,0
9.211689625,0.4232559675,2.012726525,0.4666013771,2.109011741,0
9.221770625,0.3302326137,1.930792416,0.5281392288,2.028778938,0
9.231851625,0.1875535351,1.726578702,0.3116881692,1.764482886,0
9.241931625,0.06655300856,1.457809095,-0.008219431043,1.459350616,0
9.252012625,0.02333214462,1.212218144,-0.3275604361,1.255911246,0
9.262093625,-0.1088400722,0.9010968626,-0.5696386359,1.071592223,0
9.272173625,-0.2385219598,0.7256727916,-0.756511007,1.075082615,0
9.282254625,-0.250953725,0.6861850825,-0.7528348625,1.049089162,0
9.292335625,-0.1148831695,0.825693216,-0.5593803904,1.003929206,0
9.302415625,0.1192925549,0.9820144334,-0.3757959088,1.058208687,0
9.312496625,0.2274180973,1.026315863,-0.3015555292,1.093608238,0
9.322576625,0.1032407784,0.8855786446,-0.2643092772,0.9299288081,0
9.332657625,-0.01051563263,0.7093517509,-0.1927885838,0.735158434,0
9.342738625,0.2357310838,0.5486699724,0.1114806747,0.6074831877,0
9.352818625,0.5768020964,0.3753669789,0.5785492079,0.8990663008,0
9.362899625,0.7060887122,0.194617264,0.7933554822,1.079745373,0
9.372980625,0.7710875309,0.02316725314,0.7323719466,1.063711131,0
9.383060625,0.7711319697,-0.1165879253,0.4939693431,0.9231700661,0
9.393141625,0.751239742,-0.1014664409,0.3532056662,0.8363078567,0
9.403222625,0.8712076503,-0.01679758877,0.4033501451,0.9601959532,0
9.413302625,0.9720481467,0.06519119203,0.2719973425,1.011489024,0
9.42338375,0.840188756,0.0182585156,-0.2262492388,0.8703098512,0
9.43346475,0.5724447513,0.05062402368,-0.658605959,0.8740809998,0
9.44354475,0.3662023455,0.24611837,-0.9045818762,1.006452572,0
9.45362575,0.2165814525,0.3493775672,-0.7619770572,0.8657836022,0
9.46370675,-0.006386328936,0.2272093517,-0.4856254394,0.5361874132,0
9.47378675,-0.3867833751,-0.08666918457,-0.3730909503,0.5443434431,0
9.48386775,-0.8108509362,-0.4162834552,-0.2769358277,0.9526093682,0
9.49394775,-1.269083778,-0.6578591233,-0.1647710288,1.438923818,0
9.50402875,-1.666907866,-0.7082460424,-0.1252533527,1.815456607,0
9.51410975,-1.951101258,-0.5983236507,-0.1170108251,2.044132785,0
9.52418975,-2.099727539,-0.3944332874,-0.1505552781,2.141751678,0
9.53427075,-2.018972813,-0.05466532677,-0.2070903982,2.030301936,0
9.54435175,-1.847965729,0.1889931196,-0.2459685351,1.873818629,0
9.55443175,-1.82262799,0.3526870912,-0.4181215274,1.902941561,0
9.56451275,-1.982785565,0.4291084456,-0.814587307,2.186121025,0
9.57459375,-2.141060337,0.400688054,-1.290563379,2.531845991,0
9.58467375,-2.180224988,0.2937205526,-1.603339715,2.722195989,0
9.59475475,-2.106755893,-0.03411207139,-1.736754173,2.730549227,0
9.60483575,-1.848445786,-0.4857347824,-1.698993585,2.557199504,0
9.61491575,-1.498465371,-0.7560192561,-1.634262861,2.342600837,0
9.62499675,-1.045172256,-0.759075011,-1.517554775,1.992875414,0
9.63507775,-0.63588938,-0.6124806368,-1.565565094,1.797354138,0
9.64515775,-0.3184218228,-0.3173161143,-1.675123204,1.734393186,0
9.65523875,-0.02078158915,0.05869961321,-1.612836178,1.614037811,0
9.66531975,0.4009482551,0.4076965266,-1.599864276,1.698982538,0
9.67539975,0.973939721,0.761151942,-1.677865694,2.084021148,0
9.68548075,1.604631511,1.097942793,-1.735492343,2.606195376,0
9.69556075,2.245791571,1.150303439,-1.79524621,3.096721934,0
9.70564175,2.868891921,0.6945851925,-1.724156931,3.418436275,0
9.71572275,3.402615826,0.2951069275,-1.477880248,3.721426149,0
9.72580275,3.993450655,0.4645273697,-1.110894668,4.171033538,0
9.73588375,4.497137997,1.009398114,-0.6780086285,4.658629672,0
9.74596475,4.628245436,1.77336549,-0.3622693621,4.969579466,0
9.75604475,4.497117532,2.49637546,-0.159794025,5.146016971,0
9.76612575,4.222546903,3.18058506,-0.09959372386,5.287337949,0
9.77620675,4.21398541,3.711542355,0.04105081603,5.615594791,0
9.78628675,4.190204199,3.876172466,0.3849624791,5.72107685,0
9.79636775,3.615984233,3.564604164,0.6960851495,5.125063839,0
9.80644875,2.673947505,2.999003871,0.950818003,4.128931382,0
9.81652875,1.719295995,2.384286382,1.131361969,3.149727,0
9.82660975,1.02057302,1.800655907,1.168219308,2.376692521,0
9.83669075,0.4857451612,1.433454273,1.380244026,2.048368396,0
9.84677075,0.2379541951,1.330805817,1.698502711,2.17084725,0
9.85685175,0.1733570802,1.385420566,1.992127662,2.432697154,0
9.86693175,0.2736263037,1.322606851,1.880762762,2.315475935,0
9.87701275,0.4697816777,1.234275011,1.415594683,1.935985004,0
9.88709375,0.7120365,0.9210499012,1.100326703,1.601888807,0
9.89717375,0.7986325943,0.4803534436,1.073380248,1.421512789,0
9.90725475,0.4454613537,-0.1011536148,1.120422413,1.209964568,0
9.91733575,-0.2720656818,-0.7133901304,1.160465316,1.389109413,0
9.92741575,-1.016992185,-1.319484146,1.136355637,2.016585146,0
9.93749675,-1.482662686,-1.806736135,1.26929881,2.659643504,0
9.94757775,-1.870653511,-2.023550306,1.522955118,3.148569944,0
9.95765775,-2.275318256,-1.92852165,1.853735177,3.511780606,0
9.96773875,-2.470189582,-1.684358004,2.09401671,3.650178686,0
9.97781975,-2.360817413,-1.506596801,2.241661244,3.587246564,0
9.98789975,-2.134592147,-1.433406326,2.287753676,3.441649926,0
9.99798075,-1.875534182,-1.257667382,2.150853839,3.118577872,0
10.00806175,-1.733458536,-1.006116656,1.908800161,2.767791046,0
10.01814175,-1.785313983,-0.8838414368,1.679410236,2.605559526,0
10.02822275,-1.780894657,-0.8950005555,1.46704945,2.474842594,0
10.03830375,-1.819196844,-1.046429992,1.172363742,2.403940437,0
10.04838375,-2.002862565,-1.119223149,0.8228055686,2.437442905,0
10.05846475,-2.060809641,-0.9826082182,0.6648155558,2.377905594,0
10.06854475,-1.880244114,-0.7354098675,0.7728183067,2.161803353,0
10.07862575,-1.551130072,-0.4300749904,1.049409149,1.921517255,0
10.08870675,-1.20055675,-0.1723314786,1.251874838,1.743050561,0
10.09878675,-0.8965886593,0.02322689474,1.259269227,1.546017367,0
10.10886775,-0.5055637139,0.3178043568,1.110194025,1.260605034,0
10.11894875,-0.2604238755,0.5290473014,1.057235647,1.21056138,0
10.12902875,-0.1275423914,0.5703070092,1.004447569,1.16208092,0
10.13910975,-0.07787087917,0.5543797785,0.9629773611,1.113878903,0
10.14919075,-0.1107486033,0.5184340203,0.8881154591,1.034305639,0
10.15927075,-0.2126790208,0.455004302,0.7935877629,0.9391713465,0
10.16935175,-0.2726813936,0.4872955504,0.8019999328,0.9772491944,0
10.17943275,-0.3159233075,0.4945335263,0.9982547095,1.157965202,0
10.18951275,-0.2253528607,0.3624490178,1.144062633,1.221078421,0
10.19959375,-0.0259943819,0.1741201419,1.225774037,1.238351937,0
10.20967475,0.183402012,0.04948235482,1.341196319,1.35458199,0
10.21975475,0.4064920002,-0.05299623907,1.344793527,1.405885478,0
10.22983575,0.7196671164,-0.1275216338,1.305939363,1.496549413,0
10.23991575,1.015156159,-0.1108825046,1.309751748,1.660809019,0
10.24999675,1.159977073,-0.1260408264,1.26466913,1.720703667,0
10.26007775,1.119561703,-0.1905294755,1.000418837,1.513458866,0
10.27015775,0.8251158035,-0.2626145348,0.7655957528,1.15581977,0
10.28023875,0.4539848399,-0.4438229638,0.6675309297,0.9212375373,0
10.29031975,0.08976586998,-0.754682875,0.6578210434,1.005153062,0
10.30039975,-0.05515736997,-1.071208738,0.7873047104,1.330555975,0
10.31048075,-0.05404464483,-1.329623803,1.016168824,1.67434147,0
10.32056175,-0.05379730761,-1.587084309,1.145129238,1.957818104,0
10.33064175,-0.03935351551,-1.832573519,1.216796149,2.200106195,0
10.34072275,0.1085436183,-2.007856964,1.368946036,2.432546927,0
10.35080375,0.1339141023,-2.068435872,1.432868382,2.519815816,0
10.36088375,-0.06183722913,-2.073849809,1.309151824,2.453274418,0
10.37096475,-0.2878859085,-2.056735594,1.12280625,2.360875574,0
10.38104575,-0.4317858857,-2.080356591,0.9243014648,2.317035993,0
10.39112575,-0.6201018977,-2.179618047,0.6985493854,2.371335581,0
10.40120675,-0.7352288961,-2.173281127,0.537357949,2.356367109,0
10.41128675,-0.5352336556,-2.0361838,0.4715767729,2.157522697,0
10.42136788,-0.181392324,-1.945346428,0.4632094804,2.007943954,0
10.43144888,0.2893974137,-1.895392788,0.3529736048,1.949578172,0
10.44152888,0.7460251951,-1.899906254,0.2637211204,2.058092853,0
10.45160988,0.8741219026,-1.895100719,0.226276063,2.099213351,0
10.46169088,0.934765715,-1.649628467,0.1930498447,1.905867063,0
10.47177088,0.9857399869,-1.362664664,0.1014544541,1.684883175,0
10.48185188,1.057890535,-1.201313964,0.1545758235,1.608160847,0
10.49193288,0.9480587751,-1.03943643,0.2998545011,1.438456205,0
10.50201288,0.515345521,-0.7612358496,0.495006493,1.044074927,0
10.51209388,0.003731693029,-0.3453733939,0.5767534914,0.6722657931,0
10.52217488,-0.5992659295,0.03755666614,0.6354471843,0.8742558444,0
10.53225488,-1.122847254,0.4456508034,0.671627562,1.382199036,0
10.54233588,-1.491399595,0.9657039177,0.5367849219,1.856069735,0
10.55241688,-1.832600416,1.445101342,0.3157432133,2.355087249,0
10.56249688,-2.064800951,1.83260831,0.1330767079,2.76397641,0
10.57257788,-2.167028407,2.028144171,-0.02376074553,2.96815523,0
10.58265887,-2.122667336,1.968699915,-0.2578692269,2.906543052,0
10.59273887,-1.872431064,1.769899553,-0.5440231901,2.633344594,0
10.60281987,-1.499540673,1.242426322,-0.629879027,2.046702955,0
10.61289987,-1.088701268,0.581963726,-0.5043516592,1.333537711,0
10.62298087,-0.6592530996,-0.104706383,-0.1063012477,0.675927534,0
10.63306187,-0.1328078091,-0.8333814275,0.3661169761,0.919893558,0
10.64314187,0.3592611158,-1.557164691,0.7260160232,1.755257728,0
10.65322288,0.8104077172,-1.978292272,0.8699195087,2.308064326,0
10.66330388,1.213478512,-1.93709396,0.9008513526,2.456907867,0
10.67338388,1.529222894,-1.51118745,0.9771276961,2.361564885,0
10.68346488,1.530944899,-0.8280405807,1.210528007,2.120099418,0
10.69354588,1.121249794,-0.1393268698,1.394424693,1.79472374,0
10.70362588,0.6097330302,0.3686192921,1.440734056,1.607286275,0
10.71370688,0.1100843596,0.6783968836,1.39830549,1.558075461,0
10.72378788,-0.3791001338,0.8317225724,1.25030486,1.548787136,0
10.73386788,-0.7411310756,0.7937221026,0.9684087666,1.45502082,0
10.74394888,-0.9175269538,0.5510477427,0.8064566805,1.340105109,0
10.75402988,-1.039595767,0.2479672596,0.8728483059,1.379895389,0
10.76410988,-1.242447372,-0.01176167428,0.9146909811,1.542878284,0
10.77419088,-1.464400077,-0.2370309198,0.8908525407,1.730395761,0
10.78427088,-1.566853235,-0.4369682729,0.8771449131,1.848067513,0
10.79435188,-1.555497943,-0.599048413,0.9328320408,1.910133102,0
10.80443288,-1.410718544,-0.6827814183,0.9385850432,1.826816674,0
10.81451288,-1.261590571,-0.7176840332,0.9261317164,1.721743621,0
10.82459388,-1.045768088,-0.6917130402,0.9374385504,1.565531494,0
10.83467488,-0.7856944603,-0.6287554845,0.8434468976,1.313031574,0
10.84475488,-0.4684309709,-0.5033446956,0.5675528976,0.891571505,0
10.85483588,-0.2036678767,-0.324843235,0.3252981484,0.5028146942,0
10.86491688,-0.08889463484,0.04672188431,0.09949614845,0.1413671607,0
10.87499688,-0.1089710498,0.5061612993,-0.06464104213,0.5217781281,0
10.88507788,-0.1298309916,0.9106345484,-0.165588908,0.934628832,0
10.89515887,-0.01378305674,1.17344555,-0.183077053,1.187721195,0
10.90523887,0.2435903263,1.380806528,-0.1692834713,1.412310096,0
10.91531987,0.5636938083,1.645889465,-0.1627913808,1.747341945,0
10.92540087,0.7571138549,1.805528685,-0.3267120051,1.984917115,0
10.93548087,0.9915275609,1.84762776,-0.4617769857,2.147112766,0
10.94556187,1.254330668,1.887425956,-0.6020575364,2.344823116,0
10.95564187,1.48080561,1.999001648,-0.7997065817,2.613106095,0
10.96572288,1.650143899,2.08533491,-1.020682948,2.848401351,0
10.97580388,1.656944795,2.1937227,-1.245968127,3.018330982,0
10.98588388,1.570356302,2.411838755,-1.38743844,3.194991474,0
10.99596488,1.485287501,2.70218371,-1.427807617,3.398015649,0
11.00604588,1.430259939,2.954730216,-1.402860617,3.569886841,0
11.01612588,1.439181036,3.200177911,-1.225663524,3.716803975,0
11.02620688,1.511740304,3.391421039,-0.8989382167,3.820364554,0
11.03628788,1.739379426,3.399788697,-0.4074364717,3.840573974,0
11.04636788,1.959688479,3.189052998,0.02498456776,3.743135342,0
11.05644888,2.097839473,2.7517757,0.4557137154,3.490111022,0
11.06652988,2.304263143,2.094478494,0.8742078567,3.234301806,0
11.07660988,2.522012284,1.352916479,1.291258759,3.139789506,0
11.08669088,2.707787097,0.8765432346,1.757132596,3.344839901,0
11.09677188,2.617058775,0.9314135063,2.28011692,3.593808692,0
11.10685188,2.156646091,1.455294208,2.496818971,3.60598233,0
11.11693288,1.659174339,2.052620031,2.350061313,3.533963307,0
11.12701288,1.288706449,2.459464619,2.051049469,3.452033379,0
11.13709388,1.202852951,2.627938689,1.703578679,3.354861739,0
11.14717488,1.282232412,2.504295806,1.423906208,3.153272321,0
11.15725488,1.397811985,2.12052287,1.301699986,2.853930349,0
11.16733588,1.396298141,1.755514233,1.267437202,2.576407534,0
11.17741688,1.233112877,1.361619182,1.280284705,2.239129985,0
11.18749688,1.1444533,0.8717891559,1.469450317,2.056471231,0
11.19757788,1.072574648,0.3557998565,1.834191443,2.154360268,0
11.20765887,1.028729301,0.0001403331757,2.142992257,2.377120066,0
11.21773887,1.087446456,-0.1943430296,2.444696745,2.682694761,0
11.22781987,1.07389261,-0.3336631751,2.859987196,3.073125968,0
11.23790087,1.010383077,-0.3899940813,3.19949174,3.377827222,0
11.24798087,0.8536443686,-0.3525096282,3.473014548,3.593716989,0
11.25806187,0.687117421,-0.2415502328,3.709162538,3.779995185,0
11.26814288,0.5032423693,-0.1059734747,3.989980917,4.022987817,0
11.27822288,0.2532791626,-0.04798166692,4.23041667,4.238263534,0
11.28830388,0.01743990541,-0.06954181284,4.417898285,4.418479995,0
11.29838388,-0.1937182546,-0.112570011,4.572063049,4.577549486,0
11.30846488,-0.4376488888,-0.216540522,4.680923586,4.706322553,0
11.31854588,-0.753358773,-0.2852762961,4.707936553,4.776358299,0
11.32862588,-1.123630196,-0.2545026925,4.696078985,4.835336004,0
11.33870688,-1.524248668,-0.2001358661,4.607605934,4.857305921,0
11.34878788,-1.846058367,-0.1333501384,4.409388832,4.782094063,0
11.35886788,-2.005563394,-0.1353577799,4.236077945,4.688812494,0
11.36894888,-2.098958631,-0.198178803,3.977367303,4.501594477,0
11.37902988,-2.025134025,-0.1864802787,3.675656238,4.200760823,0
11.38910988,-1.902845356,-0.06808702558,3.420574964,3.914816647,0
11.39919088,-1.67482675,0.01047353268,3.292246122,3.693783814,0
11.40927188,-1.353767248,-0.04346176922,3.345376262,3.609171238,0
11.41935188,-1.008083952,-0.2387385991,3.506493366,3.656326722,0
11.42943379,-0.6486731476,-0.5428531623,3.706235422,3.801532245,0
11.43951479,-0.3445068365,-0.8092145929,3.882837707,3.981198548,0
11.44959479,-0.0297740221,-1.091602364,3.982873042,4.129861969,0
11.45967579,0.2794974929,-1.308641069,4.188048331,4.396636114,0
11.46975579,0.3256185758,-1.379455821,4.519523478,4.736561863,0
11.47983679,0.1783728218,-1.331535842,4.870255845,5.052147717,0
11.48991779,0.008681945801,-1.085994885,5.162504361,5.27550107,0
11.49999779,-0.1485648859,-0.803944205,5.442612888,5.503674487,0
11.51007879,-0.1881131136,-0.5190874466,5.61774986,5.644816367,0
11.52015979,-0.1067321509,-0.1937241018,5.706877799,5.711162315,0
11.53023979,0.09513595283,-0.06700178236,5.818784151,5.819947516,0
11.54032079,0.2593228447,-0.06435620964,5.90308229,5.909126042,0
11.55040179,0.4153324056,-0.06345573843,5.910211215,5.925126517,0
11.56048179,0.5046872163,-0.06639337957,5.754270651,5.776741988,0
11.57056279,0.5094509429,-0.1916287521,5.40873412,5.436052485,0
11.58064379,0.1429726088,-0.3599344227,4.9048737,4.920140239,0
11.59072379,-0.4539170122,-0.6378677854,4.424434887,4.493165926,0
11.60080479,-1.062771791,-0.9360690594,3.808803771,4.063581588,0
11.61088579,-1.683154939,-1.085049682,3.209738985,3.78322187,0
11.62096579,-2.028414313,-1.075910777,2.696683819,3.541772472,0
11.63104679,-2.099697719,-0.9555572444,2.223779143,3.204218131,0
11.64112779,-2.014330709,-0.8603213042,1.730239643,2.79130976,0
11.65120779,-1.805671649,-0.8048449686,1.336212738,2.386145429,0
11.66128879,-1.52231207,-0.7622155505,1.035093995,1.992442261,0
11.67136979,-1.293238041,-0.7942141458,0.8808947325,1.754769578,0
11.68144979,-1.206240828,-0.9027212191,0.8730173635,1.741287412,0
11.69153079,-1.280004623,-0.9534852836,0.9461531675,1.855465396,0
11.70161079,-1.590281274,-1.002320644,1.165461177,2.211773261,0
11.71169179,-1.820316001,-1.069127129,1.389515955,2.527318292,0
11.72177279,-1.858973113,-1.213938103,1.497701139,2.678158967,0
11.73185279,-1.621225909,-1.272405289,1.498756562,2.548266057,0
11.74193379,-1.211580505,-1.0915015,1.424006342,2.164970417,0
11.75201479,-0.8841317511,-0.9566454113,1.24691523,1.803235144,0
11.76209479,-0.5985350275,-0.9408330783,1.043710452,1.527331846,0
11.77217579,-0.4776467675,-1.163571941,1.049792214,1.638325301,0
11.78225679,-0.4171807104,-1.452527305,1.175574521,1.91464116,0
11.79233679,-0.4627433842,-1.725474747,1.259456338,2.18577785,0
11.80241779,-0.5851542592,-1.885008425,1.309609661,2.368700009,0
11.81249879,-0.7666471553,-1.86095298,1.212314331,2.349595687,0
11.82257879,-0.8352034199,-1.681563912,1.044776984,2.148669563,0
11.83265979,-0.8507488275,-1.454289656,0.8573274567,1.890434431,0
11.84274079,-0.7719605201,-1.265956395,0.4784606268,1.558041466,0
11.85282079,-0.6255936027,-1.094492058,-0.0008197796345,1.260666845,0
11.86290179,-0.4392790926,-0.9199319136,-0.3706737113,1.084730311,0
11.87298279,-0.380401724,-0.7799910861,-0.5983420694,1.054089559,0
11.88306279,-0.3024291033,-0.6518546176,-0.7672353121,1.051203039,0
11.89314379,-0.08724455059,-0.540950186,-0.9418233043,1.089619132,0
11.90322479,0.1562153828,-0.4333643416,-1.0521895,1.148612485,0
11.91330479,0.6094623041,-0.6076286173,-1.15663422,1.441686358,0
11.92338579,0.9962930417,-1.093377872,-1.31161584,1.976970184,0
11.93346679,1.150004062,-1.600976709,-1.366774964,2.398689135,0
11.94354679,1.259629415,-1.868100616,-1.157703091,2.533129018,0
11.95362779,1.482733437,-1.938552548,-0.8380639509,2.580471975,0
11.96370879,1.800295719,-2.02912241,-0.5324930656,2.764407947,0
11.97378879,1.995338368,-2.05252823,-0.01425671775,2.86259508,0
11.98386979,2.155281351,-1.855250775,0.5119529665,2.889513623,0
11.99395079,2.179395268,-1.549996882,0.9783466943,2.847703693,0
12.00403079,2.009103298,-1.191239796,1.354208128,2.699894066,0
12.01411179,1.521116899,-0.7180684876,1.54181078,2.281797418,0
12.02419279,0.9248979539,-0.07610735893,1.488478326,1.754079896,0
12.03427279,0.2855131084,0.7053390992,1.308662412,1.513809198,0
12.04435379,-0.3169997799,1.41430698,0.981903044,1.750681777,0
12.05443479,-0.7249874979,1.922279747,0.4875874726,2.1115179,0
12.06451479,-0.998579303,2.33738762,-0.01300186872,2.541792784,0
12.07459579,-1.042219412,2.613042907,-0.4814965012,2.854129187,0
12.08467679,-0.889598313,2.8323018,-0.9645310394,3.121480221,0
12.09475679,-0.5725160873,3.014264812,-1.29336668,3.329619257,0
12.10483779,-0.2920169663,3.079991609,-1.519123583,3.446644554,0
12.11491879,-0.1573982745,3.120740855,-1.607820582,3.514097996,0
12.12499879,-0.02196740448,2.9811608,-1.737491945,3.450605823,0
12.13507979,0.2531756669,2.515294418,-1.807847983,3.107912202,0
12.14516079,0.6805246854,1.70084569,-1.604300559,2.435111947,0
12.15524079,1.152175133,0.8966705203,-1.150044408,1.858528369,0
12.16532179,1.610239576,0.3180914551,-0.5765185795,1.739662995,0
12.17540279,1.993402355,-0.1141581148,-0.02126698114,1.996781738,0
12.18548279,2.179550804,-0.4197464687,0.4791694555,2.27073384,0
12.19556379,2.128243825,-0.5310236603,0.7569969837,2.320442273,0
12.20564479,1.727859827,-0.3369966727,0.753110851,1.914743401,0
12.21572479,1.199124767,0.05633441448,0.4737273788,1.29053919,0
12.22580579,0.8671262938,0.3315371275,0.03903476916,0.9291655339,0
12.23588679,0.6496379381,0.3550107747,-0.3918839014,0.8376366115,0
12.24596679,0.4106482011,0.2637626356,-0.7429904902,0.8889530592,0
12.25604779,0.08255625308,0.2010728824,-1.02872053,1.051433197,0
12.26612879,-0.3189977735,0.1553926796,-1.288202858,1.336178531,0
12.27620879,-0.7610507852,0.04444994867,-1.597194876,1.769803822,0
12.28628979,-1.086807355,-0.1177678934,-1.744837217,2.058998888,0
12.29637079,-1.258519029,-0.2402843106,-1.723472222,2.147548183,0
12.30645079,-1.253878094,-0.2733362818,-1.599773644,2.050901926,0
12.31653179,-1.109554778,-0.1834926438,-1.363419832,1.767397803,0
12.32661279,-0.8906391174,0.006345690787,-1.227522646,1.516604811,0
12.33669279,-0.6115053213,0.1875403789,-1.154666047,1.3199863,0
12.34677379,-0.4905638516,0.3435285974,-1.036480955,1.197062053,0
12.35685479,-0.428089276,0.4049629533,-0.9497642617,1.117724284,0
12.36693479,-0.3950881755,0.4392931259,-0.924518031,1.097181255,0
12.37701579,-0.3890140879,0.4299001586,-0.939572711,1.10405751,0
12.38709679,-0.3846093804,0.5122231078,-0.9411748481,1.138466944,0
12.39717679,-0.3777207756,0.5271332154,-0.8792083955,1.092497054,0
12.40725779,-0.2648987496,0.4418284786,-0.9216106492,1.055817191,0
12.41733879,-0.1326423329,0.3286410016,-0.8299925275,0.9024890537,0
12.4274185,-0.007199091911,0.2728185108,-0.6585748956,0.7128833424,0
12.4374995,-0.004450900555,0.3185700497,-0.4256264287,0.531662058,0
12.4475805,0.01090856552,0.3607275975,-0.1883575273,0.4070896148,0
12.4576605,-0.003612994552,0.3601042843,0.0006427551806,0.3601229824,0
12.4677415,-0.08559738994,0.3719922584,0.130512777,0.4034088973,0
12.4778225,-0.2100506973,0.452646997,0.133536226,0.5165680236,0
12.4879025,-0.3242813176,0.5366937053,0.07266217947,0.6312513751,0
12.4979835,-0.5629412717,0.5107805997,-0.05452762485,0.7620846136,0
12.5080645,-0.8362313604,0.4847853407,-0.2101176479,0.9891658813,0
12.5181445,-0.9666874194,0.4963362229,-0.3559409206,1.143471973,0
12.5282255,-1.106457508,0.5089226469,-0.5315905479,1.328848746,0
12.5383065,-1.173962443,0.5465059179,-0.6242639458,1.437554177,0
12.5483865,-1.128115595,0.5531042084,-0.8217777742,1.501295364,0
12.5584675,-1.02107705,0.5682669157,-0.914005322,1.483553625,0
12.5685485,-0.8272032595,0.5650187874,-0.8356514628,1.304540084,0
12.5786285,-0.4927840394,0.4845476514,-0.674803331,0.9659099707,0
12.5887095,-0.104890278,0.4242292365,-0.5891724658,0.7335506867,0
12.5987905,0.2291126204,0.405566386,-0.4923782426,0.6778001328,0
12.6088705,0.5951038814,0.3943753999,-0.4571106152,0.8477208858,0
12.6189515,0.8299233842,0.3797178921,-0.5217528999,1.051277599,0
12.6290325,1.131586502,0.3437569311,-0.5974263954,1.324981184,0
12.6391125,1.40761835,0.3119714668,-0.6386950202,1.57691057,0
12.6491935,1.545178776,0.4073921791,-0.6947522767,1.742477135,0
12.6592745,1.699703729,0.6865131113,-0.6901511027,1.958724474,0
12.6693545,1.83353597,0.9332512861,-0.5334404607,2.125410747,0
12.6794355,2.108337564,1.004720634,-0.3519507806,2.361867945,0
12.6895165,2.414382586,0.9108792543,-0.1716590488,2.586196264,0
12.6995965,2.838252511,0.8145302966,0.00531570375,2.952823255,0
12.7096775,3.280292659,0.5253761271,0.2048231404,3.328406904,0
12.7197585,3.488182225,0.1717227834,0.3946798937,3.514637416,0
12.7298385,3.380805126,-0.1414470702,0.5176135097,3.423123475,0
12.7399195,2.988211958,-0.2620534945,0.401773151,3.026467314,0
12.7500005,2.647126912,-0.262577405,0.118031749,2.662735299,0
12.7600805,2.35734709,-0.2145589006,-0.05840198994,2.367811567,0
12.7701615,2.050894518,-0.001567053795,-0.1157444644,2.054158602,0
12.7802425,1.670194586,0.2853517252,-0.2239283328,1.709128275,0
12.7903225,1.18328232,0.6793488103,-0.2473616342,1.386672144,0
12.8004035,0.6750610471,1.096209678,-0.07263177395,1.289441139,0
12.8104845,0.1700861478,1.416885602,0.2184661563,1.443683334,0
12.8205645,-0.4143541664,1.525007637,0.381233198,1.625631083,0
12.8306455,-0.8796118534,1.368111053,0.3906700194,1.672742637,0
12.8407265,-1.037051643,0.9769448975,0.5189234322,1.51630438,0
12.8508065,-0.9975192028,0.2615827936,0.6010173167,1.193604597,0
12.8608875,-1.075160286,-0.5726192906,0.3448709719,1.266016777,0
12.8709685,-1.225606806,-1.33364464,-0.05353725269,1.812066861,0
12.8810485,-1.386381263,-2.083912868,-0.3278938736,2.524333623,0
12.8911295,-1.422173824,-2.688755871,-0.3063455683,3.057095702,0
12.9012105,-1.416514304,-3.009181243,-0.04594844386,3.326228462,0
12.9112905,-1.378500386,-3.065542554,0.3806293269,3.382705005,0
12.9213715,-1.525142707,-2.949280611,0.8125380041,3.418264824,0
12.9314525,-1.807656779,-2.67096718,1.108977073,3.410501261,0
12.9415325,-2.180899172,-2.463448327,1.232740409,3.513480863,0
12.9516135,-2.607354151,-2.380012945,1.162704945,3.71680509,0
12.9616945,-2.891926442,-2.431544456,0.9959607737,3.907375699,0
12.9717745,-3.06238038,-2.446228861,0.9237453215,4.026849221,0
12.9818555,-2.910831075,-2.44872416,0.9380359165,3.917792611,0
12.9919365,-2.563418757,-2.392874773,0.8968085146,3.619562255,0
13.0020165,-2.310603279,-2.377308315,0.7346383274,3.395611257,0
13.0120975,-2.207923833,-2.37323953,0.3702193826,3.262553587,0
13.0221785,-2.189877571,-2.363291077,0.05933096632,3.222456929,0
13.0322585,-2.127600047,-2.356618235,-0.01860598639,3.175008291,0
13.0423395,-2.017710984,-2.144739406,0.283520962,2.958284785,0
13.0524205,-1.927592527,-1.806484997,0.7311077785,2.741080002,0
13.0625005,-1.72876556,-1.464552104,1.115564547,2.525475695,0
13.0725815,-1.433892814,-1.203089179,1.450514109,2.36800831,0
13.0826625,-1.170444174,-1.024468435,1.671414315,2.283221617,0
13.0927425,-1.044795111,-0.8566393125,1.746308377,2.2079449,0
13.1028235,-1.036892014,-0.7923421597,1.621583759,2.081462234,0
13.1129045,-1.117376014,-0.8133886278,1.342380527,1.926685157,0
13.1229855,-1.235970411,-0.912377311,0.9960905819,1.830915526,0
13.1330655,-1.379160537,-1.059724807,0.7255190098,1.884536623,0
13.1431465,-1.361789044,-1.149710532,0.6522281085,1.897815906,0
13.1532275,-1.222526493,-1.078362806,0.7985694444,1.815254948,0
13.1633075,-1.190247524,-0.8480193472,0.9506894374,1.743455301,0
13.1733885,-1.221532466,-0.4831513363,1.026421259,1.667068499,0
13.1834695,-1.156453541,-0.09168960392,1.032792531,1.553207066,0
13.1935495,-1.145333891,0.1237493026,0.9600537533,1.499602221,0
13.2036305,-1.172157993,0.3330193967,0.8352156991,1.477308885,0
13.2137115,-1.208393773,0.3910945272,0.6663187288,1.4342772,0
13.2237915,-1.096392111,0.2021680659,0.4384252529,1.197983427,0
13.2338725,-0.9016155106,-0.01882628024,0.1863665503,0.9208677695,0
13.2439535,-0.6836359888,-0.01794919789,0.01552201867,0.6840477118,0
13.2540335,-0.4500011319,0.1025689334,-0.08900178507,0.4700454473,0
13.2641145,-0.305060935,0.188028329,-0.1773589146,0.3998412325,0
13.2741955,-0.1674981701,0.3185340893,-0.1920118909,0.4079070596,0
13.2842755,-0.02275619388,0.4351749319,-0.1655019307,0.4661394156,0
13.2943565,0.04299866974,0.5129803222,-0.05048836827,0.5172492358,0
13.3044375,0.1762128603,0.5483320034,0.02556168795,0.5765174394,0
13.3145175,0.3413481706,0.5810500985,0.07748203933,0.6783371264,0
13.3245985,0.5009403205,0.6200024951,0.01775097728,0.7972825069,0
13.3346795,0.7389664364,0.6848902166,-0.1929744887,1.025858253,0
13.3447595,1.116155115,0.5902425063,-0.2742661352,1.292056644,0
13.3548405,1.464691268,0.4204890651,-0.2598561108,1.545851469,0
13.3649215,1.756079659,0.3016064,-0.296678659,1.806322345,0
13.3750015,1.9987777,0.2972566563,-0.2172627993,2.032406686,0
13.3850825,2.127230503,0.4110709548,-0.01524398357,2.166638254,0
13.3951635,2.151082465,0.5994290668,0.2374279457,2.245627531,0
13.4052435,2.163553991,0.7667687774,0.6151247478,2.376400363,0
13.4153245,2.181344145,0.9731246191,0.9166463631,2.558412468,0
13.42540538,2.222398031,1.037304243,0.9716411805,2.638018135,0
13.43548538,2.19871213,0.9268403989,0.7719764538,2.507850833,0
13.44556638,2.149565113,0.7161570328,0.6014890409,2.344205651,0
13.45564738,2.004160062,0.4198727685,0.4719930947,2.101363409,0
13.46572738,1.854906959,0.2232525408,0.5029353905,1.934803745,0
13.47580837,1.860641323,0.04683853626,0.6288598573,1.964597848,0
13.48588937,1.846263605,-0.01045949936,0.8584462483,2.03610625,0
13.49596937,1.809875797,0.08176570952,1.190583154,2.167907811,0
13.50605037,1.705997672,0.2751454103,1.446268446,2.253403087,0
13.51613137,1.529343347,0.3539974523,1.480533714,2.157819582,0
13.52621137,1.254545261,0.1967032582,1.354072473,1.856364255,0
13.53629237,0.9654647666,-0.05245244801,1.123557106,1.482313747,0
13.54637338,0.7070324528,-0.3281515896,1.002003433,1.269483845,0
13.55645438,0.4219461912,-0.5572665489,0.9929869529,1.214334255,0
13.56653438,0.3593213421,-0.5358587229,0.9640520793,1.160022762,0
13.57661538,0.3949764937,-0.4504022509,0.6969324841,0.9190122446,0
13.58669638,0.468825658,-0.4727871466,0.3386788436,0.7470130806,0
13.59677638,0.6003231061,-0.5424011725,0.2640835746,0.8510740262,0
13.60685738,1.056489542,-0.6548045379,0.5461509188,1.357652371,0
13.61693838,1.751640453,-0.6333733231,0.9366578009,2.084882222,0
13.62701838,2.180253054,-0.6040629852,1.229974676,2.57511809,0
13.63709938,2.219439924,-0.648098951,1.565638769,2.792341416,0
13.64718038,1.811415369,-0.8067888755,1.974288976,2.798204941,0
13.65726038,1.43947749,-0.9141595423,2.308373151,2.869907614,0
13.66734138,1.462834193,-1.083655121,2.469343489,3.067873786,0
13.67742238,1.895772564,-1.786769355,2.556438936,3.649914845,0
13.68750238,2.278692684,-2.319168865,2.597047849,4.161206808,0
13.69758338,1.949370482,-1.776840198,2.759384682,3.817251654,0
13.70766438,1.13575966,-0.5135954493,2.826814772,3.089435555,0
13.71774438,0.1682892984,0.9676118642,2.597075331,2.776579601,0
13.72782538,-0.8327727324,2.5388739,2.195103813,3.458015595,0
13.73790638,-1.734599912,3.532411734,1.312136242,4.148309418,0
13.74798638,-2.335826998,3.878611924,0.08505301416,4.52846025,0
13.75806738,-2.477496262,3.65221592,-1.412341146,4.633721654,0
13.76814837,-2.198281775,3.232433199,-2.80251316,4.80990095,0
13.77822837,-1.321084237,2.693209988,-3.753544074,4.804970002,0
13.78830937,-0.06424043477,2.115992154,-4.057686412,4.576720294,0
13.79839037,1.179457072,1.766987055,-3.775915521,4.332539701,0
13.80847037,1.968171619,1.537588506,-3.5430677,4.334882543,0
13.81855137,2.188985286,1.161634174,-3.232072425,4.072756155,0
13.82863237,1.95977034,0.7474419755,-2.733058763,3.44513853,0
13.83871237,1.41265982,0.4167579567,-2.324562337,2.751887537,0
13.84879338,0.7157149833,0.1951157391,-1.941167277,2.078087699,0
13.85887438,-0.01384503722,0.0149560082,-1.815768475,1.815882849,0
13.86895438,-0.8322587621,-0.230301944,-1.841036194,2.033496472,0
13.87903538,-1.609433244,-0.5910780734,-1.910860574,2.56730146,0
13.88911638,-2.292738866,-1.012846509,-2.134096888,3.291941537,0
13.89919638,-2.924776685,-1.31538671,-2.325375246,3.96130419,0
13.90927738,-3.203140987,-1.426885511,-2.32791016,4.208952382,0
13.91935838,-3.10136669,-1.498543723,-2.204152525,4.089302751,0
13.92943938,-2.643584084,-1.463335884,-2.071864972,3.663674819,0
13.93951938,-2.003668896,-1.292397797,-1.818697345,2.998773273,0
13.94960038,-1.321211706,-1.077180499,-1.415228648,2.215579005,0
13.95968138,-0.7230351126,-0.8496109593,-1.220089374,1.653250325,0
13.96976138,-0.5987221384,-0.6869881976,-1.439807857,1.703956469,0
13.97984238,-0.6867104548,-0.525591597,-1.903369413,2.090605869,0
13.98992338,-0.7456065345,-0.486066758,-2.120414404,2.299640676,0
14.00000338,-0.6904614437,-0.4728111202,-1.955289618,2.126839169,0
14.01008438,-0.66185628,-0.5489430374,-1.713817884,1.917436814,0
14.02016538,-0.6493929398,-0.5837304622,-1.349005422,1.606943705,0
14.03024538,-0.5706116492,-0.4318081051,-0.9904553278,1.221907382,0
14.04032638,-0.4016048974,-0.1634162289,-0.6524511798,0.7833797926,0
14.05040738,-0.3478777564,0.01834914744,-0.4286780906,0.5523771627,0
14.06048738,-0.5755355895,-0.04294721425,-0.5954724021,0.8292605499,0
14.07056837,-0.9508841497,-0.1795943052,-1.067184246,1.440596055,0
14.08064937,-1.225874024,-0.1787558144,-1.476077697,1.92705115,0
14.09072937,-1.244559386,-0.007799600959,-1.664314187,2.078203699,0
14.10081037,-1.10427942,0.2076030529,-1.642081758,1.989714694,0
14.11089137,-0.9021955544,0.3176458973,-1.473376869,1.756614679,0
14.12097137,-0.719546079,0.2550420982,-1.305854725,1.512630025,0
14.13105237,-0.5973913121,0.2659652817,-1.121028185,1.297812815,0
14.14113338,-0.5485080045,0.2145045215,-1.087799774,1.23700508,0
14.15121338,-0.5361241865,0.1279283077,-1.116329362,1.244984354,0
14.16129438,-0.4673211694,0.1548067886,-1.067080604,1.175166045,0
14.17137538,-0.3918312764,0.1940217251,-0.9543742065,1.049764881,0
14.18145538,-0.2893898124,0.1562680078,-0.8559475869,0.9169582462,0
14.19153638,-0.09209715486,0.0829772526,-0.7057799792,0.7165839026,0
14.20161738,0.1154392397,0.05098011911,-0.6608809644,0.6728215512,0
14.21169838,0.2127895331,0.1772957647,-0.5761273277,0.6392463307,0
14.22177838,0.1872161508,0.3702860409,-0.4133861598,0.5857044957,0
14.23185938,0.1679010433,0.453407135,-0.3456631234,0.5943498846,0
14.24194038,0.2720329374,0.4879162323,-0.3815606421,0.676500327,0
14.25202038,0.438879143,0.4448567516,-0.4436510557,0.7663802521,0
14.26210138,0.6085097927,0.364351117,-0.5859146896,0.9199630035,0
14.27218238,0.6519891036,0.3226768416,-0.7746473157,1.062679914,0
14.28226238,0.5445599645,0.3700626773,-1.024111463,1.217495884,0
14.29234338,0.4451730859,0.4870718944,-1.177987667,1.350212224,0
14.30242438,0.4244207329,0.4971600956,-1.132604795,1.307705907,0
14.31250438,0.3683400875,0.483122685,-1.016101216,1.183868079,0
14.32258538,0.3827721852,0.603145557,-0.8350293191,1.098896297,0
14.33266638,0.4837307954,0.668066023,-0.5777171856,1.007007865,0
14.34274638,0.6065047824,0.5111004424,-0.3960669994,0.886533012,0
14.35282738,0.6822537071,0.2220942074,-0.2398558559,0.756522828,0
14.36290838,0.6724069959,-0.1116473204,-0.2089429423,0.7129189613,0
14.37298838,0.576907931,-0.3359488517,-0.2542787442,0.7143823007,0
14.38306937,0.5185743535,-0.3622122055,-0.2962154134,0.6984701948,0
14.39315037,0.7591282207,-0.4565874356,-0.2780307189,0.9284658434,0
14.40323037,1.265230463,-0.8504909652,-0.2316696078,1.542016152,0
14.41331137,1.768882722,-1.433340837,-0.09048829347,2.278508321,0
14.42339237,2.028798475,-1.914701756,0.105980199,2.791655041,0
14.43347175,2.182396059,-2.089002576,0.2311202618,3.029884635,0
14.44355275,2.167633594,-1.848807728,0.0540187709,2.849498805,0
14.45363375,1.728249251,-1.06453765,-0.4038356102,2.069581862,0
14.46371475,1.248949476,-0.0006905561686,-0.7746517012,1.469680417,0
14.47379475,0.8901333332,0.8005691922,-0.5962335634,1.337438912,0
14.48387575,0.6397046882,1.265493003,-0.1505769128,1.425962144,0
14.49395675,0.4261327976,1.236283822,0.1960641575,1.322281363,0
14.50403675,0.226626969,0.8315810698,0.3601241648,0.9341179116,0
14.51411775,0.08452033281,0.2218901396,0.3456369571,0.4193373664,0
14.52419875,-0.1697183579,-0.4893476307,-0.0108103323,0.5180562595,0
14.53427875,-0.5638312179,-1.042946806,-0.5834100348,1.321367077,0
14.54435975,-0.9095069128,-1.320235806,-1.05209419,1.91758379,0
14.55444075,-1.150011663,-1.436553882,-1.338065866,2.275221779,0
14.56452075,-1.397733632,-1.415779309,-1.440620036,2.456313589,0
14.57460175,-1.598804176,-1.286207934,-1.1200957,2.337759615,0
14.58468275,-1.624756458,-1.182239177,-0.5385858643,2.080287901,0
14.59476275,-1.494409742,-1.176422367,0.0613096641,1.902889628,0
14.60484375,-1.274798847,-1.213451614,0.6232253341,1.867079735,0
14.61492475,-1.119959899,-1.17663579,0.9123029052,1.863083076,0
14.62500475,-1.218666161,-0.9918900883,1.00370658,1.864516039,0
14.63508575,-1.417379107,-0.7731340563,0.8387501948,1.819395969,0
14.64516675,-1.67666453,-0.644360826,0.6539045052,1.911542812,0
14.65524675,-1.921073467,-0.5605456674,0.5508372429,2.075609881,0
14.66532775,-1.994636702,-0.4530563021,0.623028283,2.138223521,0
14.67540875,-1.83707529,-0.1731132513,0.8633763282,2.037211944,0
14.68548875,-1.575614119,0.08818712175,1.084789627,1.914968761,0
14.69556975,-1.126977142,0.2320333046,1.229895154,1.684208723,0
14.70565075,-0.4462402028,0.1662310785,1.617765381,1.686394947,0
14.71573075,0.1192644882,0.1751463282,1.922479722,1.934122161,0
14.72581175,0.447613129,0.313003208,1.957492265,2.032265851,0
14.73589275,0.5951296091,0.3832194972,1.644791065,1.790635106,0
14.74597375,0.700561924,0.5268990344,1.249868512,1.52662402,0
14.75605375,0.7878064746,0.6225852102,0.8965259479,1.346109268,0
14.76613475,0.8983434087,0.6614814734,0.7398702697,1.338651051,0
14.77621575,1.105003306,0.7329742098,0.7906217627,1.543815491,0
14.78629575,1.353845016,0.7991617674,0.9524272299,1.838116832,0
14.79637675,1.496385516,0.7750285542,1.141494171,2.035398687,0
14.80645775,1.607450454,0.8610668242,1.415788665,2.308633921,0
14.81653775,1.574021922,1.087339452,1.718880258,2.571847864,0
14.82661875,1.404685387,1.431819391,1.924552414,2.779775135,0
14.83669975,1.110578626,1.780735028,1.884054598,2.820294994,0
14.84677975,0.7810821766,1.917609576,1.635504225,2.638596203,0
14.85686075,0.6180524486,1.807695955,1.317796932,2.320849467,0
14.86694175,0.6585859323,1.565057555,0.9320536302,1.936973038,0
14.87702175,0.7855406785,1.355313252,0.7592960358,1.740826999,0
14.88710275,0.9362947619,1.152212555,0.6087745254,1.604633315,0
14.89718375,1.110068164,1.041784379,0.295205453,1.550713475,0
14.90726375,1.235382766,0.9315871686,0.07771125019,1.549214081,0
14.91734475,1.333287376,0.8253672338,-0.001561937481,1.568084416,0
14.92742575,1.410030327,0.8555944151,0.07298319161,1.650925156,0
14.93750575,1.402338315,0.9086912262,0.2929642153,1.696496544,0
14.94758675,1.393827108,0.9438569659,0.5685602997,1.776761321,0
14.95766775,1.403958578,1.010235143,0.744578594,1.883101701,0
14.96774775,1.463899555,1.021237264,0.5643766169,1.872017207,0
14.97782875,1.54013146,1.039853629,0.08563832045,1.860278045,0
14.98790975,1.440749259,1.059824209,-0.4352708262,1.840773336,0
14.99799075,1.063105667,0.9326016605,-0.7604170932,1.605669228,0
15.00807075,0.5721453738,0.708082028,-0.5529992509,1.065147247,0
15.01815175,0.2413596135,0.5185544729,0.2071943325,0.6083442248,0
15.02823275,0.1167414147,0.4049009728,1.025757746,1.108941977,0
15.03831275,0.1119133687,0.3023525047,1.80737085,1.835900604,0
15.04839375,0.1038962513,0.1594336903,2.493214747,2.500466618,0
15.05847475,0.2035211116,0.1070940936,2.976264342,2.985136416,0
15.06855475,0.3997466522,0.2075217766,2.9886581,3.022406312,0
15.07863575,0.4864567673,0.4086636561,2.726078357,2.799133683,0
15.08871675,0.4894090265,0.5524636459,2.200655159,2.321124815,0
15.09879675,0.4289260125,0.4744582808,1.563846012,1.689586498,0
15.10887775,0.4579685479,0.3139469486,1.202032514,1.324077053,0
15.11895875,0.5774721873,0.01998285949,1.056347966,1.204053349,0
15.12903875,0.6513026404,-0.05337279975,1.144264435,1.317719577,0
15.13911975,0.6333060801,0.1213098443,1.286292134,1.438867653,0
15.14920075,0.6286066729,0.3030927622,1.348907043,1.518736903,0
15.15928075,0.8771653783,0.2972408688,1.373838986,1.656865955,0
15.16936175,1.446646761,-0.02160546184,1.641773025,2.188303524,0
15.17944275,2.099577851,-0.4422968405,2.022429103,2.94857137,0
15.18952275,2.462335017,-0.9330051184,2.179243825,3.417995894,0
15.19960375,2.543989044,-1.471423752,2.124647203,3.626443692,0
15.20968475,2.599656876,-1.853363879,2.217156587,3.887024167,0
15.21976475,2.528220273,-1.75587676,2.53570354,3.988081417,0
15.22984575,2.414662083,-1.216168815,2.719352889,3.834649879,0
15.23992675,2.21359037,-0.4867374337,2.833898674,3.628756998,0
15.25000675,1.835155649,0.2470004225,2.985927451,3.513483771,0
15.26008775,1.473625814,0.901169368,2.993264537,3.4559097,0
15.27016875,1.139336402,1.554787506,2.804656749,3.403167804,0
15.28024875,1.024837979,2.334910739,2.333980447,3.456814396,0
15.29032975,1.19085388,3.126447152,1.755759816,3.778292907,0
15.30041075,1.373333786,3.648470778,1.069650455,4.042466673,0
15.31049075,1.499103886,4.113901543,0.4541824393,4.402019997,0
15.32057175,1.718272147,4.482843309,0.09137451209,4.801738498,0
15.33065275,1.88887285,4.627371862,-0.4807288349,5.021106572,0
15.34073375,2.103623539,4.554757045,-1.001556851,5.11606879,0
15.35081375,2.324457672,4.383237745,-1.372170921,5.14769168,0
15.36089475,2.529012571,4.057446676,-1.511740889,5.014393146,0
15.37097575,2.792014484,3.686391141,-1.618533266,4.899436137,0
15.38105575,2.97351849,3.3304606,-1.755114284,4.797312389,0
15.39113675,2.891032403,3.024782783,-1.94556643,4.614391398,0
15.40121775,2.710644631,2.753055655,-2.138885319,4.416077464,0
15.41129775,2.485305219,2.434832053,-2.184618001,4.108248406,0
15.42137875,2.215221158,1.927023008,-2.16855453,3.650102903,0
15.43146013,1.83021943,1.323734195,-2.137086131,3.109519659,0
15.44154013,1.397842391,0.7790654719,-2.005928845,2.566058629,0
15.45162113,0.9321561027,0.4160381645,-1.774558468,2.04720798,0
15.46170213,0.4934605622,0.2957153302,-1.415737794,1.528157186,0
15.47178213,0.1621719414,0.336868034,-1.030441366,1.096170251,0
15.48186313,-0.02947522938,0.327008459,-0.5992214906,0.6832786519,0
15.49194413,-0.1485251248,0.2417139548,-0.05827408209,0.2896225428,0
15.50202413,-0.1325008303,0.1441455603,0.3721002857,0.4204676387,0
15.51210513,-0.2451860315,0.04565681398,0.464950562,0.5276170579,0
15.52218613,-0.3343373591,0.06347912729,0.2808577015,0.4412392976,0
15.53226613,-0.3423579848,0.2668897265,-0.04823324338,0.436767171,0
15.54234713,-0.4759896666,0.3282106465,-0.4190617597,0.7140736304,0
15.55242813,-0.7000748509,0.3256051272,-0.6692347352,1.02176251,0
15.56250813,-0.8714421237,0.3764852589,-0.7538600256,1.212211806,0
15.57258913,-0.9105933255,0.4334529269,-0.5840280855,1.165397121,0
15.58267013,-0.9046636641,0.2977156627,-0.1042141937,0.9580770111,0
15.59275013,-0.6989960396,0.05022231996,0.6297686608,0.9421922898,0
15.60283113,-0.5133200455,-0.07009408236,1.270617941,1.372180966,0
15.61291213,-0.4527925926,-0.02190366983,1.844072507,1.898974543,0
15.62299213,-0.4267923635,0.2117785496,2.319683274,2.368107339,0
15.63307313,-0.3140282249,0.5215114099,2.544483134,2.616291707,0
15.64315412,-0.07834625781,0.7436658436,2.598297399,2.703761527,0
15.65323412,0.2747273344,0.9392604697,2.483284421,2.669154708,0
15.66331512,0.6318115318,1.144200701,1.980013254,2.372516289,0
15.67339612,0.812978738,1.401016259,1.365442238,2.118540415,0
15.68347612,0.8672485006,1.600584653,0.8307811707,2.001046863,0
15.69355712,0.8232745153,1.776312779,0.4202933295,2.002427152,0
15.70363812,0.7634060436,1.872884808,0.1470187359,2.027831551,0
15.71371813,0.7134743303,1.892379425,0.1914454418,2.031451911,0
15.72379913,0.5430782801,1.76508554,0.5035626505,1.914167267,0
15.73388013,0.3330720216,1.393844649,0.8734661373,1.678297641,0
15.74396013,0.2642081934,0.9242793185,1.147909589,1.497262386,0
15.75404113,0.2301265275,0.4703909576,1.203797423,1.312765823,0
15.76412213,0.1148293751,0.08273225427,1.023956804,1.033691418,0
15.77420213,0.03321101546,-0.3114484334,0.8670863865,0.921922936,0
15.78428313,-0.1012030238,-0.6487047225,0.730764547,0.9823831697,0
15.79436413,-0.3188317126,-0.8887943208,0.6462418753,1.144219195,0
15.80444413,-0.3972153926,-1.093411201,0.5655491298,1.29351225,0
15.81452513,-0.1687465507,-1.216179925,0.5957920986,1.364748048,0
15.82460613,0.1146592212,-1.198081039,0.8346672302,1.46465501,0
15.83468613,0.1795598066,-1.010686548,1.166723006,1.554017887,0
15.84476713,0.06024503231,-0.7926564476,1.519595454,1.714964737,0
15.85484813,-0.0958510673,-0.67019324,1.887582954,2.005321873,0
15.86492813,-0.2746437192,-0.5168856776,2.062414264,2.143863935,0
15.87500913,-0.3646902555,-0.3877200991,1.938519804,2.010269854,0
15.88509013,-0.1651803339,-0.4113562989,1.648353335,1.706917474,0
15.89517013,0.4317262441,-0.66804088,1.320287261,1.541371019,0
15.90525113,1.053844262,-0.9770548251,1.081756384,1.798727532,0
15.91533213,1.542450466,-0.8754731941,0.7252943306,1.916157253,0
15.92541213,1.96907326,-0.3203996435,0.1516900764,2.000728696,0
15.93549313,2.015853909,0.1549766502,-0.2501989956,2.037224651,0
15.94557412,1.810526592,0.3595104995,-0.6879297455,1.9698989,0
15.95565412,1.447734343,0.3869661006,-0.9511408424,1.774921517,0
15.96573512,1.201506922,0.2655080295,-0.8729299477,1.508681574,0
15.97581612,1.096413161,0.2063491175,-0.748310287,1.343380089,0
15.98589612,1.116017121,0.2039830416,-0.7570287779,1.363889976,0
15.99597712,1.24024765,0.125965105,-0.7941029026,1.478066595,0
16.00605812,1.493689365,-0.1091336024,-0.6820417455,1.645660659,0
16.01613812,1.809477602,-0.446682837,-0.4133864522,1.909089602,0
16.02621913,2.230463095,-0.7589370167,-0.09944315806,2.358143328,0
16.03630013,2.79993863,-1.035371446,0.1876843666,2.99113286,0
16.04638013,3.342982997,-1.265253267,0.5160255522,3.611465564,0
16.05646113,3.516590922,-1.496729332,0.9225052732,3.9316188,0
16.06654213,3.406597779,-1.60271684,1.124357589,3.929095276,0
16.07662213,3.137621182,-1.534620751,1.199456742,3.693023694,0
16.08670313,2.793562242,-1.51800121,1.197661647,3.397456563,0
16.09678413,2.466103547,-1.692681808,1.22314279,3.2315502,0
16.10686413,2.268071217,-2.095852297,1.334116949,3.364017231,0
16.11694513,2.13120544,-2.575542959,1.458599493,3.647323764,0
16.12702613,1.94863958,-3.020359072,1.484526778,3.888905359,0
16.13710613,1.589992422,-3.429480858,1.387718375,4.026807314,0
16.14718713,1.128596236,-3.755178663,1.157563342,4.08840423,0
16.15726813,0.7870094991,-3.987320434,0.9235441773,4.167858208,0
16.16734813,0.6002868533,-4.066956587,0.6624905567,4.164057388,0
16.17742913,0.4528352773,-4.076558593,0.4011061299,4.121198354,0
16.18751013,0.3682091099,-4.128419302,0.133120489,4.146944049,0
16.19759013,0.4102710557,-4.370060752,-0.04170190349,4.389475181,0
16.20767113,0.4617055035,-4.883146031,-0.1536867544,4.907331939,0
16.21775213,0.2981746691,-5.428518174,-0.2994576944,5.444941929,0
16.22783213,-0.02817597806,-5.883190647,-0.5026899536,5.904695018,0
16.23791313,-0.5172639924,-6.261752252,-0.7599854225,6.328876768,0
16.24799412,-1.037660923,-6.480393679,-1.056054509,6.647367415,0
16.25807412,-1.562378361,-6.622935932,-1.378525237,6.942956023,0
16.26815512,-1.965061485,-6.742341338,-1.696545356,7.224880588,0
16.27823612,-2.308294213,-6.845776244,-1.965904069,7.487165911,0
16.28831612,-2.560720267,-6.802665308,-2.22670392,7.602088787,0
16.29839712,-2.684009394,-6.646120727,-2.461874256,7.578631275,0
16.30847812,-2.655785469,-6.499639789,-2.593982154,7.485135754,0
16.31855812,-2.544360343,-6.400051181,-2.550294097,7.344278362,0
16.32863913,-2.440037829,-6.383172024,-2.442443959,7.257010554,0
16.33872013,-2.397416305,-6.420963163,-2.374076267,7.253455108,0
16.34880013,-2.382766106,-6.544868587,-2.381939895,7.361149149,0
16.35888113,-2.402483502,-6.75446554,-2.342907391,7.542144705,0
16.36896213,-2.47794182,-6.896256427,-2.284419155,7.675748774,0
16.37904213,-2.486505067,-6.8800573,-2.271637141,7.660171748,0
16.38912313,-2.450408451,-6.725489663,-2.27810884,7.511756963,0
16.39920413,-2.27884939,-6.512162186,-2.292752899,7.270359464,0
16.40928413,-2.045457777,-6.235571344,-2.226341685,6.929851716,0
16.41936513,-1.811817073,-6.009395195,-1.967344238,6.577686149,0
16.4294465,-1.534018196,-5.834836512,-1.714214472,6.271926355,0
16.4395265,-1.24691406,-5.661063695,-1.440898948,5.973158847,0
16.4496075,-0.8665860111,-5.559156082,-1.187103768,5.750165477,0
16.4596885,-0.7820574921,-5.557498981,-1.063437788,5.712119464,0
16.4697685,-0.7806798881,-5.525238723,-1.005805,5.670041246,0
16.4798495,-0.6372079271,-5.483569125,-0.8760035366,5.589539023,0
16.4899305,-0.3381234312,-5.514267007,-0.597840963,5.556876991,0
16.5000105,0.005891654491,-5.691110197,-0.2790455031,5.697950191,0
16.5100915,0.2822603023,-5.838588086,-0.07517940581,5.845890322,0
16.5201725,0.3944291943,-5.850079619,0.1364520863,5.864948858,0
16.5302525,0.3335742974,-5.765910704,0.2923303771,5.782945193,0
16.5403335,0.1614808005,-5.454581553,0.4086566395,5.472251476,0
16.5504145,-0.04481013715,-4.959072711,0.5378670953,4.988357557,0
16.5604945,-0.1499728954,-4.343756467,0.6650118761,4.396925393,0
16.5705755,-0.2137402904,-3.67818399,0.6908996925,3.748608376,0
16.5806565,-0.1228125787,-3.106456107,0.7006876391,3.186866116,0
16.5907365,-0.08594646871,-2.610590293,0.689968231,2.701596682,0
16.6008175,-0.05522987545,-2.3207577,0.7008753347,2.4249109,0
16.6108985,0.06131624222,-2.255029002,0.6694733016,2.353106454,0
16.6209785,0.1791744751,-2.328953888,0.6240147083,2.417751861,0
16.6310595,0.2263556582,-2.46179181,0.6086773154,2.546005474,0
16.6411405,0.1816162723,-2.629603391,0.4097296035,2.667522599,0
16.6512205,-0.0006613200903,-2.691964531,0.2581522322,2.70431434,0
16.6613015,-0.1815466905,-2.570628667,0.3812460619,2.605079558,0
16.6713825,-0.09202464938,-2.125078289,0.6560222206,2.225936078,0
16.6814625,0.5073132008,-1.658289655,0.7929941243,1.906864165,0
16.6915435,1.27100108,-1.245849867,0.514685078,1.852697052,0
16.7016245,1.863759643,-0.609330084,0.2550511613,1.977355369,0
16.7117045,2.0251656,0.01304192215,0.3091770825,2.04867183,0
16.7217855,2.121285054,0.2791962151,0.2354550952,2.152496204,0
16.7318665,2.217174128,0.168499652,0.2455228311,2.237081739,0
16.7419465,2.356636069,-0.2644773115,0.6344667524,2.454838054,0
16.7520275,2.297052941,-0.8002608977,1.126497086,2.680646453,0
16.7621085,1.926711352,-1.234144326,1.420512046,2.693173467,0
16.7721885,1.564830683,-1.431093021,1.440499291,2.56354452,0
16.7822695,1.280226817,-1.533639881,1.167211833,2.313744898,0
16.7923505,1.132206307,-1.53039263,0.9200333628,2.114344842,0
16.8024305,1.094950188,-1.364011863,0.8287746987,1.935539144,0
16.8125115,1.083251663,-1.220684401,0.9098054132,1.868488818,0
16.8225925,1.178960643,-0.9101303722,1.271202809,1.958122079,0
16.8326725,1.218607104,-0.5956329082,1.650035141,2.135977013,0
16.8427535,1.266935511,-0.4325067012,1.835445963,2.271794339,0
16.8528345,1.184423697,-0.3544540467,1.89849649,2.265565291,0
16.8629145,0.8290761226,-0.454890866,1.85236342,2.079794018,0
16.8729955,0.2970122427,-0.7430092744,1.728500974,1.904729553,0
16.8830765,-0.2232654047,-1.154758068,1.48284775,1.892657149,0
16.8931565,-0.6585894406,-1.641827404,1.061645032,2.063111109,0
16.9032375,-1.002248431,-2.076564672,0.5783758745,2.377212949,0
16.9133185,-1.197073563,-2.148371988,0.2968841887,2.477221738,0
16.9233985,-1.238323916,-1.923815811,0.3104845199,2.308877223,0
16.9334795,-1.058099865,-1.632651661,0.6681198174,2.05706365,0
16.9435605,-0.9033737683,-1.356066374,1.00909552,1.916578708,0
16.9536405,-0.7188672173,-1.172379017,1.212563422,1.83345376,0
16.9637215,-0.6641057038,-1.059647623,1.246132287,1.765427752,0
16.9738025,-0.7097806442,-0.9875084773,1.174119149,1.690419277,0
16.9838825,-0.7756612229,-0.9236814407,1.059128683,1.605176409,0
16.9939635,-0.9722691715,-0.9490528017,0.9148898596,1.637996342,0
17.0040445,-1.238687028,-1.088934572,0.8323447162,1.847409479,0
17.0141245,-1.454877301,-1.202372603,0.8446852648,2.067815522,0
17.0242055,-1.59723186,-1.311502989,0.8552076218,2.236642524,0
17.0342865,-1.751831657,-1.216342478,0.9270178619,2.325460233,0
17.0443665,-1.865321435,-1.005183733,0.9510809085,2.322579016,0
17.0544475,-1.93097865,-0.7560204256,0.9437514237,2.278357342,0
17.0645285,-1.925315621,-0.637292127,1.050195599,2.283832808,0
17.0746085,-2.03181096,-0.5193537873,1.44107758,2.544540966,0
17.0846895,-2.20779461,-0.2217647168,1.94286487,2.949281358,0
17.0947705,-2.177089711,0.1804556,2.321846305,3.1879859,0
17.1048505,-1.983303629,0.4979436225,2.521474925,3.246425254,0
17.1149315,-1.78684303,0.6066363448,2.421391497,3.069845672,0
17.1250125,-1.585847331,0.5963230258,2.200428872,2.777120834,0
17.1350925,-1.44439149,0.6125025639,1.994143197,2.537327976,0
17.1451735,-1.262595708,0.6772838661,1.948862359,2.418868713,0
17.1552545,-1.013677399,0.6247396168,2.02539481,2.349481984,0
17.1653345,-0.7291723502,0.5834123737,2.162103589,2.355154824,0
17.1754155,-0.5092726028,0.5789570877,2.282997112,2.409694111,0
17.1854965,-0.4009909397,0.4583369225,2.450909411,2.525435291,0
17.1955765,-0.380170759,0.3334453663,2.623518779,2.671809574,0
17.2056575,-0.3193427593,0.3993692145,2.615122177,2.664646237,0
17.2157385,-0.1740213239,0.6895484009,2.487165803,2.586842506,0
17.2258185,0.05708344281,1.100829271,2.337576923,2.584443746,0
17.2358995,0.316279403,1.529077883,2.242028888,2.7321796,0
17.2459805,0.5041978043,1.881199549,2.063361951,2.837356113,0
17.2560605,0.6623679113,2.14732446,1.770441005,2.860803198,0
17.2661415,0.831561774,2.264774264,1.473891277,2.827198781,0
17.2762225,0.9104793048,2.156157556,1.32144501,2.687788102,0
17.2863025,0.89666058,1.826285423,1.048185619,2.288670298,0
17.2963835,0.7742660773,1.26800906,0.6523223948,1.622608838,0
17.3064645,0.7361884242,0.6602863026,0.387662504,1.062183418,0
17.3165445,0.8398396772,0.2308425191,0.4960049781,1.00231726,0
17.3266255,1.071756037,0.03390916388,0.9504324523,1.432875669,0
17.3367065,1.452845979,0.07963965277,1.658583477,2.206355154,0
17.3467865,1.952772392,0.2927870446,2.220261458,2.97129689,0
17.3568675,2.242326511,0.6480039337,2.553305705,3.459379613,0
17.3669485,2.360059614,1.246636317,2.64498303,3.75764803,0
17.3770285,2.175098734,1.852752552,2.757422648,3.970784077,0
17.3871095,1.881236386,2.208682509,2.775435581,4.015018236,0
17.3971905,1.528031816,2.257731293,2.593434269,3.762729479,0
17.4072705,1.104026821,2.035546454,2.155205337,3.163421349,0
17.4173515,0.676768434,1.774966165,1.636807277,2.507520381,0
17.42743192,0.1848562145,1.536768141,1.098130488,1.897819462,0
17.43751192,-0.2763054979,1.370236224,0.6075549424,1.524144037,0
17.44759292,-0.6084647691,1.254737635,0.3245918047,1.431766652,0
17.45767292,-0.7404007584,1.11261543,0.1373098728,1.343488139,0
17.46775392,-0.6139827865,1.032036121,0.1125925228,1.20613038,0
17.47783492,-0.6266882014,1.036698691,0.1935355291,1.226759258,0
17.48791492,-0.7800811332,0.9951001366,0.1278853306,1.270868016,0
17.49799592,-0.9599958658,0.8682542217,-0.1679004586,1.305238683,0
17.50807692,-1.093249817,0.7046982443,-0.4363578236,1.371934011,0
17.51815692,-1.182893481,0.4667858568,-0.5834188056,1.399108118,0
17.52823792,-1.403544595,0.1777726051,-0.5808378446,1.529350559,0
17.53831892,-1.664960743,-0.1946516164,-0.5213272226,1.755495828,0
17.54839892,-1.818534939,-0.5202631755,-0.466312817,1.948124929,0
17.55847992,-1.864889325,-0.760631686,-0.4186515775,2.057095501,0
17.56856092,-1.958927171,-0.9210379145,-0.3910746467,2.199692224,0
17.57864092,-2.018629582,-0.9253554985,-0.2238021791,2.231868187,0
17.58872192,-1.9979702,-0.8712975512,-0.1554710323,2.185226666,0
17.59880292,-1.966640233,-0.8165287288,-0.1773887354,2.136787246,0
17.60888292,-1.950934027,-0.7775335014,-0.1856771636,2.108359062,0
17.61896392,-1.946396588,-0.7512077285,-0.0962141794,2.088547318,0
17.62904492,-1.905646757,-0.7170810391,0.03596242279,2.036415497,0
17.63912492,-1.720363696,-0.6607600732,0.2023361734,1.853967381,0
17.64920592,-1.652972782,-0.5903138423,0.4157721162,1.803789317,0
17.65928692,-1.645317607,-0.5695190969,0.4424862903,1.79644542,0
17.66936692,-1.601683345,-0.6364229384,0.3666718769,1.762064686,0
17.67944792,-1.57464465,-0.6683199383,0.2427059349,1.727733627,0
17.68952892,-1.563162473,-0.5442424607,0.1228359675,1.65974861,0
17.69960892,-1.46227286,-0.3809765053,-0.01809128523,1.511195655,0
17.70968992,-1.295386308,-0.1469536856,-0.2126983166,1.320932113,0
17.71977092,-1.228607013,0.08044204608,-0.3872172385,1.290691018,0
17.72985092,-1.245509559,0.219565579,-0.5221949494,1.368280187,0
17.73993192,-1.265407049,0.2764293127,-0.6244671366,1.437924674,0
17.75001292,-1.187717434,0.2883721045,-0.6281687164,1.374200534,0
17.76009292,-1.112242743,0.2327166979,-0.6206553367,1.294779529,0
17.77017392,-1.05996922,0.1051482864,-0.5852083459,1.215343457,0
17.78025492,-0.9439487672,-0.06341436937,-0.5278682104,1.083376899,0
17.79033492,-0.8359963024,-0.05764886856,-0.4679462367,0.9597848145,0
17.80041592,-0.6806954241,0.07920784503,-0.3377725983,0.7640094706,0
17.81049692,-0.5572647947,0.1681020413,-0.3268459064,0.6675556862,0
17.82057692,-0.3954542112,0.2743308932,-0.2813773727,0.5575075766,0
17.83065792,-0.2207037395,0.3640703776,-0.2168887237,0.4778055032,0
17.84073892,-0.005377684236,0.4247195256,-0.0736959672,0.4310993974,0
17.85081892,0.2957749718,0.4994106889,0.1179687452,0.5922925755,0
17.86089992,0.5444880438,0.5143712287,0.4380786592,0.867731469,0
17.87098092,0.5697684807,0.4577410913,0.7072517234,1.017038853,0
17.88106092,0.4404134524,0.3688873869,0.8335486579,1.012346422,0
17.89114192,0.32215527,0.3216600108,0.9110862458,1.018492674,0
17.90122292,0.2759341997,0.2934254875,1.04345756,1.118499834,0
17.91130292,0.3360465002,0.3259971099,1.185654244,1.274745995,0
17.92138392,0.4659160835,0.4014119393,1.235693253,1.380270683,0
17.93146492,0.6189897573,0.4029339695,1.201740811,1.410561973,0
17.94154492,0.8558300579,0.3040437753,1.08953245,1.418438813,0
17.95162592,1.118831971,0.1486227367,1.100984807,1.576718504,0
17.96170692,1.296796657,-0.01751566339,1.27311748,1.817365259,0
17.97178692,1.55264684,-0.09660654584,1.625792877,2.250166108,0
17.98186792,1.895486051,-0.1088704868,2.100196194,2.831173644,0
17.99194892,2.144113169,0.1029811621,2.491238096,3.288478927,0
18.00202892,2.227699701,0.5424263155,2.591028433,3.459812221,0
18.01210992,2.17399361,1.050732666,2.345823398,3.366478095,0
18.02219092,2.036040251,1.402868365,1.974923107,3.164462171,0
18.03227092,1.99476768,1.71321109,1.589157147,3.072394957,0
18.04235192,1.864305773,1.920777305,1.307784452,2.979147805,0
18.05243292,1.661374061,2.026357847,1.184533332,2.875658031,0
18.06251292,1.500473304,2.213450621,1.128100977,2.902308668,0
18.07259392,1.384248784,2.466640906,1.34460817,3.13184182,0
18.08267492,1.369702665,2.704382848,1.608742396,3.431883459,0
18.09275492,1.291810151,3.01191774,1.734957762,3.708166713,0
18.10283592,1.091178149,3.378834907,1.725014864,3.94751458,0
18.11291692,0.9122627056,3.47581361,1.340062544,3.83526676,0
18.12299692,0.8234902775,3.403260189,0.8416499752,3.601206857,0
18.13307792,0.8140657353,3.229849022,0.3584349042,3.350090044,0
18.14315892,0.5701041108,2.914232108,0.03679418921,2.969700539,0
18.15323892,0.1111877292,2.524330121,-0.1696566698,2.532466911,0
18.16331992,-0.3111829698,2.157175556,-0.3545602468,2.208156287,0
18.17340092,-0.5040750128,1.81988623,-0.5279079714,1.960807062,0
18.18348092,-0.6139950657,1.434622546,-0.483605665,1.633709347,0
18.19356192,-0.3839281797,0.9739996549,-0.1288968989,1.054841498,0
18.20364292,-0.03503593147,0.4589426941,0.2120133153,0.506759863,0
18.21372292,0.2848348314,-0.05970303196,0.5080590132,0.5855077233,0
18.22380392,0.6180793458,-0.2882923265,1.026295982,1.232241042,0
18.23388492,0.8114017439,-0.3215015513,1.531438989,1.762680179,0
18.24396492,0.9109312946,-0.2795349151,1.713312539,1.960452868,0
18.25404592,0.8492735749,-0.2179514551,1.468315372,1.710180831,0
18.26412692,0.7294986248,-0.1409216979,1.116025892,1.340724043,0
18.27420692,0.6595045298,-0.03315283567,0.7127141923,0.9716001519,0
18.28428792,0.6517821121,0.09305712149,0.4893248266,0.8203159973,0
18.29436892,0.7174668092,0.1329822754,0.4540921363,0.8594431779,0
18.30444892,0.6547127366,0.08299764477,0.5247697708,0.8431611286,0
18.31452992,0.1708281595,0.08690884732,0.561837025,0.593629725,0
18.32461092,-0.4697758305,0.04645934433,0.2988108462,0.5586910805,0
18.33469092,-0.4353374845,0.08066489808,0.3067867407,0.5386498449,0
18.34477192,-0.5049743146,0.08191035502,0.2660784253,0.5766334131,0
18.35485192,-0.6390386903,0.04567201674,0.2897950244,0.7031625253,0
18.36493292,-0.7649584794,-0.09270760417,0.1789587128,0.7910640909,0
18.37501392,-1.061946164,-0.3517073902,-0.0693930012,1.120822525,0
18.38509392,-1.421511919,-0.5361230171,-0.4785197568,1.592829302,0
18.39517492,-1.615142466,-0.5962867731,-0.8061369109,1.901078594,0
18.40525592,-1.864164855,-0.5567806453,-0.9384067762,2.160028373,0
18.41533592,-2.108742192,-0.4870777416,-1.029015815,2.396437336,0
18.42541692,-2.270618849,-0.3231302932,-0.9887834626,2.497561987,0
18.43549863,-2.108269152,-0.0002641479671,-0.5475666028,2.178216718,0
18.44557863,-1.600212185,0.3490378439,0.09110956013,1.64036807,0
18.45565963,-0.9681053692,0.6779527876,0.5421152437,1.300283402,0
18.46574063,-0.5051631796,1.005754421,0.5661519778,1.259865015,0
18.47582063,-0.422654289,1.282221887,0.3726214188,1.400562865,0
18.48590163,-0.4362946737,1.361394795,0.420942809,1.490282416,0
18.49598263,-0.4591952938,1.326341907,0.8222272789,1.62668401,0
18.50606263,-0.4107446802,1.26222441,1.346330175,1.890641847,0
18.51614363,-0.3622274083,1.258630711,1.790222721,2.218165312,0
18.52622462,-0.4472295517,1.180908789,1.848275047,2.238454934,0
18.53630462,-0.6112930673,0.9431840976,1.883891607,2.193700764,0
18.54638562,-0.7765476608,0.5869549093,1.938267789,2.168968501,0
18.55646662,-0.858469491,0.5159080231,1.827139117,2.083643037,0
18.56654662,-0.5150438046,0.7372444314,2.080153985,2.266239192,0
18.57662762,0.04308462381,0.9411111134,2.578217475,2.74495023,0
18.58670863,0.27934605,0.8816135015,3.063836337,3.200370241,0
18.59678863,0.5328778124,0.7072587401,3.282383623,3.399737628,0
18.60686963,0.9012488902,0.4088871659,3.307644764,3.452528372,0
18.61695063,0.9697244632,-0.01118163049,3.173133076,3.31802111,0
18.62703063,0.8173150331,-0.459879418,2.8924983,3.04073007,0
18.63711163,0.7068546975,-0.7445668995,2.5844126,2.780865319,0
18.64719263,0.4397094476,-1.003787126,2.494934413,2.725001049,0
18.65727263,0.1180903673,-1.311597714,2.48123848,2.809052918,0
18.66735363,-0.01142955244,-1.669560455,2.575091554,3.068983425,0
18.67743463,0.1301204288,-2.128811005,2.484219975,3.274158901,0
18.68751463,0.4184343535,-2.381526204,1.987626475,3.130082007,0
18.69759563,0.7884204322,-2.243528406,1.066667206,2.606301098,0
18.70767663,0.9026481289,-2.389333699,0.2452678925,2.565900526,0
18.71775663,0.8987433583,-2.611640745,0.2539743966,2.773609561,0
18.72783763,0.6639022207,-2.866495732,0.6486883503,3.013031782,0
18.73791863,0.3154280484,-3.257217792,0.9728018528,3.413986825,0
18.74799863,0.1150106388,-3.481450618,1.366686087,3.741865406,0
18.75807963,0.1208675024,-3.538278538,1.719001295,3.935605343,0
18.76816063,0.4290154749,-3.422779072,1.894970326,3.935782437,0
18.77824063,1.053331169,-3.157171055,1.856168203,3.810852401,0
18.78832163,1.838089197,-2.929325234,2.464389728,4.246496786,0
18.79840263,2.758184248,-2.960701685,3.566486383,5.393807555,0
18.80848263,2.902191522,-2.955734183,0.9624821019,4.252699377,0
18.81856363,2.903817048,-2.756351438,1.39360082,4.239310079,0
18.82864462,2.626385084,-2.635513465,1.08193487,3.874843596,0
18.83872462,2.13420974,-2.641193742,0.01871869147,3.395748222,0
